time,seconds_elapsed,z,y,x
1782814109521002000,0.074001953125,-0.15048691406548023,0.030660145875439047,0.0038996195207349955
1782814109541084200,0.094084228515625,-0.2139735900700092,0.10422522136718033,-0.006583826236566529
1782814109561166000,0.114166015625,-0.005695581293106078,0.06772621327042579,-0.09827976609938778
1782814109581248000,0.134248046875,0.09919979442059994,0.060372197245806454,-0.02825909434938803
1782814109601330000,0.154329833984375,0.15741466750204564,0.024256927769631145,0.03378874449105933
1782814109621412000,0.174412109375,0.147124744156003,0.06841185744702816,-0.0019280454531311988
1782814109641494000,0.194493896484375,-0.0085310969799757,0.058488575456291436,-0.011313754535024053
1782814109661576000,0.214575927734375,-0.16148469341993332,0.05632759803012013,-0.0046616305689094585
1782814109681658000,0.234658203125,-0.13032733861207962,0.029939211189746854,-0.03460914836269803
1782814109701740000,0.254739990234375,0.09006137919723987,0.08155892378985881,0.022175997876306062
1782814109721822000,0.274822021484375,0.0452174443423748,0.000419540586322546,0.002671726260171272
1782814109741905000,0.29490478515625,-0.00012567220628261565,-0.030572394526749848,0.08945933078401722
1782814109761987000,0.314987060546875,0.0873112037062645,-0.02263546404764056,0.15290435047075152
1782814109782069000,0.335069091796875,0.15944412750303744,-0.027198680309951304,0.1004527444906067
1782814109802151000,0.35515087890625,0.000772153416275978,-0.026609482245147226,0.009497178091242677
1782814109822233000,0.375233154296875,-0.15617781918346882,0.02343523612320423,0.017809579402796226
1782814109842315000,0.39531494140625,-0.19841478641033172,0.061391457290947436,-0.025341476169903763
1782814109862397000,0.41539697265625,0.008988777619600296,0.030165421161055563,0.01717378284195438
1782814109882478800,0.435478759765625,0.04828209261000156,0.01627820397540927,0.030672751911974043
1782814109902561000,0.45556103515625,-0.30929040557742116,0.04641425291150808,0.04528306605764664
1782814109922643000,0.475642822265625,-0.27100539084672925,0.08395765549466014,0.056838328597811044
1782814109942724900,0.495724853515625,-0.03330255014300346,0.08105228944197297,-0.02248202248502057
1782814109962807000,0.51580712890625,0.14416297174096107,0.036889468719065184,-0.016214593837421853
1782814109982889000,0.535888916015625,0.16933131526708603,-0.05361307837441563,0.07783179302550852
1782814110002971000,0.555970947265625,0.1188905833184719,-0.053138446599990126,0.062036258000507945
1782814110023053000,0.576052978515625,0.19807693275809288,-0.012569266454875468,-0.0352420988042606
1782814110043136000,0.596135986328125,0.13196867607831955,-0.029542613087594507,-0.036820595600781963
1782814110063218000,0.616218017578125,-0.021707389417290685,-0.023758622858673334,0.028738196802954186
1782814110083299800,0.6362998046875,-0.07335983524322509,-0.016633154892921446,-0.01842301800135756
1782814110103381800,0.6563818359375,-0.05942191078364849,0.01677095592841506,-0.08042834885735065
1782814110123464000,0.6764638671875,-0.11314122601151466,0.03176131205037236,-0.07200389972277917
1782814110143545900,0.6965458984375,-0.24011925419569013,0.008125877179950475,-0.05533918978096917
1782814110163627800,0.716627685546875,-0.08678396496176718,0.038236061022430656,-0.043381429120828395
1782814110183709400,0.73670947265625,-0.02988017447888851,0.030191578515619037,-0.09304672428411431
1782814110203791400,0.756791259765625,-0.027559038054943082,0.07006561600342393,-0.10034063501879573
1782814110223873500,0.77687353515625,-0.012248656198382377,0.07182049684673547,-0.05857500249757431
1782814110243955700,0.796955810546875,0.0591641366302967,-0.00929009865373373,-0.05548866755452472
1782814110264037600,0.81703759765625,0.052390696972608564,-0.02331613978818059,0.012919473840255522
1782814110284119600,0.83711962890625,0.026888006925582884,-0.015240677621215582,0.01958717782634776
1782814110304201700,0.85720166015625,0.03338146059811115,0.027467852640151978,-0.023660016755829565
1782814110324284700,0.87728466796875,0.10071078350543976,0.026794921814650294,-0.07364407727839425
1782814110344366600,0.89736669921875,0.09104103788435458,-0.028369039263576267,0.005468245660501998
1782814110364448500,0.917448486328125,-0.013852584263682365,0.031245909874141213,0.018007436637522186
1782814110384530400,0.937530517578125,-0.10930734693706035,0.09643383683860302,0.0142693483710289
1782814110404612600,0.957612548828125,-0.08973404693901538,0.05193111663684249,0.06380711729766335
1782814110424694500,0.977694580078125,-0.028442250630259513,-0.02336962354108691,0.011878876462852348
1782814110444776400,0.9977763671875,0.005966214928030967,-0.025620325077325104,-0.04750020325100049
1782814110464858600,1.017858642578125,-0.08452361881434917,-0.019439882876724005,-0.06037930284002795
1782814110484940500,1.0379404296875,-0.17943302256464957,0.021790829917043446,-0.04065592228022869
1782814110505022500,1.0580224609375,-0.18953297629654406,0.06514364943131803,-0.0704859968399629
1782814110525104600,1.078104736328125,-0.16211188540756702,0.06048690966665744,-0.022301608433795625
1782814110545186600,1.0981865234375,-0.02191372564435005,0.03948094651699066,0.01352816091517452
1782814110565268500,1.1182685546875,-0.01958849756717682,0.0389998850017786,-0.027381736126122994
1782814110585350400,1.138350341796875,0.050239656418561936,0.04255231678634882,0.00598311126390472
1782814110605433300,1.158433349609375,0.20889994006752965,0.01863163523375988,-0.007969724212080472
1782814110625515500,1.178515625,0.29434944155514237,-0.03437880107238889,0.003986465545481769
1782814110645597400,1.198597412109375,0.19011866723001003,-0.032737609736621376,0.020543204476125537
1782814110665679400,1.218679443359375,0.06692541828155517,-0.007023030504584312,-0.012411518609896302
1782814110685761500,1.238761474609375,-0.05426408962905407,0.023401626114547252,-0.02069364579748362
1782814110705843500,1.258843505859375,-0.22555296870470046,0.026531156311929226,0.008955911963037215
1782814110725925400,1.27892529296875,-0.24441782817244528,0.037735271893441676,0.04379596930504776
1782814110746007600,1.299007568359375,-0.1590443145304918,0.014371931962668895,-0.00978404248340521
1782814110766089500,1.31908935546875,-0.08811141417324543,-0.0013696809180080889,-0.04182922667618841
1782814110786171400,1.33917138671875,-0.001992635121941566,-0.0026331249825656414,-0.0607151974306209
1782814110806253300,1.35925341796875,-0.071782210662961,-0.00035202830806374546,-0.05887253327257931
1782814110826335500,1.37933544921875,-0.07776537672579288,-0.057075493787974114,0.06204657389854546
1782814110846417400,1.39941748046875,-0.11007540870010853,-0.053518093567341565,0.0550433669058606
1782814110866499300,1.419499267578125,-0.11573942581117153,0.009375877241045235,-0.04584567750962451
1782814110886581500,1.43958154296875,0.06386369262337684,0.01649418481364846,-0.037882635341724376
1782814110906663400,1.459663330078125,0.1573117916494608,-0.03253010446578264,-0.027564403783227314
1782814110926746600,1.47974658203125,0.08784896384477615,-0.05281725182160735,0.0240088712926954
1782814110946828500,1.49982861328125,-0.060382280248403544,-0.009242898511141538,0.049164259439124725
1782814110966910700,1.51991064453125,-0.1360445472151041,0.07373334473073483,0.004827312841883395
1782814110986992600,1.53999267578125,-0.11699147169888019,0.12490472904145716,-0.04156931536467746
1782814111007074600,1.560074462890625,-0.037515199401974675,0.0925796456284821,0.0038188230692176145
1782814111027156500,1.580156494140625,0.0988660324215889,0.015055530312657356,0.02713056296020513
1782814111047238700,1.60023876953125,0.13624620726704598,-0.04410524531677365,0.009154962216073181
1782814111067320600,1.620320556640625,0.09084230044186115,-0.06879077376201749,0.03464221494866069
1782814111087402500,1.640402587890625,0.02622808171212673,-0.056351855688542125,0.007613562009949237
1782814111107484700,1.660484619140625,-0.05611702401936054,0.003536649693548679,0.05126361090512946
1782814111127566600,1.680566650390625,-0.19796821168661116,0.026067776583880185,0.07924348645433783
1782814111147648500,1.7006484375,-0.1838157676935196,0.0399639077283442,0.035501192698441444
1782814111167730700,1.720730712890625,-0.07927695033252238,0.015922084014117717,0.003598824784631142
1782814111187812600,1.7408125,0.027328736430406567,-0.014720453139394522,0.04007742370595224
1782814111207894500,1.76089453125,0.011401683980226516,-0.0330928529150784,0.07367530353371984
1782814111227976400,1.7809765625,-0.03147416567206383,-0.030434739621728657,0.059931157213728874
1782814111248059400,1.801059326171875,0.01864332567155361,-0.010290946259349584,0.0004055622933199629
1782814111268141600,1.8211416015625,0.010898410633206367,-0.04376008514091372,-0.020093640927586236
1782814111288223500,1.841223388671875,-0.03248246593177318,-0.02470394088476896,0.04872426971981767
1782814111308305400,1.861305419921875,-0.04019932391941547,-0.022466537221521136,0.03789159039973747
1782814111328387600,1.8813876953125,-0.02298164713680744,0.019342267721146344,0.02722377821858972
1782814111348469500,1.901469482421875,-0.09636018708050251,-0.04063450046628713,0.09275769647597334
1782814111368551400,1.921551513671875,-0.05713292306363582,0.05151479092091322,-0.0003616729192435741
1782814111388633600,1.941633544921875,0.024976620346307755,0.06830225959271193,-0.07458089233762584
1782814111408715500,1.961715576171875,-0.010010521882772445,0.0872748172186315,0.037022104955674144
1782814111428797400,1.98179736328125,-0.07230711131989956,0.07852671648710965,0.018222321497218218
1782814111448879400,2.00187939453125,-0.07236439446508884,0.10731441955417394,0.028743612763588316
1782814111468961500,2.02196142578125,-0.04170739039480686,0.08439882339090109,0.022818497030925936
1782814111489043500,2.04204345703125,0.06261749195456505,0.06343947586193681,0.030956393442233093
1782814111509125400,2.06212548828125,0.01701250959932804,0.0702402419179678,0.03649654214503243
1782814111529207600,2.08220751953125,-0.04721943181455135,0.10161635404303669,0.00496818033400923
1782814111549289500,2.10228955078125,0.05043371768593788,0.09148045221492647,0.03888124532448128
1782814111569372400,2.122372314453125,0.03648118017911911,0.06034121758565306,0.04947987842666916
1782814111589454300,2.142454345703125,-0.027815058642625807,0.0872444220803678,0.025976874296879393
1782814111609536500,2.16253662109375,0.024120880299806594,0.05588394591584801,-0.018413576602865942
1782814111629618400,2.182618408203125,0.09836451264023781,-0.016524872212857006,-0.04237107846792787
1782814111649700400,2.202700439453125,0.14552373870015142,-0.036407238160073754,0.0012152803741628303
1782814111669782500,2.222782470703125,0.08497019353806971,-0.06863046863377094,-0.029070785191608592
1782814111689864400,2.242864501953125,-0.09723696991503238,0.03540463698878884,-0.044982640072656795
1782814111709946400,2.2629462890625,-0.1643342376321554,0.04018719509020448,0.029031083368882535
1782814111730028300,2.2830283203125,-0.21072774001657962,0.024182108967751262,0.09071248178342357
1782814111750110500,2.3031103515625,-0.13653086942732334,0.04144377102255821,0.03836474716970697
1782814111770192400,2.3231923828125,-0.0822562584042549,0.11210735291913151,-0.019659430211805738
1782814111790274300,2.3432744140625,-0.06725625767111777,0.12035656421780586,-0.009996315260906703
1782814111810356500,2.3633564453125,-0.01054185228049755,0.08188099535107612,0.07442529535053763
1782814111830438400,2.3834384765625,-0.009021510845422744,0.0798731626600027,0.04815547968880273
1782814111850520300,2.403520263671875,0.03398410266637802,0.062340574709326024,0.07534253805961925
1782814111870602500,2.4236025390625,0.02088204450905323,0.009692688105255365,0.14070403605927712
1782814111890684400,2.443684326171875,0.012543255230784416,-0.027006664869189262,0.1595379250000231
1782814111910767600,2.463767578125,0.0512777672946453,-0.014800532638281584,0.06820538422265089
1782814111930849500,2.483849609375,0.027091420543193814,-0.004451718711853027,0.029916136274836025
1782814111950931500,2.503931396484375,-0.037571898025274275,-0.01587459161058068,0.06615658020037225
1782814111971013600,2.524013671875,-0.10831307520270347,-0.021809826878458262,0.0909848324513994
1782814111991095600,2.544095458984375,-0.08336392738521099,-0.0010270049601793288,0.10029360840613953
1782814112011177500,2.564177490234375,0.014355273088812827,-0.01392769532650709,0.08650502015622333
1782814112031259600,2.584259765625,0.047107788133621216,0.019114304184168575,0.01203677272159257
1782814112051341600,2.604341552734375,-0.007523965764045715,0.04253609630391002,-0.020815034554293378
1782814112071423500,2.624423583984375,-0.01394727680981159,0.036119799520820374,0.009755081250402144
1782814112091505400,2.64450537109375,-0.02559153737425804,-0.018577128567546605,0.08552045696512796
1782814112111587600,2.664587646484375,-0.06835866595506668,-0.11681041604354978,0.17306754265334456
1782814112131669500,2.68466943359375,-0.03190729639232159,-0.16186887043192982,0.31937939952388406
1782814112151751400,2.70475146484375,0.008165186277031899,-0.14928499092981218,0.27479216111013666
1782814112171834000,2.724834228515625,0.052497664478421205,-0.00974646411910653,0.12010974071673117
1782814112191916300,2.744916259765625,-0.011570026284456253,0.06046177522540092,0.045055897105112666
1782814112211998200,2.764998291015625,-0.1150175412774086,0.09858487739264965,0.013004764945444185
1782814112232081400,2.785081298828125,-0.07024725618064404,0.09518705164790153,0.001196607639733702
1782814112252163300,2.805163330078125,-0.03917874870002269,0.09010244185999035,-0.12936995568885468
1782814112272245500,2.82524560546875,-0.016684592819213865,0.1721739913471043,-0.24538241715459153
1782814112292327400,2.845327392578125,-0.05326105006635189,0.19937559426650403,-0.24881869347989558
1782814112312409300,2.865409423828125,-0.047940731826424596,0.14762348745837806,-0.23030135054187847
1782814112332491500,2.885491455078125,-0.035846973928809166,0.11919862635433673,-0.19838028135253116
1782814112352573400,2.905573486328125,-0.04360007227361202,0.09004282062724232,-0.13415207539885304
1782814112372655400,2.9256552734375,-0.06428922455906867,0.011403291415423154,-0.015183992697647771
1782814112392737300,2.9457373046875,-0.02251812127828598,-0.07271145433709025,0.10099408482569269
1782814112412819500,2.9658193359375,0.010204583150148392,-0.12477438066005705,0.17732949268044904
1782814112432901400,2.9859013671875,0.03356324690580368,-0.12810396347418426,0.18641614118395372
1782814112452983300,3.0059833984375,0.012476619735360146,-0.08573241008222103,0.14739713135659693
1782814112473065500,3.0260654296875,-0.04654430903196335,-0.04693813065513968,0.1359736374033615
1782814112493147400,3.0461474609375,-0.07308803256452083,-0.016477233678847552,0.07185384656048845
1782814112513229300,3.066229248046875,-0.04735504089295864,0.006465104360878467,0.04590456809001043
1782814112533311500,3.0863115234375,-0.03023088761270046,0.0340656434699893,0.015672461201180703
1782814112553393400,3.106393310546875,-0.03487725211381912,0.06545739155560731,-0.054258248976734466
1782814112573475300,3.126475341796875,0.03620820845663547,0.06549874647930264,-0.09441993059976957
1782814112593558300,3.146558349609375,0.1335211662173271,0.018105711663514375,-0.06861117027825675
1782814112613640200,3.16664013671875,0.17442600805759428,-0.009835457576811313,-0.09966925682956353
1782814112633722400,3.186722412109375,0.08172317444086075,0.01897884123623371,-0.08466975841992534
1782814112653804300,3.20680419921875,0.012028291445970535,0.04741115499436855,-0.06735271748264786
1782814112673886200,3.22688623046875,-0.0459755692332983,0.07386793089583515,-0.020187125614029355
1782814112693968400,3.246968505859375,-0.05707271730899811,0.09638868252262472,-0.004642820837162435
1782814112714050300,3.26705029296875,-0.09923545025587081,0.12462415853440761,0.0004179240179713815
1782814112734132200,3.28713232421875,-0.10863514676392078,0.0819112443588674,0.03920801132712513
1782814112754214400,3.30721435546875,-0.06904547917544841,0.04385667738318443,0.02907921052665915
1782814112774296300,3.32729638671875,0.009397942942380905,-0.020439561438560485,0.01568552617873065
1782814112794378200,3.347378173828125,0.18681436498761175,-0.09823504104167223,-0.04115222246376797
1782814112814460200,3.367460205078125,0.15038988343179224,-0.1689551754310727,-0.06805366425965913
1782814112834542300,3.387542236328125,-0.03442015599608421,-0.11627250977456569,-0.08350574700869619
1782814112854624300,3.407624267578125,-0.16885083827376365,-0.056794777150452135,-0.062128420662833375
1782814112874706200,3.4277060546875,-0.22461305750608443,-0.05589519796222448,0.0011464186723227612
1782814112894788400,3.447788330078125,-0.24579613078832624,-0.05449833677634597,0.027719911722058895
1782814112914870300,3.467870361328125,-0.16133154868483543,-0.049633361088484526,0.030214445651264393
1782814112934952200,3.4879521484375,-0.08805413102805613,-0.04390343913435936,0.01622715649147285
1782814112955034400,3.508034423828125,-0.002356207737326622,-0.044696050816774364,0.045680399378738364
1782814112975117600,3.52811767578125,0.013272738549113273,-0.023924188683927056,0.052833043045783415
1782814112995199500,3.548199462890625,-0.007981061881780624,-0.004754501050710678,0.08385213102726265
1782814113015281400,3.568281494140625,0.020279986962676046,0.013466507555544375,0.05978107208539731
1782814113035363300,3.58836328125,0.01841419309079647,0.03351370867565274,0.008051334655995014
1782814113055445500,3.608445556640625,-0.01818155337870121,0.08118877530321478,0.0009383265963057055
1782814113075527400,3.62852734375,-0.006249123522639274,0.08033303525671362,-0.019194769558834375
1782814113095609300,3.648609375,0.08869885867238045,0.10516966261044144,-0.008924546427105088
1782814113115691500,3.66869140625,0.11024608909189701,0.09216025117263198,0.026867107984737956
1782814113135773400,3.6887734375,0.031250293788313864,0.08646408535763621,0.050153905230714
1782814113155855400,3.70885546875,-0.09225450532734393,0.10890402683317661,0.0466093462253455
1782814113175937000,3.72893701171875,-0.14105097720026968,0.08981675678640604,0.04850606495845131
1782814113196019000,3.74901904296875,-0.1791623889297247,-0.002170768167823553,0.08923552283234894
1782814113216100900,3.769100830078125,-0.05949672958552837,-0.049976767698675394,0.08922712033018469
1782814113236183000,3.78918310546875,0.0858159967124462,-0.07710340568572283,-0.02683221705115866
1782814113256265000,3.809264892578125,0.07927753485441208,-0.10091112838312984,-0.04843983588840346
1782814113276347000,3.829346923828125,-0.03909516206979751,-0.08843129377737641,-0.041127973938500505
1782814113296428800,3.8494287109375,-0.08379296645224094,-0.047210371725261206,0.04493178666825406
1782814113316511000,3.869510986328125,-0.045128597015142435,-0.059227849516272545,0.06353006305510643
1782814113336593000,3.889593017578125,-0.008739186772704124,-0.03235153302848339,-0.01910135565433884
1782814113356674800,3.9096748046875,-0.029848610296845435,-0.0357290466375649,-0.07406388272619806
1782814113376758000,3.929758056640625,-0.0930529622286558,-0.010779022037237882,0.007356771953997667
1782814113396840200,3.949840087890625,-0.1273521221935749,0.025305267778784037,0.013420405674783979
1782814113416922000,3.969922119140625,-0.16686287932693958,0.09558350361958146,0.007105859082983806
1782814113437004000,3.990004150390625,-0.1433288590043783,0.11079729323387146,0.02034846735531464
1782814113457086200,4.010086181640625,-0.02110591639280319,0.054771746890246865,0.07757818359062076
1782814113477168000,4.030168212890625,0.026937106764316557,0.04570157459750771,0.12020214084107428
1782814113497250000,4.05025,0.043217794957756996,0.10658479010537267,0.10205173151930794
1782814113517332000,4.07033203125,0.05249707995653152,0.0920982918523252,0.1007425120842643
1782814113537414100,4.0904140625,0.10408581289649009,0.05043371768593788,0.11642403794131241
1782814113557496000,4.11049609375,0.15648527769744394,-0.0028403379924595356,0.0873553259757813
1782814113577578000,4.130577880859375,0.10364859052300453,0.023054566242545843,-0.008400849063275382
1782814113597660200,4.15066015625,-0.04838789107203483,0.05901362224370241,-0.012069073264219332
1782814113617742000,4.1707421875,-0.103505967181921,0.03416545058265328,0.017765323560894466
1782814113637824000,4.190823974609375,-0.07053308738470077,0.017949790449440478,0.02035013643930433
1782814113657906200,4.21090625,-0.021097148564457893,0.006537877336144447,0.007697408935078419
1782814113677988000,4.230988037109375,-0.025709026274085042,0.01328223702982068,-0.013027814744180067
1782814113698070000,4.251070068359375,0.027813305076956747,-0.00968611223399639,0.014078383243037387
1782814113718152000,4.27115185546875,0.03547346444129944,-0.028182430650293827,0.05108608978060074
1782814113738234000,4.291234130859375,-0.028518238475918768,-0.03956818640902638,0.06385970600142608
1782814113758316000,4.31131591796875,-0.09639876552522182,-0.007489478972554206,0.09960753497127443
1782814113778399000,4.33139892578125,-0.0874888983607292,0.023276976821571586,0.0781393337378744
1782814113798481000,4.35148095703125,-0.05227379259467125,0.03506868303269148,0.025896671500406226
1782814113818563000,4.37156298828125,-0.09759411278963089,0.05173194080293178,0.06795648749549872
1782814113838645000,4.39164501953125,-0.12375438996255397,0.08013473620563745,0.06492431672536768
1782814113858727000,4.411726806640625,-0.06668810239434242,0.09692176648601888,0.062008392746048045
1782814113878809000,4.43180908203125,0.06466098048090935,0.07088394664898515,0.05460297989433165
1782814113898891000,4.45189111328125,0.24569676206707952,-0.029063743529468774,0.0225000810148078
1782814113918973000,4.471972900390625,0.260940508428216,-0.07802358927056192,-0.06855066769609693
1782814113939054800,4.492054931640625,0.10154664980769157,-0.04271510613262653,-0.14093673970345408
1782814113959137000,4.512136962890625,-0.03448036175072193,0.018735241738706825,-0.15196432054112666
1782814113979219000,4.532218994140625,-0.12081541390120983,0.01485080152079463,-0.13464569500153883
1782814113999300900,4.55230078125,-0.13148001577854157,0.008213847724348307,-0.11311842965781688
1782814114019383000,4.572383056640625,-0.1955266637533903,0.038284868600219485,-0.15270754012386314
1782814114039465000,4.59246484375,-0.2014905405938625,0.03242138339430094,-0.17003959140060468
1782814114059547000,4.612546875,-0.17842179969549177,0.015749357795715332,-0.11739007909502834
1782814114079629000,4.632629150390625,-0.11211831270456313,0.0013123977728188036,-0.11629033769220114
1782814114099711000,4.6527109375,-0.012003741526603698,-0.03143544109687209,-0.0807562930369284
1782814114119793000,4.67279296875,-0.003880640825629234,-0.028556963051110506,-0.027574146575818304
1782814114139874800,4.692874755859375,-0.034789573830366134,-0.00018821604847908018,-0.0290929696239531
1782814114159957800,4.712957763671875,-0.18090134155154228,0.06341682563871145,0.0005228525470360182
1782814114180039400,4.733039306640625,-0.18207856863737104,0.05891074639111757,0.019853180951927788
1782814114200121300,4.753121337890625,-0.09178279616236686,0.02348404370099306,0.07818493557842447
1782814114220203500,4.77320361328125,-0.012868833923339843,0.02203618298023939,0.07312119048202875
1782814114240285400,4.793285400390625,0.05241057071685791,0.05664981572180986,0.02157070262664929
1782814114260367400,4.813367431640625,0.15843641176521778,0.09047273647710681,0.061206392180779945
1782814114280449300,4.83344921875,0.11572130563259124,0.04483385185226798,-0.03227592877531424
1782814114300531500,4.853531494140625,0.061328621187806125,0.07784823270365596,0.04755186950615607
1782814114320613400,4.87361328125,0.0462806896597147,0.06143149704039096,0.026321331219840795
1782814114340695300,4.8936953125,0.08660802387297153,0.0328444311119616,0.024065387252904472
1782814114360777500,4.913777587890625,0.1332031863093376,0.027731472012400626,0.008945933991717173
1782814114380859400,4.933859375,0.0827098473906517,0.02239770976901054,-0.015973869000282137
1782814114400941300,4.95394140625,0.02370586975812912,0.030329087290167808,0.03033153497558087
1782814114421023500,4.9740234375,-0.10824000996649265,0.07068170207515359,0.07930968355834483
1782814114441105400,4.99410546875,-0.11022387726008892,0.044766631834954024,0.11241725911851971
1782814114461187300,5.014187255859375,-0.04176525806188583,-0.040025720918178555,0.15946385511681438
1782814114481269200,5.034269287109375,-0.021581132689118383,-0.1475852012746036,0.15524095845846458
1782814114501351400,5.054351318359375,-0.09455050731003284,-0.10005524220615625,0.16015709807798265
1782814114521433300,5.074433349609375,-0.15315350292623042,-0.006740706431865692,0.048531071535544465
1782814114541515300,5.094515380859375,-0.20070435865223407,0.0326756504163146,-0.015058644718350842
1782814114561597400,5.114597412109375,-0.208802324911952,0.05994155074357986,-0.030071842859778552
1782814114581679400,5.134679443359375,-0.16171791765391827,0.0747539199501276,-0.04602444987632334
1782814114601762600,5.154762451171875,-0.0828711754322052,0.09108794576600193,-0.013730656650755554
1782814114621844500,5.174844482421875,0.03210778740048408,0.06232888427153229,-0.10333612704034895
1782814114641926400,5.194926513671875,0.1664735877484083,0.08826660473495722,-0.13868821185799315
1782814114662008600,5.215008544921875,0.18079437404572962,0.0657793169863522,-0.12797898538764566
1782814114682090500,5.235090576171875,0.16171967121958733,0.06301452844813465,-0.058457066073175516
1782814114702172400,5.25517236328125,0.10492460180819034,0.034019320110231635,-0.048272886390238995
1782814114722254600,5.275254638671875,0.07847206369042396,0.03634469431787729,-0.00731512705264613
1782814114742336500,5.29533642578125,0.028955460849404334,0.0023601532600820065,0.0013511406143195926
1782814114762418400,5.31541845703125,-0.03431669562160969,-0.058379562123864887,0.05078446735236793
1782814114782500600,5.33550048828125,-0.16292553987801073,-0.04150251547247171,0.13569179738783277
1782814114802582500,5.35558251953125,-0.3198696672588587,-0.028120032938569784,0.12131614823127165
1782814114822664400,5.37566455078125,-0.2523684949159622,0.007514759544283151,0.14863997102454304
1782814114842746600,5.39574658203125,-0.1057762502014637,-0.048715807852149004,0.17258858176367356
1782814114862828500,5.41582861328125,-0.114677349537611,-0.054010114867985244,0.14648031790577806
1782814114882910500,5.435910400390625,-0.08821195193827151,0.0060791737832129,0.08769106986932455
1782814114902992400,5.455992431640625,-0.07114040562808513,-0.004963759887218475,0.004702085876883939
1782814114923074600,5.476074462890625,0.08726444195508956,0.007147533667087555,0.009389211646653711
1782814114943156500,5.496156494140625,0.1599216818869114,0.006944120049476623,-0.008126352103985846
1782814114963238400,5.51623828125,0.16910335173010826,0.03209069013521075,-0.04777123874472454
1782814114983320600,5.536320556640625,0.16361001501083372,0.060464990095794195,-0.11506733523588628
1782814115003402500,5.556402587890625,0.10662965216040611,0.0886715322740376,-0.11364777816100977
1782814115023484400,5.576484375,0.05001578453481197,0.07626563968732952,-0.08580659869643859
1782814115043566600,5.596566650390625,0.02522153501808643,0.04753726559206843,-0.10382239445364103
1782814115063648500,5.6166484375,-0.05315525160431862,0.044486207458376885,-0.1277651965064928
1782814115083730400,5.63673046875,-0.14421733227670192,0.012445640075206757,-0.07670919133690185
1782814115103812400,5.656812255859375,-0.1957183869332075,-0.013040098837018012,0.0012162165225017814
1782814115123894500,5.67689453125,-0.18208616742193698,-0.0017661328896880148,-0.0008879892151337117
1782814115143976400,5.6969765625,-0.16844985625743866,0.06518091270178555,-0.050321133290091524
1782814115164059400,5.717059326171875,-0.11376140373647212,0.039502135435491796,-0.025858572546299547
1782814115184141600,5.7371416015625,-0.02320084284543991,0.027792700680345294,0.03515673577548004
1782814115204223700,5.7572236328125,0.06754033530950546,0.01857946665510535,-0.0010610716265626252
1782814115224305700,5.7773056640625,0.08587561794519424,0.058725014560669656,-0.010547998893493785
1782814115244387600,5.7973876953125,0.12812953630685806,0.024739304459095,0.04142129432926885
1782814115264469500,5.817469482421875,0.14868950925469399,-0.018221885389089584,0.09695869182976893
1782814115284551700,5.8375517578125,0.06002630641758441,-0.003887801218777895,0.02386866823756136
1782814115304633600,5.857633544921875,-0.04450491215884685,0.08884133588299155,0.01674805911001749
1782814115324715500,5.877715576171875,-0.07173018821477889,0.07005538687035441,0.05307232256121933
1782814115344797700,5.897797607421875,-0.07433131062388419,0.0249026783272624,0.0671110496473033
1782814115364879600,5.917879638671875,-0.07571487393677234,0.04227525341063738,0.010916813939576967
1782814115384961500,5.93796142578125,-0.03185352037847042,0.005600888746976852,-0.00552722072256729
1782814115405043700,5.958043701171875,0.032086744612455365,-0.007797668138891458,0.047505929738888515
1782814115425125600,5.978125732421875,0.050884384062886236,-0.05090323489382863,0.08558212402448989
1782814115445207600,5.99820751953125,0.02207330012023449,-0.10648483686223625,0.1955111373906955
1782814115465289500,6.01828955078125,-0.0013479074776172636,-0.1478045431137085,0.20924164791097863
1782814115485371600,6.03837158203125,-0.06497136160433292,-0.09644567340686917,0.13412051121680996
1782814115505453800,6.058453857421875,-0.08983283113837241,-0.06324439168125391,0.1148469248177018
1782814115525535700,6.07853564453125,-0.07822597997486591,-0.050572687765210865,0.13085633092224597
1782814115545618000,6.098617919921875,-0.05592062466442585,-0.01934898972287774,0.12126018026033415
1782814115565699800,6.118699951171875,-0.06122866794466972,0.03661474343091249,0.06018093072371557
1782814115585781800,6.13878173828125,-0.01471416952908039,0.060828708841651674,0.030814706249488517
1782814115605864700,6.15886474609375,-0.044918753656744956,0.08284954812228679,0.018344936380023137
1782814115625947000,6.17894677734375,0.0030792613148689267,0.09352218717560172,-0.03927803522287868
1782814115646028800,6.19902880859375,0.05083879135549068,0.09907733708471059,-0.12179766640421003
1782814115666110700,6.21911083984375,0.05333937599956989,0.06827931710854172,-0.1333695741184987
1782814115686192600,6.239192626953125,0.06876900032162665,0.10763649111539125,-0.11693701069843955
1782814115706274800,6.25927490234375,0.048673722276091576,0.11498568483442068,-0.10076232189643196
1782814115726356700,6.279356689453125,-0.018164602243900298,0.0713036333657801,-0.051776464931247754
1782814115746438700,6.299438720703125,-0.033654432320594785,0.008789017263799905,0.07459221744923852
1782814115766520800,6.319520751953125,-0.05705927330553531,-0.004154927722364664,0.09867677519349381
1782814115786602800,6.339602783203125,-0.0862953046619892,-0.024576661243289707,0.09319508324624039
1782814115806684700,6.3596845703125,-0.027062778970599173,-0.04082067068815231,0.10283280802755616
1782814115826766800,6.379766845703125,0.055392801398038864,-0.05119783392623067,0.15615776277612894
1782814115846848800,6.399848876953125,-0.02646247498989105,-0.04867708327695727,0.13822015595482662
1782814115866930700,6.4199306640625,-0.14733283394873142,-0.036796968130022284,0.14805884666834027
1782814115887012600,6.4400126953125,-0.15424480529427528,-0.011275719512999056,0.11288356145601719
1782814115907094800,6.4600947265625,-0.10754150630831717,0.011289017385989426,0.08848567257942631
1782814115927176700,6.4801767578125,-0.08911796086728573,0.026294278816133734,0.029155750928167253
1782814115947258600,6.500258544921875,-0.07315700614750385,0.03913052564412355,0.05513248822772875
1782814115967340800,6.5203408203125,0.028020810347795484,0.017220161000639198,0.029338898075884207
1782814115987422700,6.540422607421875,0.0921340938180685,0.05139978623911738,-0.018386702295672148
1782814116007505700,6.560505615234375,0.10448737943470478,0.07272007603496312,-0.026531960029527544
1782814116027587600,6.580587646484375,0.06826689601838588,0.047645840533077716,0.0018864530674181877
1782814116047669800,6.600669677734375,0.11304945607483387,0.021119798787683247,0.0009290792773477733
1782814116067751700,6.620751708984375,0.12471066777408123,0.0022562544941902157,-0.0157690671431832
1782814116087833600,6.64083349609375,0.08156359996497631,0.024083763159811495,-0.04454118904862553
1782814116107915500,6.66091552734375,-0.03515373096764087,0.024574907677620647,-0.011795633467566222
1782814116127997700,6.680997802734375,-0.16105156269967555,0.011535393362492322,-0.024686770554259416
1782814116148079600,6.70107958984375,-0.16498305692970752,0.034710663375258445,0.017610603356640785
1782814116168161500,6.72116162109375,0.012322890478372574,-0.04857698390334844,0.07696929444465786
1782814116188244200,6.741244140625,0.17645955971181393,-0.1348793028280139,0.06214518000138923
1782814116208326100,6.761326171875,0.07389525729417801,-0.11707944224327801,0.006139626133022829
1782814116228408000,6.781407958984375,-0.05263268903493881,-0.02841521649286151,-0.023845607022382316
1782814116248490000,6.801489990234375,-0.08667582841217518,-0.02480228669270873,-0.0013944317667745052
1782814116268572200,6.821572265625,-0.18276771994531155,0.020052607947587966,-0.0028515991719905284
1782814116288654000,6.841654052734375,-0.266675252687931,0.033561639470607044,0.013439464284991844
1782814116308736000,6.861736083984375,-0.20777590447366237,0.08442585752829909,-0.00879003104395233
1782814116328818200,6.881818115234375,-0.10678805759251117,0.09892565365433692,-0.12056008743327111
1782814116348900000,6.901900146484375,0.03234218067824841,0.05643646523207426,-0.07732545093856752
1782814116368982000,6.92198193359375,0.1311684656113386,0.009338321709632873,0.008250161146745085
1782814116389064200,6.942064208984375,0.11155541812479496,-0.03572495498433709,0.07104357592379675
1782814116409146000,6.96214599609375,0.05280570751428604,-0.034032033461332316,0.09246043969560414
1782814116429228000,6.98222802734375,-0.03105389443337917,-0.009884703546017408,0.0831553626684472
1782814116449311000,7.00231103515625,-0.12327215940356254,-0.001985766989737749,0.0903819346548058
1782814116469393000,7.022392822265625,-0.1477168648302555,-0.025415888546407223,0.13526972691770642
1782814116489475000,7.04247509765625,-0.10787526830732821,-0.022920564599335193,0.11473585652550682
1782814116509557000,7.062556884765625,-0.021689269238710403,-0.03153027977347374,0.06653749667620286
1782814116529639000,7.082638916015625,0.039407881280779836,-0.017641455152630804,0.027161983295064418
1782814116549721000,7.10272119140625,0.06479132886230946,-0.009204173935949802,0.021017105598188937
1782814116569803000,7.122802978515625,0.08614917418956757,-0.018865443989634512,0.010517759018857032
1782814116589885000,7.142885009765625,0.09970482133328915,-0.0029233401007950303,-0.043826209179684515
1782814116609967000,7.162967041015625,0.07652619031965732,0.021897212900966405,-0.09675362511118873
1782814116630049000,7.183049072265625,0.019116788402199745,0.020626754573732614,-0.08194184042653069
1782814116650131000,7.203130859375,-0.04910568395256996,0.041094080802053214,-0.057204070337396114
1782814116670212900,7.223212890625,-0.03177344087958336,0.04968772162422538,-0.10060555129898711
1782814116690295000,7.243294921875,-0.02351414657831192,0.04646320661976933,-0.04772935409806668
1782814116710377000,7.263376953125,-0.13573007443845272,0.06632657560557127,-0.057277519166097045
1782814116730459000,7.283458984375,-0.22132629092037676,0.11179492596909403,0.025822606183774768
1782814116750541000,7.303541015625,-0.15501637418866157,0.04321823334917426,0.04650434234775602
1782814116770623000,7.323623046875,0.04420680599510669,0.002358984216302633,0.060676459155697374
1782814116790705000,7.343704833984375,0.13296937755346297,-0.06692673345580696,0.01625195528930053
1782814116810787000,7.363787109375,0.001991466078162193,-0.03429126891940832,0.0326765180659946
1782814116830869200,7.383869140625,-0.12902210123240948,0.01352642104923725,0.07148054256895557
1782814116850951200,7.403951171875,-0.18822598535120486,0.016741291442513465,0.13233414838984608
1782814116871033000,7.424033203125,-0.2143009223282337,0.022372429197281597,0.09279370850427075
1782814116891115300,7.444115234375,-0.16650632097423076,0.02231134665980935,0.05932322704899125
1782814116911197200,7.464197265625,-0.12211597510576247,0.013717559707164763,0.04313879317110404
1782814116931280100,7.484280029296875,-0.05016951379179954,-0.00018690087422728536,0.1262252096560318
1782814116951362000,7.504362060546875,0.08592296421825885,-0.0103349315315485,0.1177143882791046
1782814116971444200,7.5244443359375,0.19736206248700616,-0.002921440404653549,0.06167233832525089
1782814116991526100,7.544526123046875,0.19313947635591028,0.014762830976396798,0.031145207712333648
1782814117011608000,7.564608154296875,0.06935176864564419,0.03825125859156251,0.02828844830803573
1782814117031690200,7.584690185546875,-0.013317162212729453,0.041907735272496936,0.03328579993760213
1782814117051772200,7.604772216796875,-0.042483635464310644,0.04365019502565264,0.07640676519107073
1782814117071854000,7.62485400390625,-0.026850013002753255,0.028441519977897404,0.040077030980307606
1782814117091936000,7.64493603515625,0.030544775867462157,0.034707448504865165,0.03506334927044809
1782814117112018200,7.66501806640625,0.05087386266887187,0.02187105554640293,0.013450981192849576
1782814117132100000,7.68510009765625,0.04358955087959766,0.0059722062774002545,-0.003339720615651458
1782814117152182000,7.70518212890625,-0.02304185289144516,0.0209378663495183,-0.004246332332864404
1782814117172264200,7.72526416015625,-0.052502340653538704,0.029191899953782557,-0.048713561096135526
1782814117192345900,7.745345947265625,0.0009895955592393875,0.0009207681067287921,-0.06562739609396084
1782814117212427800,7.765427734375,0.035706104153394695,-0.037185675186663866,-0.008227967581246047
1782814117232510000,7.785510009765625,0.033570261168479915,-0.04126315375864505,-0.021214966257847846
1782814117252591900,7.805591796875,-0.030110476103425023,0.007375204943120479,-0.11570488422075285
1782814117272673800,7.825673828125,-0.12347615754306315,0.042304625635594124,-0.1127438972570002
1782814117292756000,7.845755859375,-0.19244447982907295,0.0997356548629701,-0.050701026852615176
1782814117312838000,7.865837890625,-0.22562018872201442,0.12033829790875315,-0.019022972638905046
1782814117332919800,7.885919921875,-0.11324877803921699,0.0779288967244327,0.007972695912234484
1782814117353001700,7.906001708984375,0.020014029502868652,0.010556465327739715,0.02865125373844057
1782814117373084000,7.926083984375,0.09565525368154049,0.00163519998639822,-0.022401454362366346
1782814117393165800,7.946165771484375,0.08260814058184623,-0.006754881087690592,-0.021548600392695516
1782814117413247700,7.966247802734375,-0.012532733836770057,0.03332724619284272,-0.10137303767330012
1782814117433330000,7.986329833984375,-0.16108721853494642,0.09295052476748823,0.0025429350816179065
1782814117453411800,8.006411865234375,-0.1590934143692255,0.06118687462955713,0.20542904908657073
1782814117473494800,8.026494873046875,-0.052826165780425066,0.011698328839242458,0.11050016431766561
1782814117493576700,8.04657666015625,0.008331775015592575,0.018086860832571983,0.08630620051533915
1782814117513659000,8.066658935546876,0.011122867038846015,0.021988690576702354,0.054362873828411096
1782814117533740800,8.08674072265625,0.05214636682271957,0.005563479346036911,0.0352006297161337
1782814117553822700,8.10682275390625,0.06919862391054629,-0.06140241707637906,0.08578955623009242
1782814117573904600,8.126904541015625,0.03828150759935379,-0.05980418809950351,0.047628925930894905
1782814117593986800,8.14698681640625,0.016375380739569664,-0.01831570115238428,-0.01781838262211531
1782814117614068700,8.16706884765625,-0.0003267477363348007,-0.04759469486773014,-0.026840222261101006
1782814117634150700,8.187150634765626,-0.013311901515722273,-0.05029518599808216,-0.03057862333813682
1782814117654232800,8.20723291015625,-0.023023732712864873,-0.03641206046566367,-0.015874902137834577
1782814117674314800,8.227314697265625,0.00890752907693386,-0.028689211128652095,-0.028513964159600436
1782814117694396700,8.247396728515625,-0.03315408158302307,0.010329816965013741,-0.111452332209656
1782814117714478800,8.267478759765625,-0.13450491655766963,0.04148074203208089,-0.11583921465752646
1782814117734560800,8.287560791015625,-0.17677929318547247,0.016110153932124376,-0.03819362838650122
1782814117754642700,8.307642578125,-0.20862346121370792,-0.0033745909996330736,0.10995512505499645
1782814117774724600,8.327724609375,-0.03779518538713455,-0.005904109477251768,0.09755931547088548
1782814117794806800,8.347806884765625,0.24412615174949168,-0.019840134240686893,-0.24379138510348275
1782814117814888700,8.367888671875,0.2711018369585276,-0.10700199260413647,-0.24923574984818694
1782814117834970600,8.387970703125,0.4708317976206541,-0.012667758393287657,-0.16358188489489256
1782814117855053000,8.408052978515625,0.2729506796956062,0.05804448495060205,-0.16487477424964309
1782814117875135000,8.428135009765626,-0.18659984545409677,0.20510303200259802,-0.029527214589063076
1782814117895217000,8.448216796875,-0.466281294709444,0.2796468163333833,-0.15875983503330499
1782814117915298800,8.468298828125,-0.35505730049610135,0.334539120863378,-0.26309585983119904
1782814117935381000,8.488381103515625,-0.1615285325616598,0.26069340179935097,-0.09723478709110059
1782814117955463000,8.508462890625,-0.006140986973047256,0.08821429002583027,0.006187018071860075
1782814117975544800,8.528544921875,-0.08455226038694381,-0.0024368717581033706,0.0258160668451339
1782814117995627000,8.548626953125,-0.3045493485301733,-0.03643076516613364,0.06337603697059675
1782814118015709000,8.568708984375,-0.2765764689773321,-0.05121610023528337,0.16909754304382948
1782814118035792000,8.5887919921875,0.06615852556228638,-0.11103066359832882,0.12185713237333111
1782814118055873800,8.608873779296875,0.08054653187692165,-0.12214826994016766,0.10490591537402942
1782814118075956000,8.6289560546875,0.046124622315168375,-0.08876768612489104,0.13723884416674262
1782814118096038000,8.649037841796876,-0.03663607847988605,-0.0808330937333405,0.11449714326565154
1782814118116119800,8.669119873046874,-0.03282207314968109,-0.062409986683726305,0.12225430586421862
1782814118136202000,8.689201904296874,-0.05705167452096939,-0.12004106852784752,0.13837944730292073
1782814118156284000,8.709283935546875,-0.07717091796398162,-0.033032062638551,0.075604892489966
1782814118176365800,8.72936572265625,0.05351648613214492,0.03946092664226889,0.0004669873240869492
1782814118196447700,8.74944775390625,0.08914894052743912,-0.027278321417421102,0.0810023584861774
1782814118216530000,8.769530029296876,-0.012138181561231613,-0.04118409717306495,0.11546846338268368
1782814118236611800,8.78961181640625,-0.20260931549072264,0.054200376743078225,0.07406053085848689
1782814118256693800,8.80969384765625,-0.11503098528087138,0.08218202412426472,0.003377139149745926
1782814118276776000,8.82977587890625,0.1303933895856142,0.018974311191588638,0.03630594234322197
1782814118296857900,8.84985791015625,0.1552677186012268,-0.055402007617801424,0.042391582399839534
1782814118316939800,8.869939697265625,-0.022513445103168488,0.04812251813411712,-0.0001804254676681012
1782814118337022000,8.89002197265625,0.07714344543516635,0.019513971026241778,0.03080227602617815
1782814118357103900,8.910103759765626,0.11643676042556762,-0.03859875685498118,0.09841653508841991
1782814118377185800,8.930185791015624,0.017732640567421912,-0.022525281671434638,0.06417785487277433
1782814118397267700,8.950267822265625,-0.10108253942728042,0.008233575338125229,-0.013137933188304304
1782814118417350000,8.970349853515625,-0.0792547385007143,0.03923822380229831,0.03575901251756586
1782814118437431800,8.990431884765625,-0.07664134113192558,0.016237141312658784,0.06219463603314943
1782814118457513700,9.010513671875,-0.0706844785541296,0.019579291347414252,0.038676247104560024
1782814118477596000,9.030595947265626,-0.14646481894254684,0.048760962168127295,0.038230809458578006
1782814118497677800,9.050677734375,-0.041837154254317284,0.07601371075287461,-0.002494323866651393
1782814118517759700,9.070759765625,0.07227846974730491,0.08121098713502288,0.024292798234033398
1782814118537842000,9.090842041015625,0.09608078561723232,0.023645664003491402,0.060675902033271265
1782814118557923800,9.110923828125,0.01547054085433483,0.01474339562356472,0.03816440229201689
1782814118578005800,9.131005859375,-0.013109656941890716,0.018061141869425774,-0.01769802134518977
1782814118598087700,9.151087646484376,0.07784428718090057,-0.039867607747018335,0.03041374249947257
1782814118618169900,9.171169921875,0.06533668778538704,-0.08332242633104324,0.04988061384782195
1782814118638251800,9.191251708984375,-0.03835691092312336,-0.006782792007923126,0.06688174810318742
1782814118658334700,9.211334716796875,-0.11255495055615901,0.011796820777654647,0.008194380405475385
1782814118678416600,9.231416748046875,-0.09307166692912577,0.018480390194803475,0.03136379149961285
1782814118698498800,9.251498779296876,-0.10389993493556976,0.0031676702506840226,0.06686589294692967
1782814118718580700,9.271580810546874,-0.037818566262722016,-0.0033813130013644692,0.08844890249930322
1782814118738662700,9.29166259765625,0.11075462313592434,-0.008970072919130325,0.056042808005679394
1782814118758744800,9.311744873046875,0.09720832834243774,-0.01059679733812809,0.044335944233532064
1782814118778826800,9.33182666015625,-0.007289572486281395,0.010987696351855992,0.06662334376217331
1782814118798909000,9.351908935546875,-0.014288637593388557,-0.020083733738213778,0.08675457447050139
1782814118818990800,9.371990966796876,0.032064532780647276,-0.012990414476394653,0.043113613064074886
1782814118839073000,9.392072998046874,-0.04161152880489826,0.022135697831958533,0.00668109889884945
1782814118859155000,9.412155029296875,-0.0325865108281374,0.012033113751560449,0.0604128671829123
1782814118879236900,9.43223681640625,0.037409985461831094,-0.0153008833758533,0.049839249790972096
1782814118899319000,9.452319091796875,0.0817559076666832,-0.013126461946219204,0.03163871086729923
1782814118919401000,9.47240087890625,-0.008205518287420272,0.012807020733505486,-0.008492577900760807
1782814118939483000,9.49248291015625,-0.11461012952029705,0.04170695200338959,-0.010622198924154507
1782814118959564800,9.512564697265624,-0.08322539569735526,0.049275049170106645,0.025816174159699584
1782814118979647000,9.53264697265625,-0.10509703576564788,-0.006581278086453676,0.012925610178452916
1782814118999729000,9.55272900390625,-0.14790215826928615,-0.01193462181314826,0.0878014714412391
1782814119019810800,9.572810791015625,-0.09482932425141334,-0.004259264879673719,0.03778344243370229
1782814119039893000,9.59289306640625,0.048078094470500946,0.02467266896367073,0.027705369456764307
1782814119059975000,9.612974853515626,0.031874563166499136,0.026366175008565185,0.06679908848814665
1782814119080056800,9.633056884765624,-0.0901128171235323,0.030964316453784703,0.04477814874281175
1782814119100139000,9.653138916015624,-0.1453209096044302,0.1088229244209826,0.048946127742994575
1782814119120221000,9.673220947265625,-0.013961889857053756,0.08422332069352269,0.0664640387143474
1782814119140302800,9.693302734375,0.12039923431575297,-0.03868658126890659,0.07974251288450322
1782814119160384800,9.713384765625,0.1903115594536066,-0.06180997496396303,0.10535879197437316
1782814119180467700,9.7334677734375,0.09993863008916377,-0.06572247223258018,0.09557988689038902
1782814119200549600,9.753549560546874,-0.07043839483857155,0.02565276604220271,0.09112921849130652
1782814119220631600,9.773631591796875,-0.19697686256170271,0.04532674993574619,0.05296828679800965
1782814119240713500,9.79371337890625,-0.13479133228361606,0.030203561214357612,0.07779187200707383
1782814119260795600,9.813795654296875,-0.05635960060358047,0.007202040333300829,0.04073605657804291
1782814119280877600,9.833877685546875,-0.08459317691922187,0.05636939134523272,-0.02618370371428318
1782814119300959500,9.85395947265625,-0.05938040972948074,0.05838394603803754,-0.047293451465410176
1782814119321042400,9.87404248046875,0.05519406395554542,0.006003332068026066,-0.023721861911704764
1782814119341124600,9.89412451171875,0.11923778932094574,-0.04575988065600395,0.004257538713468238
1782814119361206500,9.91420654296875,0.10152034632265568,-0.03567088670954108,-0.028585339762223883
1782814119381288400,9.934288330078125,0.04451952520608902,-0.01292538641616702,-0.06326081765966955
1782814119401370600,9.95437060546875,0.01130699143409729,0.0024671207658946512,-0.06352056000782176
1782814119421452500,9.97445263671875,-0.07579436891376971,-0.02447115504220128,0.019058176383026874
1782814119441534500,9.994534423828124,-0.1872656158864498,0.027792408419400453,0.041383725098124706
1782814119461616600,10.01461669921875,-0.1598427714318037,0.07750818709433079,-0.024153202533675356
1782814119481698600,10.034698486328125,-0.17678104675114154,0.04909077864438295,-0.03624029779506381
1782814119501780500,10.054780517578125,-0.11023732126355171,0.03857508371844887,0.07226447318799327
1782814119521862400,10.0748623046875,0.03682312548458576,0.03599076631367206,0.03448159016000572
1782814119541944600,10.094944580078124,0.04373042065501213,0.04912175830453634,-0.020230503531452268
1782814119562026500,10.115026611328124,0.05197451738715172,0.03931874169260263,0.025027272821310904
1782814119582108400,10.1351083984375,0.07590659711658954,-0.04807736381813883,0.10089558375412598
1782814119602190600,10.155190673828125,0.11399170536100864,-0.027800591725856066,0.08745997366034425
1782814119622272500,10.1752724609375,0.03791092072129249,0.01276478902697563,0.05381899447636679
1782814119642354400,10.1953544921875,-0.055063715574145314,0.03534282379895448,0.0892079224393703
1782814119662436600,10.2154365234375,-0.1008569139778614,0.05515928490310907,0.12491616375092417
1782814119682518500,10.2355185546875,-0.023232407027482985,0.05181757325977087,0.13533219769466667
1782814119702600400,10.255600341796875,0.11095803675353526,-0.018550678952038286,0.10895007619829848
1782814119722682400,10.275682373046875,0.04908405664265156,-0.054540714613348244,0.06435620711436495
1782814119742765300,10.295765380859375,0.019307927060127256,0.0012963234208524226,0.04480595919834449
1782814119762847500,10.315847412109376,-0.13375263688564298,0.011995558220148085,-0.010341635266970843
1782814119782929400,10.335929443359374,-0.16115969924926757,0.07385097976103425,0.002788146580918692
1782814119803011300,10.35601123046875,-0.05529343267679214,0.05788257238715887,0.02830795672610402
1782814119823093500,10.376093505859375,0.14724807827472686,-0.05786503673046827,0.13063004788570104
1782814119843175400,10.396175537109375,0.1911865887224674,0.0822846077159047,0.22912627888051793
1782814119863257300,10.41625732421875,0.1865858169287443,-0.029711905239894986,-0.05955421366011723
1782814119883339500,10.436339599609376,0.06778115832805633,0.010528627472743392,-0.14229650201564653
1782814119903421400,10.45642138671875,-0.11396715544164181,-0.08726035030186176,-0.15738847361486405
1782814119923503400,10.47650341796875,-0.060067807471752166,-0.010700549973547458,0.047573158889356995
