time,seconds_elapsed,z,y,x
1782814264746273000,0.05727294921875,0.011725557036697865,-0.01903730258345604,0.05349726974964142
1782814264766355000,0.07735498046875,0.0037838949356228113,-0.005331268534064293,0.04709023982286453
1782814264786435800,0.097435791015625,0.00449901819229126,0.018235623836517334,0.0022362738382071257
1782814264806517800,0.117517822265625,0.005323747638612986,0.039062462747097015,-0.02091878466308117
1782814264826599000,0.137598876953125,-0.0016404830384999514,0.02428267151117325,-0.01026832778006792
1782814264846680800,0.157680908203125,-0.003545592539012432,0.002312582917511463,0.02567155845463276
1782814264866762000,0.177761962890625,-0.0001084138493752107,-0.02854384295642376,0.03850893676280975
1782814264886844000,0.197843994140625,0.007026916369795799,-0.01723761111497879,0.019916702061891556
1782814264906925000,0.217925048828125,0.010122484527528286,0.0023056119680404663,-0.004815567284822464
1782814264927007000,0.238007080078125,-0.000008532428182661533,-0.02096058800816536,-0.019083667546510696
1782814264947088100,0.258088134765625,-0.006345171947032213,-0.04007113724946976,-0.017164910212159157
1782814264967170000,0.278170166015625,0.008463842794299126,-0.030256131663918495,-0.004720461554825306
1782814264987251000,0.2982509765625,0.023380490019917488,-0.01308274082839489,0.01139159221202135
1782814265007333000,0.3183330078125,0.010984700173139572,-0.06586058437824249,-0.0032906364649534225
1782814265027413800,0.338413818359375,-0.002587017836049199,-0.0908074826002121,-0.04605787619948387
1782814265047495000,0.358494873046875,-0.0007130029844120145,-0.055714353919029236,-0.0730966255068779
1782814265067576800,0.378576904296875,0.01696128025650978,0.026556402444839478,-0.03809037804603577
1782814265087658000,0.398657958984375,0.03691675513982773,0.031065665185451508,0.018632790073752403
1782814265107740000,0.418739990234375,0.03951490670442581,-0.023461297154426575,0.04732385277748108
1782814265127821000,0.438821044921875,0.027187591418623924,-0.042950794100761414,0.028745200484991074
1782814265147903000,0.458903076171875,0.014533048495650291,-0.011087935417890549,-0.0073677971959114075
1782814265167984000,0.478984130859375,0.018689710646867752,0.022561371326446533,-0.02387353591620922
1782814265188066000,0.499066162109375,0.03340549021959305,0.034009356051683426,-0.0017774938605725765
1782814265208147000,0.51914697265625,0.03263789787888527,0.011093341745436192,0.02987784519791603
1782814265228229000,0.53922900390625,0.025972021743655205,-0.016302160918712616,0.04069172963500023
1782814265248309800,0.559309814453125,0.015258188359439373,-0.01945689506828785,0.01936173066496849
1782814265268392000,0.579391845703125,0.013703464530408382,-0.0005775780882686377,-0.0026665586046874523
1782814265288472800,0.599472900390625,0.019225213676691055,0.02982465736567974,0.01032972801476717
1782814265308555000,0.619554931640625,0.016459429636597633,0.011351785622537136,0.03028370440006256
1782814265328635400,0.639635498046875,0.009312759153544903,-0.0019796830601990223,0.033720336854457855
1782814265348717600,0.659717529296875,0.0061227730475366116,-0.014395218342542648,0.017024243250489235
1782814265368798500,0.679798583984375,0.00285662105306983,-0.012333809398114681,0.010157344862818718
1782814265388880400,0.69988037109375,0.004110127687454224,0.008190421387553215,0.012100337073206902
1782814265408961500,0.71996142578125,0.0008196334238164127,0.022376015782356262,0.007757360115647316
1782814265429043500,0.74004345703125,0.0022430801764130592,0.017595738172531128,0.010820143856108189
1782814265449124600,0.76012451171875,0.008463374339044094,0.0015785438008606434,0.01625678315758705
1782814265469206500,0.78020654296875,0.004086382687091827,-0.015395139344036579,0.015018729493021965
1782814265489287700,0.80028759765625,0.008874823339283466,-0.012677166610956192,0.005469874478876591
1782814265509369600,0.82036962890625,0.010787214152514935,0.012827322818338871,-0.01506546325981617
1782814265529450800,0.84045068359375,0.014288952574133873,0.012129428796470165,-0.025721509009599686
1782814265549531400,0.860531494140625,0.02371884137392044,-0.0050279139541089535,-0.006736699026077986
1782814265569613600,0.880613525390625,0.02355058863759041,-0.03259354457259178,0.014484412968158722
1782814265589694500,0.900694580078125,0.00624108174815774,-0.06793669611215591,0.0008312161080539227
1782814265609776400,0.9207763671875,0.009947695769369602,-0.038022663444280624,-0.0413234606385231
1782814265629857500,0.940857421875,0.006279809400439262,0.02711322531104088,-0.05692324414849281
1782814265649939500,0.960939453125,0.0037773398216813803,0.02535928785800934,-0.005846067331731319
1782814265670020600,0.9810205078125,0.008977634832262993,-0.004378587007522583,0.04575270041823387
1782814265690102500,1.0011025390625,0.012406592257320881,-0.015511762350797653,0.028813816606998444
1782814265710183700,1.02118359375,-0.000038462894735857844,-0.005266604013741016,-0.020760271698236465
1782814265730265600,1.041265625,-0.013521794229745865,-0.006190624088048935,-0.05170232430100441
1782814265750346500,1.061346435546875,-0.005819364916533232,-0.0006697399076074362,-0.03662349656224251
1782814265770428400,1.081428466796875,0.0012389308540150523,0.007057971321046352,-0.009877564385533333
1782814265790509600,1.101509521484375,-0.0008845363045111299,-0.00845130905508995,-0.006601722911000252
1782814265810591500,1.121591552734375,-0.002562314970418811,-0.014066414907574654,-0.01162033248692751
1782814265830672400,1.14167236328125,0.0015432400396093726,-0.013404547236859798,-0.012519978918135166
1782814265850754600,1.161754638671875,0.0023975949734449387,-0.018001260235905647,-0.005477664060890675
1782814265870835500,1.18183544921875,-0.0010237809037789702,-0.004549270495772362,0.0005095363594591618
1782814265890917600,1.201917724609375,-0.00673337047919631,-0.00039870874024927616,0.001437561004422605
1782814265910998500,1.22199853515625,-0.009856915101408958,-0.011479638516902924,0.003984516020864248
1782814265931080700,1.242080810546875,-0.011372635141015053,-0.01699363999068737,0.00650573568418622
1782814265951161600,1.26216162109375,-0.01378836389631033,-0.003563246224075556,0.009137706831097603
1782814265971243500,1.282243408203125,-0.015098067000508308,-0.0013320748694241047,0.006874107755720615
1782814265991324400,1.302324462890625,-0.012344573624432087,-0.0046568866819143295,-0.0010227593593299389
1782814266011405600,1.322405517578125,-0.0017752605490386486,-0.00402537826448679,0.007249254733324051
1782814266031487500,1.342487548828125,0.005027647130191326,-0.011680006049573421,0.014336839318275452
1782814266051568400,1.362568359375,0.00597315514460206,0.003781532868742943,0.023900730535387993
1782814266071650600,1.382650634765625,0.010658961720764637,-0.004239447880536318,0.01619357243180275
1782814266091731500,1.4027314453125,0.013137097470462322,-0.004022884648293257,-0.001062322175130248
1782814266111813600,1.422813720703125,0.011395239271223545,-0.005107663571834564,-0.009788441471755505
1782814266131894500,1.44289453125,0.014729538932442665,-0.002846928546205163,0.0035613449290394783
1782814266151976700,1.462976806640625,0.008676907978951931,0.0051222676411271095,-0.006037543527781963
1782814266172057600,1.4830576171875,-0.0017285177018493414,-0.02013333886861801,-0.02991500496864319
1782814266192139500,1.503139404296875,-0.0025411599781364202,-0.016432974487543106,-0.02845044992864132
1782814266212220400,1.523220458984375,-0.003397533670067787,0.00530314352363348,0.00021108821965754032
1782814266232302300,1.54330224609375,-0.0034970457199960947,0.01471221074461937,0.03328544273972511
1782814266252383500,1.563383544921875,-0.006181877572089434,0.010490108281373978,0.04248526692390442
1782814266272465400,1.58346533203125,-0.005159403663128614,-0.002888256683945656,0.018755918368697166
1782814266292546600,1.603546630859375,-0.012702171690762043,0.005173687357455492,-0.03141389787197113
1782814266312628500,1.62362841796875,-0.026208357885479927,0.016487743705511093,-0.06612206995487213
1782814266332710000,1.6437099609375,-0.02529803477227688,0.020153556019067764,-0.059372272342443466
1782814266352791800,1.663791748046875,-0.006552769802510738,0.025028062984347343,-0.017173053696751595
1782814266372872700,1.683872802734375,0.004280222579836845,-0.005756602622568607,0.023300541564822197
1782814266392955000,1.703954833984375,0.009620177559554577,-0.012092651799321175,0.03143057972192764
1782814266413035800,1.724035888671875,0.005924329161643982,0.00855193380266428,0.017355186864733696
1782814266433116700,1.74411669921875,0.005531757604330778,0.022278154268860817,-0.0003776287194341421
1782814266453198600,1.764198486328125,0.005563801154494286,0.02433999814093113,-0.0002754146698862314
1782814266473279700,1.78427978515625,-0.004630637355148792,-0.008059486746788025,0.016444940119981766
1782814266493361700,1.804361572265625,-0.02048732526600361,-0.01935238018631935,0.014703053049743176
1782814266513442800,1.82444287109375,-0.029720919206738472,0.005981648340821266,0.00046335533261299133
1782814266533524700,1.844524658203125,-0.03611541539430618,0.010694639757275581,-0.006950157228857279
1782814266553606000,1.86460595703125,-0.03563527390360832,-0.001219883095473051,0.007966505363583565
1782814266573687800,1.884687744140625,-0.033664267510175705,-0.0014763455837965012,0.01679381914436817
1782814266593769000,1.90476904296875,-0.030812973156571388,0.007999108172953129,0.0058900341391563416
1782814266613851000,1.924850830078125,-0.027652500197291374,0.010018246248364449,-0.011006858199834824
1782814266633931800,1.944931884765625,-0.024395136162638664,0.021004995331168175,-0.018451254814863205
1782814266654014000,1.965013916015625,-0.022914865985512733,0.00792570598423481,-0.008366979658603668
1782814266674094600,1.985094482421875,-0.022915583103895187,-0.018406521528959274,-0.006679881364107132
1782814266694176800,2.0051767578125,-0.010626869276165962,-0.008840326219797134,-0.005616455338895321
1782814266714257700,2.025257568359375,0.0007465638918802142,0.007246402092278004,-0.005544929299503565
1782814266734339800,2.04533984375,-0.0036525141913443804,-0.013452092185616493,-0.016932208091020584
1782814266754420700,2.065420654296875,-0.007834600284695625,-0.03306680917739868,-0.038263097405433655
1782814266774502700,2.085502685546875,0.0067743584513664246,-0.0075667258352041245,-0.026436174288392067
1782814266794583800,2.105583740234375,0.014321008697152138,0.019551053643226624,0.0155748650431633
1782814266814665700,2.125665771484375,0.020447371527552605,0.007065962068736553,0.05348333343863487
1782814266834747000,2.145746826171875,0.021498408168554306,-0.015882330015301704,0.04552828520536423
1782814266854827800,2.165827880859375,0.009455190040171146,-0.014443593099713326,0.010728076100349426
1782814266874910000,2.185909912109375,-0.004692727699875832,-0.0022905231453478336,-0.013417970389127731
1782814266894990600,2.205990478515625,-0.010209680534899235,0.010035797022283077,-0.013710713014006615
1782814266915072800,2.22607275390625,-0.005850390996783972,0.006462391000241041,-0.011756839230656624
1782814266935153700,2.246153564453125,-0.007014712318778038,0.009676463901996613,-0.00044334703125059605
1782814266955235800,2.26623583984375,-0.008774958550930023,0.004264145623892546,0.011086685582995415
1782814266975316700,2.286316650390625,-0.0036713711451739073,-0.0003593163564801216,0.010757415555417538
1782814266995398700,2.306398681640625,0.0027199534233659506,-0.008689857088029385,0.0021781199611723423
1782814267015479800,2.326479736328125,0.004071911331266165,-0.00652720034122467,-0.006064210087060928
1782814267035561700,2.346561767578125,0.0011645127087831497,0.015694409608840942,0.0007617685478180647
1782814267055643000,2.366642822265625,0.0009474264807067811,0.02350282296538353,0.01779206469655037
1782814267075724800,2.386724853515625,0.0007271744543686509,0.011178703978657722,0.030709953978657722
1782814267095806000,2.406805908203125,-0.002110311994329095,-0.0001865043304860592,0.017940811812877655
1782814267115887900,2.426887939453125,0.007475079037249088,0.023752383887767792,-0.0041743796318769455
1782814267135968800,2.44696875,0.0078849783167243,0.02783764898777008,-0.009280105121433735
1782814267156050700,2.46705078125,0.00775727117434144,0.019197020679712296,0.007098903879523277
1782814267176131800,2.4871318359375,0.01983666978776455,0.014030419290065765,0.03152228891849518
1782814267196212700,2.507212646484375,0.03026467002928257,0.006728127133101225,0.03913451358675957
1782814267216294700,2.527294677734375,0.030652694404125214,-0.009073207154870033,0.03200043737888336
1782814267236375800,2.547375732421875,0.022236989811062813,-0.011939759366214275,0.01672295294702053
1782814267256457700,2.567457763671875,0.007579169701784849,-0.005370856262743473,-0.014064114540815353
1782814267276539000,2.587538818359375,0.0063795363530516624,0.010970208793878555,-0.03200773894786835
1782814267296620800,2.607620849609375,0.007151019759476185,0.008967362344264984,-0.026169033721089363
1782814267316702000,2.627701904296875,-0.006419675890356302,-0.03454370051622391,-0.01554139144718647
1782814267336783000,2.647783203125,-0.02669922634959221,-0.07071778178215027,-0.024288993328809738
1782814267356864300,2.6678642578125,-0.029532525688409805,-0.04093194752931595,-0.03571413457393646
1782814267376946200,2.6879462890625,-0.023830847814679146,0.017820240929722786,-0.029428280889987946
1782814267397027300,2.70802734375,-0.01240487303584814,0.04939107224345207,-0.004843247588723898
1782814267417109200,2.728109130859375,-0.009162474423646927,0.013894062489271164,0.017839694395661354
1782814267437190100,2.748190185546875,-0.013332417234778404,-0.014606939628720284,0.029001809656620026
1782814267457272000,2.76827197265625,-0.015144165605306625,-0.0032173984218388796,0.021066388115286827
1782814267477353200,2.788353271484375,-0.006006477866321802,0.013156174682080746,0.00004392419941723347
1782814267497435100,2.80843505859375,0.0005265610525384545,0.017266474664211273,-0.0010675920639187098
1782814267517516000,2.82851611328125,-0.00003300776006653905,0.008881001733243465,0.008242998272180557
1782814267537598200,2.84859814453125,0.0017275693826377392,-0.005419083405286074,0.0036617410369217396
1782814267557679000,2.86867919921875,0.006147153675556183,-0.01999415084719658,-0.009997477754950523
1782814267577760300,2.88876025390625,0.007952455431222916,-0.029434233903884888,-0.016758993268013
1782814267597842200,2.90884228515625,0.0030325697734951973,-0.01269149873405695,-0.010685302317142487
1782814267617923300,2.92892333984375,0.0003001579607371241,0.0071867965161800385,-0.0023781436029821634
1782814267638005200,2.949005126953125,-0.0053506274707615376,0.012468254193663597,0.0011092399945482612
1782814267658086100,2.969086181640625,-0.012069099582731724,0.010512236505746841,0.0016179088270291686
1782814267678168000,2.98916796875,-0.012548154219985008,0.006431791000068188,0.0026755775325000286
1782814267698249200,3.009249267578125,-0.004074582364410162,0.016805481165647507,0.00967426784336567
1782814267718331100,3.0293310546875,-0.00023911063908599317,0.020098840817809105,0.018260180950164795
1782814267738412000,3.049412109375,-0.0023951928596943617,0.006085723638534546,0.019989222288131714
1782814267758494200,3.069494140625,-0.0009240283397957683,-0.011084326542913914,0.008264666423201561
1782814267778575000,3.0895751953125,0.004590214230120182,-0.003202631138265133,-0.0036858024541288614
1782814267798657300,3.1096572265625,0.007756132632493973,-0.0047353291884064674,-0.01234972570091486
1782814267818738200,3.12973828125,0.010448194108903408,0.010852588340640068,-0.0026484751142561436
1782814267838820000,3.149820068359375,0.00649003591388464,-0.014510363340377808,0.005512315314263105
1782814267858901200,3.1699013671875,0.006095205433666706,-0.020209334790706635,0.008138453587889671
1782814267878983200,3.189983154296875,0.012394366785883904,0.011866404674947262,0.018399229273200035
1782814267899064000,3.21006396484375,0.004370172508060932,0.010284100659191608,0.024467483162879944
1782814267919145200,3.230145263671875,-0.019704993814229965,-0.04420315846800804,0.005036167800426483
1782814267939227100,3.25022705078125,-0.023418555036187172,-0.033083803951740265,-0.010178675875067711
1782814267959308000,3.27030810546875,-0.014698413200676441,0.019483698531985283,-0.006619012914597988
1782814267979390200,3.29039013671875,-0.00700346240773797,0.027678946033120155,0.01426747813820839
1782814267999471000,3.31047119140625,-0.002887164708226919,0.01068045198917389,0.03954353556036949
1782814268019553300,3.33055322265625,-0.0014507329324260354,-0.019742386415600777,0.030779963359236717
1782814268039634200,3.35063427734375,-0.002076017437502742,-0.017036808654665947,0.0032220741268247366
1782814268059716400,3.37071630859375,0.0012238280614838004,0.0014093578793108463,-0.022640855982899666
1782814268079797200,3.39079736328125,0.009230862371623516,0.00286150723695755,-0.021962517872452736
1782814268099879200,3.410879150390625,0.010245935060083866,0.004372319206595421,-0.0005147859919816256
1782814268119960000,3.4309599609375,0.010855617932975292,-0.025205790996551514,0.009354304522275925
1782814268140042000,3.4510419921875,0.010859295725822449,-0.020998405292630196,-0.0039012518245726824
1782814268160123100,3.471123046875,0.014153359457850456,0.015171317383646965,-0.01375068724155426
1782814268180205000,3.491205078125,0.018121305853128433,0.016559645533561707,-0.005212981253862381
1782814268200286200,3.5112861328125,0.01345991063863039,-0.008298082277178764,0.015435781329870224
1782814268220368100,3.5313681640625,0.0026355828158557415,-0.014687949791550636,0.030434729531407356
1782814268240449300,3.55144921875,-0.010982834734022617,-0.011842580512166023,0.01992758736014366
1782814268260530200,3.5715302734375,-0.010693805292248726,0.010783588513731956,0.0016334421234205365
1782814268280612400,3.5916123046875,-0.012003496289253235,0.007381278555840254,-0.0014931699261069298
1782814268300693200,3.611693359375,-0.015865929424762726,-0.0010999692603945732,0.006674007512629032
1782814268320775200,3.631775146484375,-0.010516894049942493,0.01098647341132164,0.008662231266498566
1782814268340857000,3.651857177734375,0.00802741851657629,0.03290566802024841,0.004872112534940243
1782814268360939000,3.67193896484375,0.02011486329138279,0.030272237956523895,0.005553963594138622
1782814268381020000,3.69202001953125,0.025383617728948593,-0.00039120460860431194,0.016389936208724976
1782814268401101800,3.712101806640625,0.03587450832128525,-0.013291219249367714,0.024041397497057915
1782814268421183000,3.732182861328125,0.03787706419825554,-0.025209128856658936,0.006007571704685688
1782814268441265000,3.752264892578125,0.033437181264162064,-0.007145442068576813,-0.018195271492004395
1782814268461345800,3.772345703125,0.03539275750517845,0.013493692502379417,-0.03243294730782509
1782814268481428000,3.792427978515625,0.023393917828798294,0.005833524279296398,-0.027699699625372887
1782814268501508900,3.8125087890625,0.010526983998715878,-0.030691901221871376,-0.02846151776611805
1782814268521591000,3.832591064453125,0.010682947002351284,-0.022191019728779793,-0.024029018357396126
1782814268541672000,3.852671875,0.00782798696309328,0.00359755614772439,-0.007961041294038296
1782814268561754000,3.872754150390625,0.0014023114927113056,0.015872331336140633,0.0253902580589056
1782814268581834800,3.892834716796875,-0.0037156399339437485,0.00797482579946518,0.04627921059727669
1782814268601916000,3.912916015625,-0.0030109030194580555,-0.005822164937853813,0.0305546335875988
1782814268621997800,3.932997802734375,-0.0025263065472245216,0.0019966824911534786,0.010054352693259716
1782814268642079000,3.953078857421875,-0.007991306483745575,-0.007787118665874004,-0.0060819098725914955
1782814268662161000,3.973160888671875,-0.0100777642801404,0.0041197058744728565,-0.013784191571176052
1782814268682241800,3.99324169921875,-0.00660100718960166,0.011853525415062904,-0.012549282982945442
1782814268702324000,4.013323974609375,-0.0019612221512943506,-0.004281695932149887,-0.013046525418758392
1782814268722404900,4.03340478515625,0.009351198561489582,-0.006244349293410778,-0.017059460282325745
1782814268742487000,4.053487060546875,0.01413786131888628,-0.00490027479827404,-0.0071244146674871445
1782814268762568000,4.07356787109375,0.014486421830952168,-0.011747578158974648,0.013051565736532211
1782814268782650000,4.093650146484375,0.010880449786782265,-0.008684288710355759,0.023470446467399597
1782814268802730800,4.113730712890625,0.0030238416511565447,-0.0036098987329751253,0.01400377880781889
1782814268822812700,4.133812744140625,-0.006694080773741007,-0.002816328313201666,-0.0027825194410979748
1782814268842893800,4.153893798828125,-0.013200826942920685,-0.009909754619002342,-0.013611115515232086
1782814268862975700,4.173975830078125,-0.017872633412480354,-0.01983228139579296,-0.011787143535912037
1782814268883057000,4.194056884765625,-0.022593911737203598,-0.007999928668141365,0.0045364671386778355
1782814268903138000,4.214137939453125,-0.02485761232674122,0.000016016419976949692,0.01373410876840353
1782814268923220000,4.234219970703125,-0.022932464256882668,-0.0035873856395483017,0.01291817706078291
1782814268943300900,4.25430078125,-0.012814492918550968,-0.007866165600717068,0.0121711865067482
1782814268963383000,4.274383056640625,-0.003836036194115877,-0.007804113440215588,0.012548253871500492
1782814268983464000,4.2944638671875,-0.005298416595906019,0.0011923345737159252,-0.0026257256977260113
1782814269003546000,4.314546142578125,-0.015225284732878208,-0.0074857925064861774,-0.02031172253191471
1782814269023626800,4.334626708984375,-0.01105919387191534,-0.009511390700936317,-0.02263309247791767
1782814269043709000,4.354708984375,-0.0025540718343108892,0.004978213459253311,-0.011456665582954884
1782814269063789800,4.374789794921875,-0.014381750486791134,-0.0037018777802586555,-0.022573361173272133
1782814269083871700,4.394871826171875,-0.027929263189435005,-0.026350900530815125,-0.04033835977315903
1782814269103953000,4.414952880859375,-0.02590090036392212,-0.0013667929451912642,-0.03259435296058655
1782814269124034800,4.435034912109375,-0.02221016027033329,0.007517706602811813,0.0009020104771479964
1782814269144116000,4.455115966796875,-0.014871583320200443,0.004535860847681761,0.03562505543231964
1782814269164198000,4.475197998046875,-0.015867182984948158,-0.0030129661317914724,0.040490467101335526
1782814269184279000,4.495279052734375,-0.028779827058315277,-0.004860643297433853,0.0063438620418310165
1782814269204361000,4.51536083984375,-0.027179669588804245,0.014484922401607037,-0.02230977453291416
1782814269224442000,4.535442138671875,-0.019413616508245468,0.02030560001730919,-0.013764182105660439
1782814269244522800,4.555522705078125,-0.015057574957609177,0.01832408830523491,0.009617546573281288
1782814269264605000,4.57560498046875,-0.01169178169220686,0.008313119411468506,0.0032869731076061726
1782814269284685800,4.595685791015625,-0.009234924800693989,0.009799549356102943,-0.012483175843954086
1782814269304767700,4.615767822265625,-0.000977515010163188,0.014308184385299683,-0.0008596910629421473
1782814269324849000,4.635848876953125,-0.0010019645560532808,0.006891958881169558,0.004681220278143883
1782814269344930800,4.655930908203125,0.002565936651080847,0.013515024445950985,0.004464494995772839
1782814269365011700,4.67601171875,0.0009851229842752218,0.009830515831708908,-0.0030535210389643908
1782814269385093600,4.69609375,-0.0014952850760892034,0.006675953045487404,0.0031241928227245808
1782814269405174800,4.7161748046875,-0.0052115111611783504,0.0036698980256915092,0.007652959320694208
1782814269425256700,4.736256591796875,-0.00933852232992649,-0.00013936730101704597,0.0017841770313680172
1782814269445337900,4.756337890625,-0.01243008766323328,0.006043622270226479,0.0010558688081800938
1782814269465419800,4.776419677734375,-0.009709487669169903,0.004427324514836073,0.01300765573978424
1782814269485501000,4.7965009765625,-0.005807410925626755,0.0005270284600555897,0.02238875813782215
1782814269505581800,4.816581787109375,-0.0056055691093206406,-0.003765260800719261,0.017731186002492905
1782814269525663700,4.836663818359375,0.004876087419688702,0.019139084964990616,0.004318057093769312
1782814269545745000,4.856744873046875,0.007948958314955235,0.006161963567137718,-0.0024626220110803843
1782814269565826800,4.876826904296875,0.009712512604892254,-0.020042136311531067,-0.009895730763673782
1782814269585907700,4.89690771484375,0.01708168536424637,-0.00520109198987484,-0.018107034265995026
1782814269605989600,4.91698974609375,0.017588067799806595,0.003190722782164812,-0.01922663301229477
1782814269626070800,4.93707080078125,0.011269907467067242,-0.027214540168642998,-0.028481025248765945
1782814269646152700,4.957152587890625,0.009324995800852776,-0.04331424459815025,-0.032875582575798035
1782814269666233900,4.97723388671875,0.007641981355845928,-0.0010445273946970701,-0.016454122960567474
1782814269686315800,4.997315673828125,0.0023342890199273825,0.012242612428963184,0.021588748320937157
1782814269706397000,5.01739697265625,0.011047000996768475,-0.009982289746403694,0.046388689428567886
1782814269726478800,5.037478759765625,0.010178836062550545,-0.011185698211193085,0.03635386750102043
1782814269746559700,5.057559814453125,-0.00207287329249084,-0.011033923365175724,-0.0039058146066963673
1782814269766642000,5.077641845703125,-0.006405583117157221,-0.0071858251467347145,-0.0272421482950449
1782814269786722800,5.097722900390625,-0.0009434007806703448,-0.010374451987445354,-0.019588667899370193
1782814269806803700,5.1178037109375,0.0007190174655988812,0.001911098137497902,0.004372421186417341
1782814269826885600,5.1378857421875,-0.002763177268207073,-0.008918477222323418,0.005879586096853018
1782814269846966800,5.157966796875,-0.0028134724125266075,-0.004317890852689743,-0.004801733419299126
1782814269867048700,5.178048583984375,0.004385228268802166,0.0016685081645846367,-0.004220124334096909
1782814269887129900,5.1981298828125,0.011346438899636269,-0.0022504066582769156,0.008449895307421684
1782814269907211800,5.218211669921875,0.010438695549964905,-0.005153421312570572,0.01658996008336544
1782814269927293000,5.23829296875,0.0033053765073418617,-0.006376415956765413,0.005724896676838398
1782814269947374800,5.258374755859375,-0.00797173660248518,0.004705334547907114,-0.003560581710189581
1782814269967455700,5.278455810546875,-0.00806041993200779,0.0011236490681767464,0.000707932747900486
1782814269987538000,5.298537841796875,-0.004513368476182222,-0.002265126444399357,0.011791624128818512
1782814270007618800,5.318618896484375,-0.012463565915822983,-0.002969895489513874,0.016717560589313507
1782814270028326700,5.33932666015625,-0.019822971895337105,0.005355339962989092,0.010758502408862114
1782814270048408800,5.359408935546875,-0.021353399381041527,0.013259989209473133,0.0040329815819859505
1782814270068489700,5.37948974609375,-0.014811558648943901,0.02126959152519703,0.005030806176364422
1782814270088572000,5.399572021484375,-0.006478643510490656,0.01122714951634407,0.012633070349693298
1782814270108652800,5.41965283203125,-0.013393842615187168,-0.008797036483883858,0.011530512012541294
1782814270128734700,5.439734619140625,-0.016723820939660072,-0.005957597866654396,-0.014228827320039272
1782814270148816000,5.45981591796875,-0.00032646232284605503,0.008791858330368996,-0.024030549451708794
1782814270168897800,5.479897705078125,0.0035676804836839437,0.02272753044962883,-0.009698880836367607
1782814270188978700,5.499978759765625,-0.008070187643170357,-0.019317684695124626,-0.011981549672782421
1782814270209059800,5.520059814453125,-0.007886845618486404,-0.021542830392718315,-0.023950599133968353
1782814270229141800,5.540141845703125,0.004348755348473787,0.02362803742289543,-0.007496493402868509
1782814270249222700,5.56022265625,0.011359771713614464,0.027861956506967545,0.028128452599048615
1782814270269304800,5.580304931640625,0.018188748508691788,0.004886792507022619,0.028940251097083092
1782814270289385700,5.6003857421875,0.010630645789206028,-0.006615279242396355,0.011518179439008236
1782814270309468000,5.620468017578125,0.0010755931725725532,0.000719090923666954,-0.01358702965080738
1782814270329548800,5.640548828125,-0.0004540277295745909,0.011531984433531761,-0.025355206802487373
1782814270349630700,5.660630615234375,0.01032670121639967,0.002883466426283121,-0.021031681448221207
1782814270369085000,5.6800849609375,0.0037658538203686476,0.004817381035536528,-0.013452596962451935
1782814270389166800,5.700166748046875,-0.007151036057621241,0.0009459946304559708,-0.013962039723992348
1782814270409248000,5.720248046875,-0.004047736059874296,0.0015001483261585236,-0.016214260831475258
1782814270429330000,5.740329833984375,0.002036384306848049,-0.010752161033451557,-0.005027271807193756
1782814270449410800,5.760410888671875,0.00048506728489883244,-0.0066139474511146545,0.008913340978324413
1782814270469493000,5.780492919921875,0.0018432150827720761,0.0005688155069947243,0.017738468945026398
1782814270489574000,5.800573974609375,-0.00019041344057768583,0.008285349234938622,0.02324340119957924
1782814270509656000,5.820656005859375,-0.007420930080115795,-0.00028671184554696083,0.016760457307100296
1782814270529737000,5.840737060546875,-0.009106702171266079,-0.0054379915818572044,0.0034004850313067436
1782814270549819000,5.86081884765625,-0.01052953489124775,-0.0009199862834066153,-0.0013741934671998024
1782814270569899800,5.880899658203125,-0.007602699566632509,0.008735012263059616,0.005301178433001041
1782814270589981000,5.90098095703125,-0.0008021373068913817,0.002810254693031311,0.008973728865385056
1782814270610062800,5.921062744140625,-0.00395257119089365,-0.0030358931981027126,0.001132532604970038
1782814270630144000,5.94114404296875,-0.003800096455961466,0.0033253333531320095,-0.007898282259702682
1782814270650226000,5.961225830078125,0.003050056518986821,0.00617607869207859,-0.005539035424590111
1782814270670306800,5.981306884765625,0.0012427581241354346,-0.007639553397893906,-0.008568821474909782
1782814270690389000,6.001388916015625,0.00017640690202824771,-0.013873191550374031,-0.012540551833808422
1782814270710470000,6.021469970703125,0.01065103616565466,0.0022701648995280266,-0.00875779241323471
1782814270730552000,6.041552001953125,0.0025297522079199553,-0.015388385392725468,-0.013653778471052647
1782814270750633000,6.061633056640625,-0.002557658590376377,-0.03529836982488632,-0.031562767922878265
1782814270770715000,6.08171484375,0.0035624015145003796,-0.010671393945813179,-0.03565765172243118
1782814270790795800,6.101795654296875,0.0022311732172966003,0.007848784327507019,-0.017261384055018425
1782814270810877700,6.121877685546875,0.0007477665785700083,0.012032538652420044,0.0038303500041365623
1782814270830958800,6.141958740234375,0.007126698736101389,0.005384319461882114,0.013185348361730576
1782814270851040800,6.162040771484375,0.007543710991740227,-0.0002466444857418537,0.0015776078216731548
1782814270871122000,6.182121826171875,0.0027637023013085127,-0.00045603932812809944,-0.016901468858122826
1782814270891203800,6.202203857421875,0.0024227832909673452,0.004954557400196791,-0.019693536683917046
1782814270911285000,6.222284912109375,0.015161709859967232,0.01598086953163147,-0.003644082695245743
1782814270931367000,6.242366943359375,0.014754842966794968,-0.0023477571085095406,0.0034415803384035826
1782814270951448000,6.262447998046875,-0.00011276085569988936,-0.00599807919934392,-0.01349003054201603
1782814270971530000,6.282530029296875,-0.005853981710970402,0.0086101358756423,-0.025228818878531456
1782814270991611000,6.30261083984375,0.004877569153904915,0.020708294585347176,-0.017197083681821823
1782814271011691800,6.32269189453125,0.012124679051339626,0.0010093511082231998,0.0066118380054831505
1782814271031773700,6.342773681640625,0.012077120132744312,-0.011111129075288773,0.018215147778391838
1782814271051854800,6.362854736328125,-0.00003251375164836645,-0.003177500795572996,0.008490052074193954
1782814271071936800,6.382936767578125,-0.00957154855132103,0.006359811406582594,-0.009515348821878433
1782814271092018000,6.403017822265625,-0.011093330569565296,0.012103305198252201,-0.012230380438268185
1782814271112099800,6.423099853515625,-0.016587546095252037,0.015160420909523964,-0.010933682322502136
1782814271132181000,6.443180908203125,-0.015378979034721851,0.018345901742577553,-0.004020413383841515
1782814271152263000,6.463262939453125,-0.0053504896350204945,0.0057540638372302055,0.0027024964801967144
1782814271172344000,6.483343994140625,0.004830074962228537,-0.012230866588652134,0.011103770695626736
1782814271192426000,6.503426025390625,0.0010146669810637832,0.004412580747157335,0.017000684514641762
1782814271212507100,6.523507080078125,-0.010399323888123035,0.0046220505610108376,-0.003668967867270112
1782814271232589000,6.543589111328125,-0.012802775017917156,0.0040946234948933125,-0.03565359488129616
1782814271252669700,6.563669677734375,0.006752382963895798,0.008393959142267704,-0.03820163756608963
1782814271272751900,6.583751953125,0.012457191944122314,0.002908524591475725,-0.0039545148611068726
1782814271292832800,6.603832763671875,-0.00024058393319137394,-0.043261751532554626,0.0034328012261539698
1782814271312915000,6.6239150390625,-0.0034695935901254416,-0.056246936321258545,-0.018302224576473236
1782814271332995300,6.643995361328125,0.0055834101513028145,-0.0035727866925299168,-0.027488991618156433
1782814271353077500,6.664077392578125,0.007710893638432026,0.022317472845315933,-0.014245087280869484
1782814271373158400,6.684158447265625,0.013048727996647358,0.01033453457057476,0.006471354514360428
1782814271393239600,6.704239501953125,0.007391799241304398,-0.010817892849445343,0.009978365153074265
1782814271413321500,6.724321533203125,0.00266676745377481,-0.016543833538889885,-0.003613016102463007
1782814271433402600,6.744402587890625,0.006623524706810713,0.0008414755575358868,-0.010447420179843903
1782814271453484500,6.764484619140625,0.008624384179711342,-0.007287750951945782,-0.0020627540070563555
1782814271473565400,6.7845654296875,0.00747562013566494,-0.005149497650563717,0.010493021458387375
1782814271493647400,6.8046474609375,0.0038578961975872517,-0.004415823146700859,0.0027078534476459026
1782814271513728300,6.824728271484375,0.0036972176749259233,-0.0027237702161073685,-0.0042262449860572815
1782814271533810400,6.844810546875,0.006576094776391983,-0.0069720447063446045,-0.002552181715145707
1782814271553891300,6.864891357421875,0.005065678618848324,-0.020869120955467224,0.004070413764566183
1782814271573973500,6.884973388671875,0.006869969889521599,-0.011009832844138145,0.004695191513746977
1782814271594054400,6.905054443359375,0.006803644821047783,0.011016203090548515,0.0034409910440444946
1782814271614136600,6.925136474609375,0.002804483287036419,0.007573275826871395,0.0030200518667697906
1782814271634217500,6.945217529296875,-0.00286603975109756,-0.0029149616602808237,0.004587098024785519
1782814271654299400,6.96529931640625,-0.006656860467046499,-0.005554105620831251,0.007838110439479351
1782814271674380500,6.985380615234375,-0.0016122364904731512,0.006634431425482035,0.004714278969913721
1782814271694462500,7.00546240234375,-0.0023508728481829166,0.013448131270706654,0.0034317360259592533
1782814271714543400,7.02554345703125,-0.003985404968261719,0.016953840851783752,0.012077683582901955
1782814271734625300,7.045625244140625,0.002723823534324765,0.005802000407129526,0.014311978593468666
1782814271754706400,7.06570654296875,0.008160168305039406,0.0054548694752156734,0.003806350752711296
1782814271774787300,7.085787353515625,0.0035402197390794754,-0.001627516932785511,-0.014292348176240921
1782814271794869500,7.105869384765625,0.007646939251571894,0.006008299067616463,-0.011980156414210796
1782814271814950400,7.125950439453125,0.008498312905430794,0.003168861847370863,-0.0036799691151827574
1782814271835032600,7.146032470703125,-0.0023309076204895973,-0.009149131365120411,-0.0018647992983460426
1782814271855113500,7.166113525390625,-0.007456934079527855,-0.013933693990111351,-0.008288906887173653
1782814271875195400,7.1861953125,-0.004007427953183651,-0.006916286423802376,-0.019982261583209038
1782814271895276500,7.206276611328125,-0.0037782841827720404,0.014800287783145905,-0.017597218975424767
1782814271915358500,7.2263583984375,-0.007211936172097921,0.023579156026244164,-0.0004068664275109768
1782814271935439400,7.246439453125,-0.01103368028998375,0.0024708248674869537,0.019919488579034805
1782814271955521300,7.266521240234375,-0.02458476647734642,-0.01398511603474617,0.016271455213427544
1782814271975602400,7.2866025390625,-0.026292411610484123,0.002668889705091715,-0.008234123699367046
1782814271995684400,7.306684326171875,-0.023443108424544334,0.022684238851070404,-0.024673935025930405
1782814272015765500,7.326765625,-0.02288820408284664,0.02831210568547249,-0.011853276751935482
1782814272035847400,7.346847412109375,-0.020827261731028557,0.000043229665607213974,0.003744683461263776
1782814272055928600,7.366928466796875,-0.01532855536788702,-0.01928817294538021,-0.009662826545536518
1782814272076010500,7.387010498046875,-0.00017528496391605586,-0.004541910253465176,-0.024951763451099396
1782814272096091400,7.40709130859375,0.003687037155032158,-0.011594180017709732,-0.02931107021868229
1782814272116172500,7.427172607421875,0.009271252900362015,-0.020411178469657898,-0.013818863779306412
1782814272136254500,7.44725439453125,0.013543418608605862,-0.019021756947040558,0.0004898598417639732
1782814272156335400,7.46733544921875,0.011305589228868484,-0.0016016836743801832,0.0026688273064792156
1782814272176417300,7.487417236328125,0.0016107468400150537,0.01759207993745804,-0.002028342802077532
1782814272196498400,7.50749853515625,-0.005429714452475309,0.014337334781885147,-0.003101710230112076
1782814272216580400,7.527580322265625,-0.00818130187690258,0.006340587977319956,0.007979663088917732
1782814272236661500,7.54766162109375,-0.005583731457591057,0.010617140680551529,0.019049981608986855
1782814272256743400,7.567743408203125,-0.007544792722910643,0.00010789558291435242,0.01527098286896944
1782814272276824600,7.587824462890625,-0.006324798800051212,0.0059660510160028934,0.0054266080260276794
1782814272296906500,7.607906494140625,-0.0005916100926697254,0.013400482013821602,-0.001969046425074339
1782814272316987400,7.6279873046875,-0.0021651946008205414,0.0071023255586624146,-0.008656335063278675
1782814272337069600,7.648069580078125,0.004447902552783489,-0.0006152980495244265,-0.0165670458227396
1782814272357150500,7.668150390625,0.013612866401672363,0.007479403633624315,-0.012659210711717606
1782814272377232600,7.688232666015625,0.008150001056492329,-0.015029948204755783,-0.01507692039012909
1782814272397313300,7.708313232421875,0.0005417153006419539,-0.03661014884710312,-0.021820243448019028
1782814272417394400,7.72839453125,0.006625290494412184,-0.017382729798555374,-0.03227502107620239
1782814272437476400,7.748476318359375,0.006996113806962967,0.02651797980070114,-0.026000695303082466
1782814272457557500,7.7685576171875,0.007032362744212151,0.030345112085342407,0.0009827656904235482
1782814272477639400,7.788639404296875,0.021948864683508873,0.010906334966421127,0.03115546889603138
1782814272497720600,7.808720458984375,0.02409869246184826,-0.003946646116673946,0.025762071833014488
1782814272517802500,7.828802490234375,0.019855087623000145,-0.0028909691609442234,-0.006919478997588158
1782814272537883600,7.848883544921875,0.01607726514339447,0.0066790031269192696,-0.027048295363783836
1782814272557965600,7.868965576171875,0.022449729964137077,0.026593200862407684,-0.02156410925090313
1782814272578046500,7.88904638671875,0.023813242092728615,0.011402458883821964,0.000032559968531131744
1782814272598128600,7.909128662109375,0.015342764556407928,-0.01849585771560669,-0.003715542610734701
1782814272618209300,7.929209228515625,0.0076615517027676105,-0.016800755634903908,-0.025802236050367355
1782814272638291500,7.94929150390625,0.008545669727027416,0.0046119787730276585,-0.03813714161515236
1782814272658372400,7.969372314453125,0.014513581991195679,0.013333979062736034,-0.022661767899990082
1782814272678454300,7.989454345703125,0.018834272399544716,0.0006570876576006413,-0.0009177480824291706
1782814272698535400,8.009535400390625,0.00932019017636776,-0.017083341255784035,0.007396619766950607
1782814272718617300,8.029617431640625,0.007965074852108955,-0.008038109168410301,-0.004211099818348885
1782814272738698500,8.049698486328126,0.0113350385800004,0.009768052026629448,-0.015749245882034302
1782814272758779600,8.069779541015626,0.014420929364860058,-0.0024931153748184443,-0.01065839920192957
1782814272778861600,8.089861572265624,0.011427553370594978,-0.011323360726237297,0.004080262500792742
1782814272798942500,8.1099423828125,0.01291068084537983,-0.017461776733398438,-0.006766408681869507
1782814272819024600,8.130024658203125,0.01522094290703535,-0.005849763751029968,-0.021533949300646782
1782814272839105300,8.150105224609375,0.01593303307890892,-0.006816467270255089,-0.024168169125914574
1782814272859187500,8.1701875,0.008018956519663334,-0.01664062589406967,-0.015654753893613815
1782814272879268400,8.190268310546875,0.01604648493230343,-0.004264359828084707,-0.009620118886232376
1782814272899350500,8.2103505859375,0.02954968623816967,0.0005129659548401833,-0.0009209297131747007
1782814272919431400,8.230431396484375,0.015898704528808594,-0.009089402854442596,-0.019315920770168304
1782814272939513300,8.250513427734376,0.0007888911059126258,-0.04419281706213951,-0.03433150053024292
1782814272959594500,8.270594482421876,0.005293288733810186,-0.020877230912446976,-0.023156173527240753
1782814272979676400,8.290676513671874,0.007439135108143091,0.009131703525781631,0.008057293482124805
1782814272999757600,8.310757568359374,0.0028062486089766026,0.007184256799519062,0.033865250647068024
1782814273019839500,8.330839599609375,-0.0005572338122874498,-0.006363923195749521,0.02234284207224846
1782814273039920600,8.350920654296875,-0.008709247224032879,-0.011892063543200493,-0.01677677035331726
1782814273060002600,8.37100244140625,-0.017611416056752205,-0.007138299290090799,-0.032844312489032745
1782814273080083500,8.39108349609375,-0.02256624586880207,-0.0008750734850764275,-0.008307740092277527
1782814273100165400,8.411165283203125,-0.012688087299466133,0.011605322360992432,0.03687136992812157
1782814273120246500,8.43124658203125,-0.0035939719527959824,-0.0000018505379557609558,0.05783538147807121
1782814273140328400,8.451328369140626,-0.008281998336315155,-0.00935438647866249,0.028447339311242104
1782814273160409300,8.471409423828124,-0.017293855547904968,0.0014323838986456394,-0.010774512775242329
1782814273180491500,8.491491455078124,-0.011754837818443775,0.009083792567253113,-0.024426167830824852
1782814273200572400,8.511572509765625,0.003698029089719057,0.01736142672598362,-0.0015981192700564861
1782814273220654600,8.531654541015625,0.014759151265025139,0.006487596780061722,0.013398201204836369
1782814273240735500,8.551735595703125,0.004302575718611479,-0.0040758769027888775,0.0038749827072024345
1782814273260817400,8.5718173828125,-0.005610315594822168,-0.01999478042125702,-0.009309891611337662
1782814273280898600,8.591898681640625,0.00048482255078852177,0.013578650541603565,-0.0038638142868876457
1782814273300980500,8.61198046875,0.0018221760401502252,0.018761401996016502,0.030129091814160347
1782814273321061400,8.632061279296876,-0.0009647489059716463,0.00031567318364977837,0.04918384179472923
1782814273341143600,8.6521435546875,-0.004496203735470772,0.004502140451222658,0.03278474882245064
1782814273361224700,8.672224609375,-0.00583920581266284,0.008375339210033417,0.019296949729323387
1782814273381306600,8.692306640625,-0.006766952108591795,-0.00036682351492345333,0.021611569449305534
1782814273401387500,8.712387451171875,-0.014082995243370533,-0.002677770797163248,0.015762371942400932
1782814273421469400,8.732469482421875,-0.01304728351533413,-0.000932259252294898,0.008200366050004959
1782814273441550600,8.752550537109375,-0.010506931692361832,0.014227543026208878,0.015078159049153328
1782814273461631500,8.772631591796875,-0.01666809618473053,-0.004504641052335501,0.008431153371930122
1782814273481713400,8.79271337890625,-0.014593222178518772,-0.024548567831516266,-0.010151773691177368
1782814273501794600,8.812794677734376,-0.009052451699972153,0.005196592770516872,0.0005789578426629305
1782814273521876500,8.83287646484375,-0.008179557509720325,0.01779855042695999,0.02879033051431179
1782814273541957600,8.85295751953125,-0.0015069041401147842,0.005379188805818558,0.04009905457496643
1782814273562039600,8.87303955078125,-0.00005665831849910319,-0.005245324224233627,0.02964596450328827
1782814273582120400,8.893120361328124,-0.0029456852935254574,-0.007292129565030336,0.003126690862700343
1782814273602202600,8.91320263671875,-0.007095942739397287,-0.000864420784637332,-0.010533876717090607
1782814273622283500,8.933283447265625,-0.010201429016888142,-0.013537000864744186,-0.014978189952671528
1782814273642365400,8.953365478515625,-0.0064082760363817215,0.007353269960731268,0.008253481239080429
1782814273662446600,8.973446533203125,-0.002147510414943099,0.006843202747404575,0.02777395024895668
1782814273682528500,8.993528564453126,-0.0029354968573898077,-0.011982880532741547,0.022595331072807312
1782814273702609700,9.013609619140626,-0.0009305661078542471,-0.008632599376142025,0.017602313309907913
1782814273722691600,9.033691650390624,-0.00021873312653042376,-0.006328067276626825,0.010834376327693462
1782814273742772500,9.0537724609375,0.0015127682127058506,0.0032723364420235157,0.008719611912965775
1782814273762854700,9.073854736328125,0.0011602002196013927,0.01573341339826584,0.017066767439246178
1782814273782935600,9.093935546875,0.0007774910191074014,-0.0019677213858813047,0.02310430258512497
1782814273803017700,9.114017822265625,-0.0042684003710746765,-0.010627522133290768,0.013786966912448406
1782814273823098400,9.134098388671875,-0.009166219271719456,-0.011856570839881897,-0.012768477201461792
1782814273843180500,9.1541806640625,-0.00734380166977644,0.01692793518304825,-0.0031513413414359093
1782814273863261400,9.174261474609375,-0.003640134818851948,0.013442198745906353,0.021843796595931053
1782814273883343400,9.19434326171875,-0.0022719530388712883,0.0010184790007770061,0.02699354663491249
1782814273903424500,9.214424560546876,0.0020052597392350435,0.0006106290966272354,0.014334717765450478
1782814273923506400,9.23450634765625,-0.0032256825361400843,-0.0042944056913256645,-0.0009168526157736778
1782814273943587600,9.254587646484374,-0.000656595453619957,-0.001957529690116644,-0.008304784074425697
1782814273963669500,9.27466943359375,0.012976761907339096,0.006786450278013945,-0.009316109120845795
1782814273983750700,9.294750732421875,0.00613597733899951,0.014207298867404461,-0.006226667203009129
1782814274003832600,9.31483251953125,-0.0060806553810834885,-0.0188470296561718,-0.02077663317322731
1782814274023913700,9.334913818359375,0.0006677430355921388,-0.02415512129664421,-0.021422123536467552
1782814274043994400,9.354994384765625,0.006052603013813496,0.009446902200579643,0.007774705998599529
1782814274064076500,9.37507666015625,-0.003614899003878236,0.011042644269764423,0.027568472549319267
1782814274084157400,9.395157470703126,-0.009769550524652004,0.009574417024850845,0.016300423070788383
1782814274104239400,9.4152392578125,-0.013780880719423294,0.003954663872718811,0.0037032300606369972
1782814274124320500,9.435320556640624,-0.01559911947697401,-0.004110914655029774,0.0016322898445650935
1782814274144402400,9.45540234375,-0.017669780179858208,-0.0014202019665390253,-0.0017658425495028496
1782814274164483600,9.475483642578125,-0.018043076619505882,0.009980209171772003,-0.002593378769233823
1782814274184565500,9.4955654296875,-0.012755499221384525,0.035022348165512085,-0.0008933297358453274
1782814274204646700,9.515646728515625,-0.009773219004273415,0.0009803506545722485,0.007503713946789503
1782814274224728600,9.535728515625,-0.010079426690936089,-0.016796810552477837,0.008369257673621178
1782814274244809700,9.555809814453125,-0.011105254292488098,-0.0008229261729866266,-0.005982892122119665
1782814274264891600,9.5758916015625,-0.0009975058492273092,0.01544109545648098,-0.010000654496252537
1782814274284972500,9.59597265625,0.004248538985848427,0.0035035512410104275,0.0015372290508821607
1782814274305054500,9.616054443359374,-0.0023472344037145376,-0.008549433201551437,0.0111524797976017
1782814274325135400,9.63613525390625,-0.005979073233902454,0.001588928047567606,0.005478933919221163
1782814274345217800,9.6562177734375,-0.002334348391741514,0.007337144576013088,0.0038070932496339083
1782814274365299700,9.6762998046875,-0.0016361146699637175,0.0026802909560501575,0.013891290873289108
1782814274385380900,9.696380859375,-0.008713392540812492,-0.007912842556834221,0.015181423164904118
1782814274405462800,9.716462890625,-0.007604885846376419,0.007879367098212242,0.006418357603251934
1782814274425543700,9.736543701171875,0.001484916778281331,0.015654800459742546,0.010106503963470459
1782814274445624800,9.756624755859375,0.0026112920604646206,0.0013610855676233768,0.01946461945772171
1782814274465706800,9.776706787109376,-0.010928064584732056,-0.02301892265677452,0.004666316322982311
1782814274485788000,9.796787841796874,-0.0082925483584404,-0.0024751522578299046,-0.01408692542463541
1782814274505869800,9.816869873046874,-0.0021577291190624237,0.011071573942899704,-0.022434690967202187
1782814274525950700,9.83695068359375,-0.011072978377342224,-0.017694972455501556,-0.027983060106635094
1782814274546033000,9.857032958984375,-0.018863335251808167,-0.04984060674905777,-0.04330679401755333
1782814274566113800,9.87711376953125,-0.018066449090838432,-0.01747213862836361,-0.036280978471040726
1782814274586195700,9.89719580078125,-0.01461991760879755,0.017285386100411415,-0.012987297028303146
1782814274606276900,9.91727685546875,-0.01215977594256401,0.012983020395040512,0.0064551616087555885
1782814274626358800,9.93735888671875,-0.003239620942622423,-0.0008465305436402559,0.015355834737420082
1782814274646439700,9.957439697265626,-0.009942252188920975,-0.005411286372691393,0.0018420082051306963
1782814274666521900,9.97752197265625,-0.012556776404380798,0.003728221170604229,-0.019632456824183464
1782814274686602800,9.997602783203124,-0.010964244604110718,-0.000224418006837368,-0.015443125739693642
1782814274706685000,10.017684814453125,-0.0035061477683484554,0.018673880025744438,0.026545923203229904
1782814274726765800,10.037765869140625,0.001904553733766079,-0.0011627455241978168,0.03397411108016968
1782814274746847700,10.05784765625,0.0003582234785426408,-0.02891867235302925,0.006126435473561287
1782814274766928600,10.0779287109375,-0.0005393133033066988,-0.009911569766700268,-0.023777605965733528
1782814274787010600,10.098010498046875,-0.001008523628115654,-0.002818797482177615,-0.016068199649453163
1782814274807091700,10.118091796875,0.003716860432177782,0.010945921763777733,0.0165783129632473
1782814274827173600,10.138173583984376,-0.001793443108908832,-0.010509498417377472,0.03709147498011589
1782814274847254800,10.1582548828125,-0.0088903633877635,-0.019507084041833878,0.054063957184553146
1782814274867336700,10.178336669921874,-0.005848707165569067,0.10070796310901642,0.13700808584690094
1782814274887417900,10.19841796875,0.031948547810316086,0.009030720219016075,0.15942195057868958
1782814274907499800,10.218499755859375,0.024390198290348053,-0.05175793915987015,0.12213423103094101
1782814274927581000,10.238580810546875,-0.0034872908145189285,0.006829326506704092,0.024948883801698685
1782814274947662800,10.258662841796875,-0.014752689749002457,0.027847766876220703,-0.08841221034526825
1782814274967744000,10.278743896484375,-0.008726145140826702,0.02536085993051529,-0.1620316505432129
