time,seconds_elapsed,z,y,x
1782814225994310100,0.05631005859375,-0.050316813308000564,0.0985649305831641,0.008223181808274239
1782814226014392000,0.07639208984375,0.22060557543039322,-0.02198306455351412,0.03869343570137862
1782814226034473200,0.09647314453125,0.324613646915555,-0.06989055169746279,-0.018136031453253234
1782814226054555100,0.11655517578125,0.268581378570199,-0.12818893834389744,-0.03987034769337624
1782814226074637000,0.136636962890625,0.05927578031122684,-0.09925371656492352,-0.06942537273797206
1782814226094718200,0.15671826171875,-0.19546938060820102,-0.0397951270326972,-0.04854834689733106
1782814226114800000,0.176800048828125,-0.26409166593551636,-0.0561079639300704,-0.011793797703506425
1782814226134881300,0.19688134765625,-0.1621872887313366,-0.0332468013677746,0.02894414487094618
1782814226154963200,0.216963134765625,-0.11253624585568904,-0.03276077141650021,0.09479103806763887
1782814226175044400,0.23704443359375,-0.06609831980764866,-0.02156315864101052,0.0603666351546999
1782814226195126300,0.257126220703125,0.026491116562485692,-0.04993738553635776,0.08862364714485593
1782814226215207200,0.277207275390625,0.09418342756330966,-0.02433810324706137,0.1651898863471113
1782814226235289000,0.2972890625,0.03992635219693184,0.028717706570774316,0.1527552517231088
1782814226255371000,0.31737109375,0.06220423497855663,-0.032937077831476924,0.10276315859113819
1782814226275452200,0.3374521484375,0.09895254166126251,-0.05682597600631416,0.11645322750317863
1782814226295534600,0.35753466796875,-0.08136953869760036,0.009318886356800794,0.17683778190705923
1782814226315615700,0.37761572265625,-0.20261866784095764,0.04107764112390577,0.1311805944405496
1782814226335697700,0.39769775390625,-0.18589023588001727,0.053272302112728355,0.07076061253026128
1782814226355778800,0.41777880859375,-0.11164601901769637,0.004271466774120927,0.05274274811355863
1782814226375860700,0.43786083984375,-0.03393441830575466,-0.03792728733420372,0.019343060022301507
1782814226395942700,0.457942626953125,-0.026672318348288534,-0.008771043215692043,0.014436690594838
1782814226416023600,0.4780234375,0.058214288559556,-0.0046937838394194836,0.041257345072366294
1782814226436105500,0.49810546875,0.08572130416631699,-0.020138021208718417,0.028531513516022823
1782814226456186600,0.5181865234375,0.08450842124521732,-0.06403101201429963,-0.001074668610363733
1782814226476268500,0.5382685546875,0.05413315672576427,-0.0256155758369714,0.002517474130087066
1782814226496349700,0.558349609375,0.1368289755910635,-0.028703166588768363,0.03450806717497762
1782814226516431600,0.578431640625,0.15226444513201712,-0.03989566479772329,0.060116290822555304
1782814226536512500,0.598512451171875,0.009570961421728134,0.0013433043677359819,0.040895937014603985
1782814226556594700,0.6185947265625,-0.06925590705573559,0.01851283115968108,0.036341785408160646
1782814226576676600,0.638676513671875,-0.05724924291968345,0.025090529049560426,0.06495000372247305
1782814226596757800,0.6587578125,-0.059254153001308436,0.02034486889243126,0.0759270142835332
1782814226616839700,0.678839599609375,-0.036220483416318894,0.0015997633468359709,0.0648166231337702
1782814226636920600,0.698920654296875,-0.06593465367853642,0.011102554903179407,0.1020698425647337
1782814226657002800,0.719002685546875,-0.11239537608027457,0.057813525738939636,0.10091162157347425
1782814226677083400,0.73908349609375,-0.12584639380574225,0.054880175700783726,0.07072042665034532
1782814226697165600,0.75916552734375,-0.0087140523314476,0.01953720577135682,0.05960501683217007
1782814226717247500,0.77924755859375,0.04027881889641285,0.0001017068088054657,0.0637600724186981
1782814226737328600,0.79932861328125,0.084714172950387,-0.04436469997055828,0.006615465767134446
1782814226757410600,0.81941064453125,0.1868044281154871,-0.06300787951163947,-0.010499558925174641
1782814226777491500,0.839491455078125,0.15284721345603466,-0.04092486171498894,0.06754707101096864
1782814226797573600,0.85957373046875,-0.006179565417766571,0.013220131579041481,0.01554203518796712
1782814226817654500,0.879654541015625,0.09976151995658875,-0.08301803655698894,-0.04865804978292435
1782814226837736700,0.89973681640625,0.04004267205297947,-0.10741605329774319,0.021010020553565118
1782814226857818600,0.919818603515625,-0.14761340445578097,-0.0031247078917920586,0.057651348314015194
1782814226877899500,0.9398994140625,-0.27925474827587604,0.03445413133092225,0.07197419870425946
1782814226897981700,0.959981689453125,-0.27992110323011876,0.04759045708402991,0.03711824739008443
1782814226918062600,0.9800625,-0.09218786983191966,-0.0009755670338869094,0.08074476699591614
1782814226938144800,1.000144775390625,0.03862345290482044,-0.04645495024807751,0.05797215949990786
1782814226958225400,1.020225341796875,0.07350187406241894,-0.04725464925840497,0.027886712806462308
1782814226978307600,1.0403076171875,-0.13101006017923356,0.0444545702110976,0.09049986194605007
1782814226998388500,1.060388427734375,-0.16366086841523647,0.10384930072687566,0.11124353003087453
1782814227018470400,1.080470458984375,0.07269172672331332,0.029541370978578924,0.07530290016897488
1782814227038552600,1.100552490234375,0.2218038453042507,-0.04506700302101672,0.09930706332051195
1782814227058633500,1.120633544921875,0.18108663499057293,-0.021296032137423752,0.058149484261614266
1782814227078715600,1.140715576171875,0.06053191785216331,-0.002741553793102503,0.059019595326762646
1782814227098796500,1.160796630859375,-0.06126140117049217,-0.018115648535639045,-0.01909077717810869
1782814227118878700,1.180878662109375,-0.06763444333374499,-0.06588475012220442,-0.06424707961750682
1782814227138959600,1.200959716796875,0.0001467149943113327,-0.06376541988067329,-0.014553510491095947
1782814227159041500,1.22104150390625,-0.07696165912747382,-0.04490158332623541,-0.0020830484997641178
1782814227179123700,1.241123779296875,-0.150470547452569,-0.02296213871873915,-0.025458846338721922
1782814227199204600,1.26120458984375,-0.18774843096733093,-0.008888532115519047,-0.018617589583742666
1782814227219286800,1.281286865234375,-0.07703530888557433,-0.014361556699126959,0.01290761558074737
1782814227239367400,1.301367431640625,-0.0036140988439321516,-0.012873656228929758,0.04384660808031913
1782814227259449600,1.32144970703125,0.08827917195558548,-0.04681749995015561,0.029075705678609665
1782814227279530500,1.341530517578125,0.11683540435433387,-0.008189590065926313,0.04606293698949739
1782814227299612200,1.361612060546875,0.11268939059078693,-0.033287717900052666,0.05182377467169426
1782814227319693300,1.381693359375,0.021322189491987227,0.032917496348172426,0.12051085973037406
1782814227339775200,1.401775146484375,-0.05245265629291534,0.08575323367454112,0.12586245902455412
1782814227359857400,1.421857421875,-0.037214170628786084,0.05355718346871435,0.07396378335258923
1782814227379938300,1.441938232421875,0.12183949625194072,-0.01240158173777163,0.03918883170261979
1782814227400020500,1.4620205078125,0.030295185020565985,-0.0027916034799069164,0.10844061057250946
1782814227420101400,1.482101318359375,-0.12550269493460656,0.06081380353346467,0.05393631897941231
1782814227440183300,1.502183349609375,-0.23512042299509048,0.08179368239380419,0.0634336352096172
1782814227460264400,1.522264404296875,-0.1582347517132759,0.05855060784183442,0.028339128182502463
1782814227480346400,1.542346435546875,0.021813772401213644,0.007889365010336042,0.06492984228385612
1782814227500427300,1.56242724609375,0.04712298570275306,-0.00019873744249343872,0.02665142397402087
1782814227520509200,1.58250927734375,0.04911211369335651,-0.001177665477246046,0.005104263194807572
1782814227540591400,1.60259130859375,0.04563479297161102,0.057258376074209805,0.06351322151815984
1782814227560672300,1.62267236328125,0.09044657912254334,0.06592500906735659,0.0791644572682213
1782814227580754200,1.642754150390625,0.10090542929470539,-0.003811228851228952,0.05295889791515655
1782814227600835300,1.66283544921875,0.0397404742360115,-0.0006559066254645586,0.04825084352178965
1782814227620917200,1.682917236328125,-0.003144727766513824,0.008392199965938926,0.04435702812075615
1782814227640998400,1.702998291015625,-0.017536825734376905,-0.0229327664937824,0.048848138128081336
1782814227661080300,1.723080322265625,-0.10472235723435878,-0.02860913162976503,0.03354237536442233
1782814227681161500,1.743161376953125,-0.14855623826384542,-0.044509661399200554,0.030360468809120356
1782814227701243400,1.763243408203125,-0.13556582378745077,-0.04207410481534898,0.046446538612758735
1782814227721325300,1.7833251953125,-0.10850304481685161,-0.028989216988533732,0.04670543614411726
1782814227741406500,1.803406494140625,-0.12671733142137526,-0.015158479230478404,0.04995505819036625
1782814227761488400,1.82348828125,-0.018691840988397598,0.005845291962102055,0.044642489432054566
1782814227781569300,1.8435693359375,0.10194354017078876,0.028206322982534764,0.10530556394979357
1782814227801651200,1.863651123046875,0.0687415277928114,0.01703041058219969,0.12477913903356529
1782814227821732400,1.883732421875,-0.04098433681726456,0.03227203805148601,0.06040687583354301
1782814227841814300,1.903814208984375,-0.11014204419553279,0.024627076256275176,0.06205352879571728
1782814227861895400,1.9238955078125,-0.03274725434780121,-0.0003475713286548853,0.03939277047661598
1782814227881977300,1.943977294921875,-0.0006651859104633331,0.0059510173588991164,0.09037654609363525
1782814227902059300,1.964059326171875,-0.08067454217076302,0.028943697346374392,0.06523430968972388
1782814227922140400,1.984140380859375,0.021795652222633362,-0.042739875247702,-0.017961442071327473
1782814227942222300,2.004222412109375,0.1941542063564062,-0.10254201752059161,0.03876810837278608
1782814227962303500,2.024303466796875,0.05921440551280975,-0.04694901737533509,0.10374911002172156
1782814227982385400,2.044385498046875,-0.1581482424736023,0.04295541769452393,0.12193019760954193
1782814228002466600,2.064466552734375,-0.26122049441337586,0.0436553095921874,0.05957915173855144
1782814228022548500,2.084548583984375,-0.10824702422916889,-0.0005246083959937096,0.05333700137939304
1782814228042629000,2.104629150390625,-0.011149755045771597,-0.026761238740757105,0.06024622821200173
1782814228062711300,2.124711181640625,-0.05483750560283661,-0.025582038893550634,0.08641233690408989
1782814228082793200,2.144793212890625,-0.11356675794720648,0.01871704849489033,0.058460093713901005
1782814228102874400,2.164874267578125,-0.08720072906911372,0.005795972927659749,0.06917325657384936
1782814228122956300,2.184956298828125,-0.0640530777156353,-0.0020218612164258957,0.04261766450698487
1782814228143037400,2.205037353515625,0.014389759880304335,-0.0402825452234596,0.015613962204795098
1782814228163119400,2.225119384765625,0.08988017741143703,-0.03491714573279023,0.0423460992902983
1782814228183200300,2.2452001953125,0.12207388952970503,-0.015520079084485768,0.023645942564704453
1782814228203282400,2.265282470703125,0.09920680868327617,-0.004381283824145794,0.04884678642121144
1782814228223363300,2.28536328125,0.04354980339109897,0.02171834920272231,0.05036741098407656
1782814228243445500,2.305445556640625,-0.006820785930752754,0.05759761796593666,0.05788520273566246
1782814228263527400,2.32552734375,0.03884790931046009,0.05627440653815865,0.06250100770173594
1782814228283608300,2.3456083984375,0.07780044803917407,0.040177550479024646,0.053753738087275994
1782814228303690200,2.365690185546875,0.0255278244882822,0.03940218219235539,0.014936995666637084
1782814228323771100,2.385771240234375,-0.046292964619398115,0.07438705939911305,0.05667884088689461
1782814228343853300,2.405853271484375,-0.1278226623147726,0.0939130131240934,0.037617184771993196
1782814228363934200,2.425934326171875,-0.07934241678416729,0.04497157982252538,0.049079184104711744
1782814228384016400,2.446016357421875,-0.007520458632707595,-0.025646190170943734,0.010801832090667448
1782814228404098300,2.466098388671875,0.09231938725709915,-0.07248845923617482,-0.03504891888629645
1782814228424179200,2.48617919921875,0.056630818760395045,-0.05026369488127529,0.029849507629277648
1782814228444261400,2.506261474609375,-0.04303776221573353,0.01161057749055326,0.08423234425019473
1782814228464342000,2.526342041015625,0.02453939797282219,-0.02933876107856631,0.019895965214306487
1782814228484424200,2.546424072265625,0.14812836824059486,-0.144233991150558,-0.031086159585032143
1782814228504505000,2.566505126953125,0.1740764639675617,-0.13759294570088385,0.0327964569345233
1782814228524587300,2.586587158203125,-0.15780571264624596,0.004029620842263102,0.055142123705754054
1782814228544668200,2.606668212890625,-0.3579378243684768,0.05763794997632503,0.014662032916466705
1782814228564750000,2.62675,-0.3062614131450653,0.04750000232160091,0.02312115607219748
1782814228584832300,2.646832275390625,-0.07393734287023544,-0.011926000115275382,0.10287404422024264
1782814228604913200,2.6669130859375,0.10459902311563492,-0.05038227975964546,0.06886515873905737
1782814228624995300,2.686995361328125,0.14906184969842434,-0.019948709181696174,0.08013024269361048
1782814228645076200,2.707076171875,0.08501870885491371,0.010382350869849323,0.07356454576877877
1782814228665158100,2.727158203125,0.0007604629784822463,0.000024769115075469017,0.013991006353683768
1782814228685239300,2.7472392578125,-0.030583938834071157,-0.04773498012125492,-0.008192750137392431
1782814228705321200,2.7673212890625,-0.02768997095823288,-0.049406201269105075,0.00774754082027357
1782814228725403400,2.7874033203125,-0.01836801586151123,-0.03738039404116571,0.019562892768462188
1782814228745484000,2.807484130859375,-0.03663023326098919,-0.05756188906542956,-0.007051019056630321
1782814228765566200,2.827566162109375,-0.05507715957760811,-0.09436419095769524,-0.05057508065169677
1782814228785647000,2.847647216796875,-0.01208382102549076,-0.05069076118692755,0.022188519431161693
1782814228805729000,2.86772900390625,0.04032265803813934,-0.04116868040822446,0.08931773035624065
1782814228825810200,2.88781005859375,0.026842998740077017,-0.019199279053881763,0.06708091023736633
1782814228845892000,2.90789208984375,-0.009786065477132797,-0.013868074093759059,0.0768845753032714
1782814228865973200,2.92797314453125,-0.044785482665896416,0.049776422820985315,0.08369840177027509
1782814228886055200,2.94805517578125,-0.04363631263077259,0.053790773028880356,0.08343944030683487
1782814228906137300,2.968137451171875,-0.051934769898653026,0.06320004108287394,0.10696919544623233
1782814228926218200,2.98821826171875,-0.10850070672929286,0.07381393568627535,0.10436610027574933
1782814228946300200,3.008300048828125,0.000436053329706192,0.01731178480684757,0.11048750576549209
1782814228966381300,3.02838134765625,0.11076806713938712,-0.04786233282797038,0.07041319646523334
1782814228986463200,3.048463134765625,0.0766226364314556,-0.003388838720694184,0.0703697226496879
1782814229006544100,3.068544189453125,0.012637363255023955,-0.00832147281728685,-0.02534362702779472
1782814229026626000,3.0886259765625,0.12151274851560592,-0.12483531706705689,-0.07730639004507102
1782814229046707200,3.108707275390625,0.09491115731596945,-0.1375938955489546,-0.030660593400010837
1782814229066789000,3.1287890625,-0.14455986210405825,-0.04541567032821476,-0.02390931077520363
1782814229086871000,3.14887109375,-0.23558745598495004,0.007400923906266689,-0.0406002648365451
1782814229106952200,3.1689521484375,-0.19058277761042117,0.025671836068853735,-0.015378300560195929
1782814229127034000,3.1890341796875,-0.019994740280508995,-0.04444536399133503,-0.012473281567380763
1782814229147115300,3.209115234375,0.07523439694344997,-0.04574176047742366,-0.012785968812322242
1782814229167197200,3.229197265625,0.06788520322442054,-0.016666984097287056,0.0053202406081138175
1782814229187278300,3.2492783203125,-0.003471475502848625,0.021988763641938566,0.0316694142495282
1782814229207360300,3.2693603515625,-0.08415712358951569,0.08232676635719835,0.013342219022172502
1782814229227441400,3.28944140625,-0.02486906831860542,-0.020602131589129567,0.03243248017705046
1782814229247523300,3.3095234375,-0.0352396556854248,0.0029529315214604137,0.024058222293178548
1782814229267605200,3.329605224609375,0.04145195432901382,-0.01538344709277153,0.039822480830503625
1782814229287686000,3.349685791015625,0.09840776726007461,-0.03926328517831862,0.0524884765249677
1782814229307767800,3.369767822265625,0.012031214055418968,-0.021182561825588343,0.052263873988855625
1782814229327849000,3.389848876953125,-0.03728372873365879,-0.05323189703710377,0.08489332890957593
1782814229347931000,3.409930908203125,-0.009371639457345008,-0.05869147761724889,0.11075290610287337
1782814229368012000,3.430011962890625,-0.08885784862637519,-0.014043284530192613,0.1653150653630495
1782814229388094000,3.450093994140625,-0.1925771662980318,0.019100714050233364,0.14786389035182074
1782814229408174800,3.4701748046875,-0.17787059555351734,0.012281243293732404,0.07153600364981684
1782814229428256800,3.4902568359375,-0.044502574071288103,-0.03692614746764302,0.05920954667460173
1782814229448338000,3.510337890625,0.07712941690981388,0.005376870732754469,0.08681230514026246
1782814229468419800,3.530419921875,0.04240881666243076,0.03320508111789822,0.10975015880111605
1782814229488501800,3.550501708984375,0.024048984107375142,0.03589914250746369,0.06727565649133176
1782814229508583000,3.5705830078125,0.07629121252000332,0.025966800427436827,0.0644517262109788
1782814229528664800,3.590664794921875,0.12351941216289997,0.06285948401689528,0.10007036671005189
1782814229548746000,3.61074609375,0.14839315665662287,0.029507834035158154,0.022377872557379302
1782814229568828000,3.630827880859375,0.17549568311572075,-0.07638546667471528,-0.04674735275681596
1782814229588908800,3.65090869140625,0.06369359675347805,-0.0452849566206336,0.006986529852519742
1782814229608991000,3.670990966796875,-0.2386304769426584,0.037394349501281975,0.05162592314518988
1782814229629072000,3.69107177734375,-0.3472077560395002,0.06489990380331874,0.02068854036410339
1782814229649154000,3.711154052734375,-0.1507061097741127,0.039529607964307066,0.04807234058314934
1782814229669234700,3.731234619140625,0.06431260543465614,-0.04784603928029537,0.06964723532772622
1782814229689316900,3.75131689453125,0.15373276411890982,-0.09771145555898547,0.018160232029459437
1782814229709398800,3.771398681640625,0.10765022737979889,-0.08270750930309295,0.007605209740134887
1782814229729479700,3.791479736328125,-0.006466565665602684,-0.02135536110922694,0.03293041062867269
1782814229749561900,3.811561767578125,-0.0812502962321043,-0.014552330030873417,0.03156151972853113
1782814229769642800,3.831642822265625,-0.05009469498991966,-0.011110153687745332,0.020413974906154906
1782814229789725000,3.851724853515625,0.0092892218708992,-0.03800305598415434,0.03751757402215153
1782814229809805800,3.871805908203125,0.0003705868780612945,-0.0316947496201843,0.024787070857267824
1782814229829887700,3.8918876953125,-0.009892448461055754,-0.03197780434526503,0.012468450128636323
1782814229849969000,3.911968994140625,-0.052526890572905535,-0.017243541876226662,0.024124218467785976
1782814229870050800,3.93205078125,-0.014302081596851347,-0.029327728227898475,0.04266090999366715
1782814229890133000,3.952133056640625,0.011404606589674949,-0.051874125752598046,0.037082598404679444
1782814229910214000,3.9722138671875,-0.012005495092272759,-0.05352181989438831,0.021551892894902266
1782814229930296000,3.992296142578125,0.008393149814009666,-0.06154993578828871,0.011744072243687696
1782814229950376700,4.012376708984375,-0.018516484421491623,-0.020912731908261775,-0.013002885798900387
1782814229970458600,4.032458740234375,-0.03804886788725853,0.0037568683154880996,0.016235529310884886
1782814229990539800,4.052539794921875,-0.10217384179532528,0.008462269527465104,0.029642424766835755
1782814230010621700,4.07262158203125,-0.10655775596797466,-0.020165420672297478,0.013531800477253272
1782814230030702800,4.092702880859375,-0.007720365118980407,-0.08423186932615935,-0.007837698755180462
1782814230050784800,4.11278466796875,0.03833236100375652,-0.055660512423515315,0.0203439829764422
1782814230070867000,4.132866943359375,0.01497252820432186,-0.02413213234618306,0.02127955592665821
1782814230090947800,4.15294775390625,0.013946692287921905,-0.06826791893169283,-0.04580368326511234
1782814230111029800,4.17302978515625,0.06654781714081764,-0.1111607927840203,-0.01227186354403384
1782814230131111000,4.19311083984375,0.033683658415079115,-0.04459456320367753,0.04370054610655643
1782814230151192800,4.21319287109375,-0.08963234013020992,-0.008233429207652807,0.07550407159714959
1782814230171274000,4.23327392578125,-0.14029168326556682,0.01002250458151102,0.008141924132453278
1782814230191356000,4.25335595703125,-0.1099456448405981,-0.016291063456982374,0.046862471603043375
1782814230211436800,4.273436767578125,-0.031205285602807997,-0.059442369049787516,0.07429696082971059
1782814230231518700,4.293518798828125,0.012094342419505119,-0.06922405061274767,0.06851423097611405
1782814230251600600,4.3136005859375,0.06423954019844531,-0.04154489330947399,-0.009317799511412157
1782814230271681800,4.333681884765625,-0.004737549915909767,-0.018156492002680897,0.1096823907945305
1782814230291764200,4.35376416015625,-0.14014146113991738,0.03406323231719434,0.1037862728274893
1782814230311845400,4.373845458984375,-0.01818155337870121,0.012070230891555548,0.08612424981086514
1782814230331927300,4.39392724609375,0.09154840288460254,0.01089241928383708,0.13362037054179235
1782814230352008400,4.414008544921875,0.054826984208822246,0.008659253404289484,0.09707524914783425
1782814230372090400,4.43409033203125,0.024277532166242597,0.013331482999026775,0.05598722362723201
1782814230392171300,4.454171142578125,0.021167291191220284,0.02377703529819846,0.08672915690145455
1782814230412253400,4.47425341796875,0.06900397812128066,0.02457344637289643,0.11309160558297299
1782814230432334300,4.494334228515625,0.022234628161787985,0.016274258452653883,0.07793418482090346
1782814230452416500,4.51441650390625,-0.03172375651896,-0.0005948971532285213,0.05851066855709068
1782814230472498400,4.53449853515625,-0.03681961835324764,0.002584463535249233,0.06808246109588072
1782814230492579300,4.554579345703125,-0.061520344367623325,0.006599252134561538,0.08134284248691984
1782814230512661200,4.5746611328125,-0.06883154416382313,0.00030687399208545685,0.061894155249232426
1782814230532742100,4.5947421875,-0.009723521634936332,-0.019693857637792824,0.04169779144939966
1782814230552824300,4.61482421875,0.05167933383285999,-0.035573125423490996,0.03412949335328303
1782814230572905200,4.6349052734375,0.061067339903116226,-0.0517597055926919,0.0055524738948326555
1782814230592987400,4.6549873046875,0.027263269978761672,-0.016771832711249587,0.026793990232888608
1782814230613068300,4.675068359375,-0.038113165295124055,0.025222996322810647,0.04142430827026255
1782814230633150500,4.695150390625,-0.022208909198641776,-0.00044964346364140506,-0.06950830178107134
1782814230653232400,4.715232421875,0.051685179051756854,-0.04254311056658625,-0.03781252924758009
1782814230673313300,4.735313232421875,-0.07852116352915764,0.016870032388716934,-0.024767142314091325
1782814230693395500,4.7553955078125,-0.15110416918098926,0.012820464736968278,-0.009935228156857191
1782814230713476400,4.775476318359375,-0.21450082881450652,0.04143748741224408,-0.012579239859618245
1782814230733558500,4.79555859375,-0.14308452885448933,0.007917933517694473,-0.005343973110150546
1782814230753639200,4.81563916015625,0.045128597015142435,-0.036611674690991636,-0.017025222950428725
1782814230773721300,4.835721435546875,0.15772680219113827,-0.06580006751343608,0.009608316023740918
1782814230793802200,4.85580224609375,0.10388473736643791,-0.016924392924457788,0.0478160734002944
1782814230813884200,4.87588427734375,-0.011734861457347869,0.06351151818484067,0.0329049747933168
1782814230833966300,4.89596630859375,0.006929507002234459,0.03617416005656123,0.06835198048595338
1782814230854047200,4.916047119140625,0.09407353744804858,0.02095233326628804,0.09792138111577368
1782814230874129400,4.93612939453125,0.05154021762311458,0.03261252205222845,0.10571022662739268
1782814230894210300,4.956210205078125,-0.0321767609834671,0.060535863374918696,0.08461641166433692
1782814230914292200,4.976292236328125,-0.0011561842978000641,0.034226971511542796,0.08755738788652233
1782814230934373400,4.996373291015625,-0.07840484367311,0.016957856802642345,0.06348305927533655
1782814230954455300,5.016455322265625,-0.03912263459861278,-0.016601152319461108,0.05130273733912036
1782814230974536400,5.036536376953125,-0.03666647361814976,-0.028734365444630382,0.02708159326892346
1782814230994618400,5.056618408203125,-0.023105565777420997,-0.048688773714751,0.024558130072755736
1782814231014700300,5.0767001953125,-0.048366848284006114,-0.03552241814956069,0.0015557506751734762
1782814231034781200,5.09678125,0.025764555853605268,-0.023003274446725844,0.0005102145444601774
1782814231054863400,5.11686328125,0.04012625868320465,-0.011413812809437512,0.017898233792139215
1782814231074944300,5.1369443359375,0.004791325929760932,0.032904271540418265,0.014499494731938466
1782814231095026200,5.157026123046875,-0.04965045835375786,0.023813640981540082,0.054942975271306926
1782814231115107300,5.177107421875,-0.01817453911602497,0.03221059018783271,0.03541587990201078
1782814231135189200,5.197189208984375,0.09839666134417056,0.005724807387590408,0.06516419902900233
1782814231155270400,5.2172705078125,0.10272387689352035,0.043486675027012825,0.0791568676168099
1782814231175352300,5.237352294921875,-0.015243746361136436,0.01268573244139552,0.005182435006042942
1782814231195434200,5.257434326171875,-0.02072247003316879,-0.04598733273632824,-0.015249107522843405
1782814231215515400,5.277515380859375,-0.018610592445731163,0.010178425795584917,0.07025574088119901
1782814231235597300,5.297597412109375,-0.050038580888509744,0.0072726213514804836,0.09606143246279097
1782814231255678500,5.317678466796875,-0.1139583876132965,-0.011074278656765819,-0.001887128920853138
1782814231276387300,5.33838720703125,-0.16551730993688105,0.004832900049164891,0.01642763151661493
1782814231296468500,5.358468505859375,-0.05376256984770297,-0.015757687232643366,0.02486186225968413
1782814231316550400,5.37855029296875,0.08199263903200626,-0.06219415197595954,0.020913969450700096
1782814231336631600,5.398631591796875,0.05262684381604194,-0.06573445493131876,-0.031127955183433368
1782814231356713500,5.41871337890625,-0.06329612186849116,-0.02867664390802383,-0.013689246928133069
1782814231376794600,5.438794677734375,-0.09704641577899456,-0.000705664051324129,0.01609513902608305
1782814231396876500,5.45887646484375,-0.002834346643090248,-0.028560689378157256,0.06271598389297724
1782814231416957400,5.47895751953125,0.05580255124270916,-0.04963891404643655,0.05723230091803707
1782814231437039400,5.499039306640625,-0.024786650732159615,-0.01613024687208235,0.06350627575414255
1782814231457121300,5.519121337890625,-0.06850245833992957,0.014748290994390845,0.06279803615324199
1782814231477202400,5.539202392578125,-0.1087082120001316,0.011740852806717156,0.06964983827676624
1782814231497284400,5.559284423828125,-0.07720014405846595,0.023106296429783103,0.10142162605538033
1782814231517365500,5.579365478515625,-0.02727203780710697,-0.025650062628462908,0.08543617621515877
1782814231537447400,5.599447509765625,0.005574000740051269,-0.032576573956012725,0.051329451816109935
1782814231557528600,5.619528564453125,-0.008259294301271439,-0.023542349759489295,0.06073410762706771
1782814231577610500,5.639610595703125,-0.07533142757713794,0.03417516825906932,0.06071553992391564
1782814231597691600,5.659691650390625,-0.059706572943925854,0.03586553249880671,0.08834736008727923
1782814231617146400,5.679146484375,-0.001599251890182495,0.023301307545229792,0.06366342081092298
1782814231637228500,5.699228515625,-0.00696866996884346,0.006390285558998584,0.0405041429517325
1782814231657309400,5.719309326171875,0.02930734302699566,-0.015586641514673828,0.03463898637853562
1782814231677391600,5.7393916015625,0.03158522483110428,0.027403189906105397,0.08436596230091527
1782814231697472500,5.759472412109375,-0.04304886813163757,0.05847279336526989,0.09095613607987761
1782814231717554700,5.7795546875,-0.06255085645914077,0.03800042563565075,0.003182566425716504
1782814231737636600,5.79963671875,0.0543149430334568,0.0012415975589305161,0.002722922157868743
1782814231757717200,5.81971728515625,0.1113444057226181,0.0008175269279628992,0.08805452375370078
1782814231777799400,5.83979931640625,0.007469020706415176,0.05979921966344118,0.10653200047221034
1782814231797880300,5.85988037109375,-0.1368453422039747,0.052728989016264674,0.048213192092254754
1782814231817962500,5.87996240234375,-0.12070201665461062,0.06920556510798632,0.0282448740277905
1782814231838043400,5.90004345703125,-0.06588496931791304,0.03597542261406779,0.0404175697799772
1782814231858125600,5.92012548828125,-0.049771454384922975,0.018434066835045813,0.0014380243133287876
1782814231878206500,5.94020654296875,-0.024767361509799957,0.04525872620083391,0.0287062992607709
1782814231898288400,5.960288330078125,0.024734628283977506,0.059599824633821845,0.06465323556587099
1782814231918370600,5.98037060546875,0.029881928044557568,0.06287570449933409,0.06521741792042739
1782814231938451500,6.000451416015625,0.1274357088238001,0.016619491693750023,0.01376830351371318
1782814231958533600,6.02053369140625,0.1933475661486387,-0.03814575239047408,-0.002831652362504974
1782814231978614500,6.040614501953125,0.14000351397395133,-0.03288585910089314,-0.023748083198349923
1782814231998696400,6.060696533203125,0.04323883774578571,-0.046714916358515615,-0.006512998623214662
1782814232018777300,6.08077734375,-0.016853519645333288,-0.01222944004125893,0.02786161033124663
1782814232038859300,6.100859375,0.07007306865751743,-0.007778159720823168,0.009481680269655771
1782814232058941400,6.12094140625,0.11484043114483355,-0.06661306439675391,-0.004734051917726174
1782814232079022300,6.141022216796875,-0.03143091105222702,-0.07253916651010513,-0.027989483627770095
1782814232099104500,6.1611044921875,-0.23461539608240126,0.010688932600989937,0.046520170104550194
1782814232119185400,6.181185302734375,-0.303093304502964,0.04686068150475621,0.11130179042359814
1782814232139267300,6.201267333984375,-0.1918050128817558,0.01103730764724314,0.1165745523279067
1782814232159348500,6.221348388671875,-0.08655074072778224,-0.029825302486494183,0.09626974145122803
1782814232179430400,6.241430419921875,-0.10197919600605965,-0.040428383434936405,0.11719013607613742
1782814232199511600,6.261511474609375,-0.06539630901813506,-0.04312069125883281,0.07617920351289212
1782814232219593500,6.281593505859375,-0.037115386429429055,-0.06748144472911953,0.09067830551918596
1782814232239675600,6.301675537109375,-0.12001754152178763,-0.02204063995964825,0.12268018485978245
1782814232259756500,6.321756591796875,-0.13687047664523125,0.025687764290347692,0.055185337226395494
1782814232279838500,6.34183837890625,0.07001403194665909,-0.05914864680022001,-0.011999599641025998
1782814232299919400,6.36191943359375,0.1936667151004076,-0.06600998393706976,0.005641421686764806
1782814232320001300,6.382001220703125,0.1161193650394678,0.0006703735422343016,0.07585957507051061
1782814232340082400,6.40208251953125,-0.06808101805746555,0.10384703570455311,0.037271723202033896
1782814232360164400,6.422164306640625,-0.11732698726356029,0.08454181205816566,0.029492147842259144
1782814232380246500,6.44224658203125,0.007329904496669769,0.06404423682205379,0.06992639932897873
1782814232400327400,6.462327392578125,0.09807985047996044,0.00494644342623651,0.07962043000794947
1782814232420409300,6.482409423828125,0.07276713004708289,0.014671353300660848,0.05514717434020713
1782814232440490200,6.502490234375,-0.03407411903738975,0.04154277441762388,0.0661186410764698
1782814232460572200,6.522572265625,-0.10343407098948955,0.03585997954085469,0.09925163420569151
1782814232480653300,6.5426533203125,-0.08561667474806309,0.012201090729609131,0.09248594859619624
1782814232500735200,6.5627353515625,-0.07551262936294079,0.011266513293236493,0.08902828242299146
1782814232520816400,6.58281640625,-0.045370004555582995,0.009302300548180938,0.08412446342892944
1782814232540898300,6.602898193359375,0.025179449442028996,-0.05027772340662777,0.0393299435066292
1782814232560980200,6.622980224609375,0.013782441636919975,-0.04997326056733727,0.0014840645452961325
1782814232581061400,6.643061279296875,0.0852104320347309,-0.05070055192857981,0.010394018474756739
1782814232601143300,6.663143310546875,0.059793666705489155,-0.04100523347482085,0.021734962410805747
1782814232621224400,6.683224365234375,-0.04608429030478001,-0.05389262596815824,-0.028592902014171702
1782814232641306400,6.703306396484375,-0.14417290861308574,-0.010677388293668627,-0.0075530913938302545
1782814232661387500,6.723387451171875,-0.1707657319843769,0.0014789865113794803,-0.026423047161800786
1782814232681469400,6.743469482421875,-0.08549509419500827,-0.008162336732819676,0.0065543581134872506
1782814232701550300,6.76355029296875,-0.09095160603523254,0.013607596526667475,0.017974285569880157
1782814232721632300,6.78363232421875,-0.1342979958087206,0.051957785448059436,0.06747457659691572
1782814232741714200,6.803714111328125,-0.0524807133436203,0.05009549870751798,0.08599148114351556
1782814232761795300,6.82379541015625,0.1904500911414623,-0.014549553551897406,0.05047217283307109
1782814232781877200,6.843877197265625,0.22916531398296355,-0.01775090687647462,0.05133888636473566
1782814232801958400,6.86395849609375,0.06222469324469566,0.05945756661891937,0.10315289769424126
1782814232822040300,6.884040283203125,-0.009592588731646538,0.05014057995826006,0.03453005067792255
1782814232842121500,6.90412158203125,0.050507951965928076,-0.015518910040706395,0.04794519793898798
1782814232862203400,6.924203369140625,-0.0212362647742033,0.031734277912974354,0.08056591243082657
1782814232882285300,6.944285400390625,-0.11482815618515015,0.01462006150484085,0.017491036664159035
1782814232902366500,6.964366455078125,-0.20551205119490623,0.05379574146494269,-0.0033917978627607225
1782814232922448400,6.984448486328125,-0.08096446502804756,0.022946721953898668,0.03493629795783199
1782814232942529500,7.004529541015625,0.09036649962365627,-0.051365737839043135,0.033345868694921954
1782814232962611500,7.024611572265625,0.18741116183698175,-0.08584105808846652,-0.0137835421820404
1782814232982692400,7.0446923828125,0.2062450416445732,-0.040900019534677264,-0.002547428593644872
1782814233002774300,7.064774169921875,0.013409516671299934,-0.00024513386748731134,0.03860734658681322
1782814233022855200,7.084855224609375,-0.17277239563167093,0.04929353467486799,0.03262437232022639
1782814233042937300,7.104937255859375,-0.14973229630589485,0.0077386314280331134,0.035783261042833324
1782814233063019300,7.125019287109375,-0.094408468490839,0.0026203385662287473,0.0380578001123853
1782814233083100400,7.145100341796875,-0.06702829413414,-0.027649712013080713,0.031001671055797486
1782814233103182300,7.165182373046875,-0.07868015348315238,-0.04057195662409067,0.015394995966670103
1782814233123263200,7.18526318359375,-0.060093526434898376,-0.0261428145814687,0.0383107108609518
1782814233143345400,7.205345458984375,0.017612229058146477,-0.03644486675672233,-0.006501166621525772
1782814233163426300,7.22542626953125,0.04876256960332393,-0.05262567477226257,-0.03885216992704663
1782814233183508500,7.245508544921875,0.07605974185168743,-0.0321976576410234,-0.015862736776005477
1782814233203589400,7.26558935546875,0.07610124290585517,-0.011461670539155602,0.021599682125961406
1782814233223671600,7.285671630859375,0.03246259218752384,-0.002704728914052248,0.015180010642274281
1782814233243753500,7.30575341796875,-0.04580255075395107,0.008267989064380527,0.0248366045208415
1782814233263834000,7.325834228515625,-0.09413257415890693,0.030424218227714298,0.03524042287040502
1782814233283916300,7.345916259765625,-0.03801555013954639,0.018203765210509298,0.06502642995954956
1782814233303997700,7.365997802734375,0.0552776505857706,-0.014082009105384348,0.07581347547303885
1782814233324079900,7.386079833984375,0.07687105823457241,0.006899404124915599,0.08175684838159941
1782814233344160800,7.406160888671875,-0.021370704808831215,0.05107033508904278,0.1055494191756472
1782814233364242700,7.42624267578125,-0.03480594044327736,0.015667013274505735,0.03798520980020985
1782814233384323800,7.44632373046875,0.03020341508388519,-0.10309329472780226,-0.01354601623227354
1782814233404405800,7.46640576171875,0.02444645899236202,-0.11721826619207858,0.013579201549245044
1782814233424488000,7.486488037109375,-0.11823942593336105,-0.0893419788815081,-0.011877927756425924
1782814233444568600,7.506568603515625,-0.19849077425599096,-0.12261128434203565,-0.07758433933677152
1782814233464650800,7.526650634765625,-0.1938788965463638,-0.13232384619154036,-0.08305502583282068
1782814233484731600,7.546731689453125,-0.11318623419702052,-0.12371763814873993,-0.038616388409794304
1782814233504813600,7.5668134765625,0.006774608701467514,-0.1304804833471775,0.02980051510510966
1782814233524894700,7.586894775390625,0.09228957664072512,-0.08477394031360745,0.04284782913420349
1782814233544976600,7.6069765625,0.10467559548318385,-0.01654014284722507,0.06127932498625013
1782814233565057800,7.627057861328125,0.04909691612422466,0.005367518382519483,0.0650117803796893
1782814233585139700,7.6471396484375,0.04720248067975044,0.04440335148051381,0.10390875756284221
1782814233605221600,7.6672216796875,0.06654138740003109,0.06873780146576464,0.1488200037665665
1782814233625302800,7.687302734375,0.002939560583233833,0.09968801632896065,0.16938034204058347
1782814233645384700,7.707384765625,-0.025618425381183623,0.08905315200276673,0.11335051224748603
1782814233665465900,7.7274658203125,0.014193360525369644,0.022725480418652296,0.08795067978673614
1782814233685547800,7.7475478515625,0.07412497439682483,-0.02693286898061633,0.03460231676311232
1782814233705628700,7.767628662109375,0.024183424142003057,-0.06744958828613162,0.04195403123279102
1782814233725710800,7.7877109375,-0.047101358392834664,-0.06864559313766658,0.013590298331994563
1782814233745791700,7.807791748046875,-0.031467735931277274,-0.07930500738322735,-0.0019224833620246498
1782814233765873700,7.827873779296875,-0.007001403194665908,-0.08097673998773097,-0.010326382898911832
1782814233785955600,7.84795556640625,0.008603577694296836,-0.07848908789046108,-0.012887780652404762
1782814233806036700,7.86803662109375,-0.0020347206979990005,-0.054943157934397455,0.02458954355774913
1782814233826118700,7.88811865234375,-0.05666822816133499,0.0018539573036134242,0.07909345612493343
1782814233846199800,7.90819970703125,-0.0275496857047081,0.030692879101261495,0.09819520222162827
1782814233866281700,7.92828173828125,-0.05333060817122459,0.03137158208042383,0.05754852726035751
1782814233886363000,7.94836279296875,0.05022036719620228,0.041476065856963396,0.08858999147042632
1782814233906444800,7.96844482421875,0.05904606320858001,0.08569697344265878,0.08241475516790524
1782814233926526000,7.98852587890625,0.08243570662438869,-0.0028378537744283673,0.013003639284148811
1782814233946607900,8.00860791015625,0.0861906752437353,-0.06426920468434691,0.009566002118820324
1782814233966689800,8.028689697265625,-0.05661211405992508,-0.01673288894034922,0.04285548728427384
1782814233986771000,8.04877099609375,-0.20388941842913627,0.026593992415070534,0.02664709714206401
1782814234006852900,8.068852783203125,-0.10821662909090518,-0.015035583503171801,-0.004346148578682914
1782814234026933800,8.088933837890625,0.0112847796022892,-0.0757092479135841,0.011029608397977427
1782814234047015700,8.109015625,0.14509586867690086,-0.11575623081550002,0.032281011375808154
1782814234067096800,8.129096923828126,0.160478146725893,-0.09290412834249437,0.04345741696648765
1782814234087178800,8.1491787109375,0.036442601734399796,-0.04424918383210897,0.005798973168921657
1782814234107259600,8.169259765625,-0.18018705580234526,0.0021850158888846636,0.01628994921213016
1782814234127341800,8.189341796875,-0.17240122423171997,0.024680413878709076,0.020455453127436338
1782814234147422700,8.209422607421875,-0.043643326893448825,-0.016364640149846673,0.04163010564120486
1782814234167505000,8.2295048828125,-0.030567572221159932,-0.03230550192967057,0.03273639046049211
1782814234187586800,8.2495869140625,-0.10371288793087005,-0.018213994343578815,-0.03892871032855473
1782814234207667700,8.269667724609375,-0.10710253036916255,-0.030079277247563003,-0.0018561949264723806
1782814234227750000,8.28975,-0.04030219977200031,-0.06504406151436269,0.03194399340720847
1782814234247830800,8.309830810546876,0.01115969191789627,-0.08128288332745433,0.01963276596716605
1782814234267913000,8.329912841796874,0.0019581483304500578,-0.10643602928444743,0.020404540357529186
1782814234287993600,8.34999365234375,-0.03966097925901413,-0.04207242431491613,0.045997561869397754
1782814234308075800,8.37007568359375,-0.06892915931940079,-0.023587504075467586,0.0669793860916514
1782814234328156400,8.390156494140625,-0.023817513439059256,-0.00961246247589588,0.06957828457762953
1782814234348238600,8.410238525390625,-0.07514496509432793,0.026859730679169296,0.11081199761265888
1782814234368319500,8.430319580078125,-0.048448681348562235,0.04958922968581318,0.09850141862658783
1782814234388401400,8.4504013671875,-0.016814356678724288,0.05535013130009174,0.12112647087806835
1782814234408483600,8.470483642578126,0.0504851556122303,0.04951185360066592,0.08593786952644586
1782814234428564500,8.490564453125,-0.013071663019061089,0.1004572471357882,0.1306864907806739
1782814234448646700,8.510646728515624,-0.03316343393325805,0.17100597048103808,0.09019245823100208
1782814234468727600,8.5307275390625,0.10751111117005348,0.06953793886750936,0.0026785989589523523
1782814234488809500,8.5508095703125,0.25352467921376226,0.0231217862598598,-0.009299697599140927
1782814234508890600,8.570890625,0.06212181739211082,0.08975698942318558,0.05784983002818189
1782814234528972500,8.59097265625,-0.12360592140257358,0.12135215112641454,-0.0010123964795144273
1782814234549053700,8.6110537109375,-0.10012333900630474,0.07277282913550734,-0.039060086189839055
1782814234569135600,8.631135498046875,0.057473699325323105,-0.012143807584419845,-0.03317865433527622
1782814234589216500,8.651216552734375,0.10036650011241435,-0.06208448105640709,-0.03334944889149628
1782814234609298400,8.67129833984375,0.00796118813753128,-0.03134250211641192,0.0018620401453692465
1782814234629380600,8.691380615234374,-0.06196224291622638,0.02403970482237637,0.03933041386408731
1782814234649461500,8.71146142578125,-0.04630114792585373,0.016442673822119832,0.0702991096654674
1782814234669543400,8.73154345703125,0.07117430789768696,-0.0011538462102413177,0.09217009671321139
1782814234689624600,8.75162451171875,0.04117605999708175,-0.02707147373370826,0.1061063954712823
1782814234709706500,8.77170654296875,-0.12345511475503444,0.027182459827512502,0.08646746462481096
1782814234729787600,8.79178759765625,-0.12614683805704116,0.016769421558454633,0.09487919127512723
1782814234749869600,8.81186962890625,-0.07820844431817531,-0.012820830063149333,0.06508283632190431
1782814234769950700,8.83195068359375,-0.018439327532052994,-0.0442149162363261,-0.005460491612309124
1782814234790032600,8.85203271484375,-0.06589841332137585,-0.07694901884160936,-0.01928911276180297
1782814234810113800,8.87211376953125,-0.02254676285088062,-0.10550780852362512,-0.025349928904417902
1782814234830195700,8.89219580078125,-0.004452303233742714,-0.09271342807598411,-0.0389855870483676
1782814234850277600,8.912277587890625,-0.07369827341735363,-0.06736519793830811,-0.0741859427698655
1782814234870358500,8.932358642578125,-0.1527577816069126,-0.03458331066854298,-0.05847100326698273
1782814234890440700,8.952440673828125,-0.1054705452531576,0.0006426087524741888,0.007173832585546188
1782814234910521600,8.972521484375,-0.0030482816547155378,0.02856748444512486,0.05013670293416362
1782814234930603500,8.992603515625,0.0510036265283823,0.017373159605264664,0.0538218577203108
1782814234950684700,9.0126845703125,0.02740413975417614,0.00652041474469006,0.02570825908910483
1782814234970766600,9.0327666015625,0.015407997012138366,0.0457967055350542,0.047734518896951336
1782814234990847500,9.052847412109376,-0.020960954964160918,0.0879964825566858,0.1131904902470298
1782814235010929700,9.0729296875,0.019756255349516867,0.06325491307526826,0.045199283064599145
1782814235031011600,9.093011474609375,0.09566869768500327,-0.02757818114683032,0.012692121082986705
1782814235051092700,9.1130927734375,0.0010568155765533446,0.01313581429645419,0.053837616978446017
1782814235071174700,9.133174560546875,-0.13824527212977408,0.026567469734326003,0.05227861946683842
1782814235091255600,9.153255615234375,-0.21681436645388602,0.05902304765917361,0.009333421772229485
1782814235111337700,9.173337646484375,-0.1682557949900627,0.005383738864958286,0.004859500361722894
1782814235131418600,9.193418701171876,-0.025507950744032858,-0.031319705762714145,-0.02267906572734937
1782814235151500800,9.213500732421876,0.15039923578202724,-0.07873575612790883,0.01508529526325874
1782814235171581400,9.23358154296875,0.1417640939056873,-0.007600684262067079,0.031608181015006266
1782814235191663600,9.25366357421875,0.026487609431147575,0.010743658462911844,0.06882355265361256
1782814235211744500,9.27374462890625,-0.024377485409379004,0.029077041402459144,0.06507128744800575
1782814235231826400,9.293826416015625,0.03974865754246711,0.00934687034226954,0.06575076217872555
1782814235251907600,9.313907470703125,0.10969371590614319,0.0023178484883159397,0.09369055687929503
1782814235271989500,9.333989501953125,0.03006488339602947,0.014829028080403804,0.07304813437897247
1782814235292070700,9.354070556640625,-0.06023790334165096,0.03601677753776312,0.06300186989596113
1782814235312152600,9.374152587890626,-0.08361293371021747,0.04974237442091107,0.08810310300262644
1782814235332233700,9.394233642578126,-0.02130465383529663,-0.0005044423907995223,0.08689131606006995
1782814235352315600,9.414315673828124,0.033192075505852695,-0.03142645407281816,0.061420624019927345
1782814235372397600,9.4343974609375,0.000090016371011734,-0.04645853044465184,0.023234000762947835
1782814235392478700,9.454478759765625,-0.09263853620886803,-0.0464373415261507,0.020957717260881324
1782814235412560600,9.474560546875,-0.12195406254231929,-0.041290553222224115,0.022163878180249594
1782814235432641500,9.4946416015625,-0.10134148262441157,-0.026455899118632078,0.05667358018988743
1782814235452723500,9.514723388671875,-0.03916822730600834,-0.018555720453336835,0.04371328229054343
1782814235472804600,9.5348046875,0.0332096111625433,-0.02069470524340868,0.04644970781737938
1782814235492886500,9.554886474609376,0.04269406334459781,-0.026282076921686527,0.035733334653615015
1782814235512967700,9.5749677734375,0.0816512782484293,-0.016935498840361832,0.020047365516889838
1782814235533049600,9.595049560546874,0.06355857219696044,0.04190378974974155,0.08399855376062915
1782814235553130800,9.615130859375,0.0010468787044286727,0.07920030489973723,0.0975285458732862
1782814235573212700,9.635212646484375,-0.005988426759839058,0.03214037449583411,0.004409117112564854
1782814235593293600,9.65529345703125,0.03588672141730785,0.013817439885064958,-0.012988747675693593
1782814235613375700,9.675375732421875,-0.04196399550437927,0.03091156335324049,0.05021197839376982
1782814235633457700,9.695457763671875,-0.14217793540358542,0.05771021149493753,0.05022796141419094
1782814235653538800,9.715538818359375,-0.14856442157030106,0.05540361505299806,0.014944767981139011
1782814235673620700,9.735620849609376,-0.03755670045614242,0.01504427826628089,0.0016233771178638561
1782814235693701600,9.75570166015625,0.07551321388483047,-0.06369366981871426,0.012114741320139727
1782814235713783600,9.775783447265624,0.13109306228756903,-0.05030804547965526,0.014533095607440918
1782814235733864400,9.795864501953124,-0.006264905613660812,-0.01951419022195041,0.0018772651139646768
1782814235753946600,9.815946533203125,-0.08379822714924812,-0.005966141862794756,0.0007318122727330773
1782814235774027500,9.836027587890625,-0.04417641085684299,-0.03614266893975437,-0.000316998093877919
1782814235794109700,9.856109619140625,0.0599877279728651,-0.06467910065948963,0.0284315374400001
1782814235814191600,9.876191650390625,0.02276946569085121,-0.04056012005582452,0.05876009044062812
1782814235834272500,9.8962724609375,-0.006121697750687599,-0.05510762778110802,0.013492427448090165
1782814235854354700,9.916354736328126,-0.05315817421376705,-0.0688084555491805,-0.04645219203541055
1782814235874435600,9.936435546875,-0.12027765376269817,-0.04440101339295506,0.07819497291524895
1782814235894517800,9.956517822265624,-0.23978023149967193,0.040143867405131456,0.0877004404858686
1782814235914598700,9.9765986328125,-0.1202893442004919,-0.018218305192515254,0.0698149520108709
1782814235934680600,9.9966806640625,-0.008506547060608863,-0.042973172546923157,0.027832626265357246
1782814235954761500,10.016761474609375,0.039811785906553265,0.03150901778973639,0.07616244874091353
1782814235974843400,10.036843505859375,0.059496145063638685,0.055873278391361234,0.07317132693380117
1782814235994924500,10.056924560546875,0.017407061874866486,0.04618373209126293,0.0953129521830473
1782814236015006500,10.07700634765625,0.05000935479402542,0.07696034395322203,0.12955924031641333
1782814236035088600,10.097088623046876,0.07019932538568974,0.0632477526821196,0.13615498531963677
1782814236055169500,10.11716943359375,0.045288171491026874,0.05787599651589989,0.1031897591059096
1782814236075251500,10.13725146484375,0.1565180109232664,0.008064502381533384,0.025049292856873944
1782814236095332600,10.15733251953125,0.108808165243268,-0.003638721828535199,0.05367187305667903
1782814236115414500,10.17741455078125,0.006464812099933624,0.032654534563049675,0.006300250921677798
1782814236135495700,10.19749560546875,-0.009960253000259399,-0.003386500633135438,-0.05036951617619488
1782814236155577600,10.21757763671875,-0.03438099302947521,0.05846124905794858,0.007691276021813974
1782814236175658800,10.23765869140625,0.05963350770771503,-0.03296608473025262,0.22953100549019873
1782814236195740700,10.25774072265625,-0.18670447487235067,-0.07435206115096807,0.029956367820524608
1782814236215822600,10.277822509765626,-0.28980946003794666,-0.06824621855653822,-0.07215088414514903
1782814236235903500,10.297903564453126,-0.18818214620947837,-0.011688903423771262,0.023928481266554443
1782814236255985400,10.3179853515625,-0.02350362518429756,-0.1226224633231759,0.10571311270422301
