time,seconds_elapsed,z,y,x
1782814253124215600,0.055215576171875,0.07565817531347274,0.031834377286583185,-0.005800283776596188
1782814253144297500,0.07529736328125,0.17669103038012982,0.037246027071774004,0.08461407357677816
1782814253164378600,0.095378662109375,0.0815332048267126,0.05623297854922712,0.02440391675857827
1782814253184460500,0.11546044921875,-0.010303367349505424,0.03427241808846593,0.03263999458104372
1782814253204541700,0.135541748046875,-0.004273439535498619,0.046381081294268364,0.05551916772406548
1782814253224623600,0.15562353515625,-0.016866379126906392,0.07170483457781374,0.13226676397575066
1782814253244704800,0.175704833984375,-0.04133212734162807,0.06270875043459236,0.09223422972429543
1782814253264786700,0.19578662109375,-0.026487609431147575,0.04224230098910629,0.05117434345278889
1782814253284867600,0.21586767578125,0.08878712147772312,-0.04102722611092031,-0.007850530837289989
1782814253304949500,0.235949462890625,0.07198387071490288,-0.1093785855423659,0.03243517445763573
1782814253325030400,0.256030517578125,-0.0474959106683731,-0.05599544346630573,0.05423175826203078
1782814253345112300,0.2761123046875,-0.16294658266603945,0.022999913445860148,0.08971415492845698
1782814253365193500,0.296193359375,-0.17723989643454552,0.027026757809147237,0.06675128555735572
1782814253385275400,0.316275390625,-0.12600304567217827,-0.004975084998831153,0.05970056332824751
1782814253405356300,0.336356201171875,-0.08682137436270713,0.03228979290388524,0.08951147196320816
1782814253425438500,0.3564384765625,-0.036897944286465645,0.08528320500999688,0.14456510453475638
1782814253445519400,0.376519287109375,-0.004320201286673545,0.09396686220318079,0.13208658510325474
1782814253465601500,0.3966015625,0.06940437561571598,0.04326989047117531,0.08334668398946524
1782814253485682200,0.41668212890625,0.08724865986406803,-0.011579743960872291,0.04188143178746104
1782814253505764400,0.436764404296875,0.023602409383654592,0.053763958087190984,0.09548362344168126
1782814253525845200,0.45684521484375,-0.02200608010292053,0.12110869775936006,0.10766969926524907
1782814253545927200,0.47692724609375,0.10692892736792564,0.01850830111503601,0.01350914112087339
1782814253566008300,0.49700830078125,0.19310323599874973,-0.08765862890444695,-0.011838723690621554
1782814253586090200,0.51709033203125,-0.03158522483110428,-0.06978570308350027,0.015417422427609562
1782814253606171400,0.53717138671875,-0.2702601254373789,0.012510448939725756,-0.04481574993999675
1782814253626253300,0.55725341796875,-0.34108956542015073,0.03706087976321578,-0.06975629432592541
1782814253646335500,0.57733544921875,-0.15438918220102787,-0.021780162392556666,-0.017563202284649013
1782814253666416400,0.59741650390625,0.07568740140795707,-0.08224076857417821,-0.03134429221469909
1782814253686498300,0.617498291015625,0.11314064148962497,-0.05491203214377165,-0.017900562746543437
1782814253706579500,0.637579345703125,0.09200666804611682,-0.01621354124136269,0.006822740425821394
1782814253726661400,0.657661376953125,0.040295770031213755,0.029868118714913724,0.03600417378451675
1782814253746742300,0.6777421875,0.07495908713340758,0.02397160802222788,0.04948617117013782
1782814253766824200,0.69782421875,0.11313713435828684,-0.028645883443579077,0.0460035714850761
1782814253786905300,0.7179052734375,0.06938976256847382,-0.02406023615375161,0.055756995067931706
1782814253806987300,0.7379873046875,-0.009521861582994461,-0.012066358434036374,0.056263355421181764
1782814253827068400,0.758068359375,-0.12788169902563096,0.007940583740919828,0.06633393692811951
1782814253847150300,0.778150390625,-0.146087802323699,0.0008586626559495925,0.07050194332776591
1782814253867231500,0.7982314453125,-0.1178881282776594,-0.03580284252613783,0.12760627961773424
1782814253887313400,0.8183134765625,-0.17803133907318114,-0.009428995667770505,0.11716814344003795
1782814253907394300,0.838394287109375,-0.18378595707714557,-0.010175503186136484,0.08864095447268336
1782814253927476500,0.8584765625,-0.01723521243929863,-0.00002842237688601017,0.0890202178475447
1782814253947557400,0.878557373046875,0.09479483745992183,0.016652005723863838,0.11552965551801025
1782814253967639600,0.8986396484375,0.1586708050429821,0.0510927661165595,0.12341038056416437
1782814253987720200,0.91872021484375,0.16919979784190653,0.0112280809789896,0.06448887531701475
1782814254007802400,0.93880224609375,0.12652969989478588,0.05428264819905162,0.08319005038933829
1782814254027883300,0.95888330078125,0.10237082567214965,0.1021767644047737,0.09626142114745452
1782814254047965200,0.978965087890625,0.14524375271499157,-0.008087444865703583,0.01827639205530286
1782814254068046300,0.99904638671875,0.06559446193873882,-0.005465864190459251,0.004230057051498442
1782814254088128300,1.019128173828125,-0.10843991645276546,0.06542597350403666,0.09036975102666765
1782814254108209400,1.03920947265625,-0.19508067355155945,0.06125161042883992,0.05055839437837712
1782814254128291300,1.059291259765625,-0.1274912384033203,-0.03896861308068037,0.02380630705845542
1782814254148372500,1.07937255859375,-0.2342044771939516,-0.04900368488281965,0.1112048419883009
1782814254168454400,1.099454345703125,-0.42341070575416084,0.041107086414098735,0.14430143036358056
1782814254188535600,1.11953564453125,-0.4280447952955961,0.07137260694876313,0.08962545373169704
1782814254208617500,1.139617431640625,-0.1288379768371582,-0.014631751942634582,0.029415315179806202
1782814254228698400,1.159698486328125,0.14992285044193268,-0.09167655930891633,0.01443339809263125
1782814254248780300,1.1797802734375,0.2480073770970106,-0.12083791799396276,-0.015632124624215066
1782814254268861200,1.199861083984375,0.2283341238558292,-0.05142813555076718,-0.005875102578476071
1782814254288943400,1.219943359375,0.06180325296223163,0.029145576594024895,-0.017478702338971197
1782814254309024800,1.240024658203125,0.11811726085841655,0.010044424152374267,-0.051226703827688465
1782814254329106700,1.260106689453125,0.14144845208525658,-0.026668080564588307,-0.02763176536443643
1782814254349188900,1.28018896484375,0.08726561099886894,0.018635142365097997,0.02128878041272983
1782814254369269500,1.30026953125,-0.08552782742083072,0.06413797952011227,0.09082543150545097
1782814254389351700,1.3203515625,-0.20812077238857746,0.12327201327309012,0.09904162645051255
1782814254409432600,1.3404326171875,-0.1333043085962534,0.03413286348730325,0.07651350436802022
1782814254429514800,1.3605146484375,-0.06374678824543953,-0.019992840584367514,0.059401379452273244
1782814254449595600,1.380595703125,-0.02271861228644848,-0.02249605557695031,0.06245820973962545
1782814254469677600,1.400677490234375,0.01107084459066391,-0.03560790447592735,0.03883873962331563
1782814254489758700,1.4207587890625,0.02306055759191513,-0.052095221157371994,0.020315734129492193
1782814254509840600,1.440840576171875,0.03855915549695491,-0.06162906543910503,0.0012589140199124813
1782814254529921800,1.460921875,0.023119009780883788,-0.06945756710767746,0.003510665868921205
1782814254550003700,1.481003662109375,0.00409691392481327,-0.033003567196428774,0.01577865695543587
1782814254570084900,1.5010849609375,-0.04736205515563488,0.00869359406530857,0.045334494850784536
1782814254590166800,1.521166748046875,-0.049479193440079686,0.017486264590919016,0.04628782265339978
1782814254610247700,1.54124755859375,0.06325462081432343,-0.019120441664010286,0.009061377064930275
1782814254630329600,1.56132958984375,0.151634330534935,-0.021135288617759942,0.05508350712000392
1782814254650410800,1.58141064453125,0.09172843562662601,0.04129471794068813,0.11101819684240036
1782814254670492700,1.60149267578125,0.02393675590455532,0.1036902377076447,0.054588435345748434
1782814254690573600,1.621573486328125,0.18340192619562148,-0.050754620203375816,0.026948705870565026
1782814254710655700,1.64165576171875,0.14985563042461872,-0.11075564604923128,0.036211560324346644
1782814254730736600,1.661736572265625,-0.13178981238007545,-0.014400573535263538,0.04326106784390285
1782814254750818800,1.68181884765625,-0.3996276791065931,0.0667966042701155,0.06482224459038116
1782814254770899700,1.701899658203125,-0.3491518758445978,0.09118431881256402,0.031129370822384952
1782814254790982000,1.72198193359375,-0.031179566639661788,-0.029131255807727574,0.0388741488634143
1782814254811062800,1.742062744140625,0.23105624229609964,-0.10083104888424277,-0.003579538987204432
1782814254831144700,1.762144775390625,0.27971535152494903,-0.11479907622113823,-0.041686393272550776
1782814254851225600,1.7822255859375,0.1256879883736372,-0.06223010007217526,-0.01088803536966443
1782814254871307500,1.8023076171875,-0.06384849505424499,-0.017004618553817272,-0.020689444546401498
1782814254891388700,1.822388671875,-0.03890226984620094,-0.07728424214534461,0.005216337275644764
1782814254911470600,1.842470703125,-0.04091828584372997,-0.06973426515720785,0.01582267876025289
1782814254931551700,1.8625517578125,-0.12320493938624859,-0.024434549358859657,0.09457781544206663
1782814254951633700,1.882633544921875,-0.12125322079658507,-0.0001575286492705345,0.0935869595075026
1782814254971714800,1.90271484375,-0.04023088810145855,-0.02604074244648218,0.09865704757971688
1782814254991796700,1.922796630859375,-0.0011889175236225128,-0.07870579938106238,0.04180873187743127
1782814255011878000,1.9428779296875,-0.005611410140991211,-0.07351188399977981,0.04085132155474275
1782814255031959800,1.962959716796875,-0.0741962860673666,-0.03949629021659493,0.0711533199085854
1782814255052040700,1.983040771484375,-0.079921093454957,-0.01408916949853301,0.04932577471034601
1782814255072123000,2.003122802734375,-0.05624561883509159,-0.04334704736061394,0.044309453518828375
1782814255092203500,2.02320361328125,0.005080079743266105,-0.030727512023225424,0.026785651662806047
1782814255112285700,2.04328564453125,0.026480010646581648,-0.003549363044649362,0.0681854556794744
1782814255132366600,2.06336669921875,-0.08441606678664684,0.01934292530827224,0.060232551313098515
1782814255152448800,2.08344873046875,-0.12176818458139896,0.018856164704635737,0.029137110159778965
1782814255172529700,2.10352978515625,-0.024366964015364645,0.0136151953112334,0.027134693429339676
1782814255192611600,2.123611572265625,0.04628711940050125,0.005057940976694226,0.018367047747131438
1782814255212692700,2.143692626953125,0.049185178929567336,0.03602240356095135,0.08195790564534254
1782814255232774700,2.163774658203125,0.0044756841093301775,0.06498948178291321,0.027892763521336017
1782814255252855800,2.183855712890625,0.09549392563998699,-0.018558204671368,0.019413433261215685
1782814255272937700,2.203937744140625,0.1293956107199192,-0.045958471968024966,0.027624522772897033
1782814255293019000,2.224018798828125,-0.030858664122223853,-0.0013060410972684621,0.032794034365285184
1782814255313101000,2.24410107421875,-0.10658522849678993,0.022329247642681002,0.032789979244675485
1782814255333182000,2.264181884765625,-0.07768003652989863,0.028444442587345835,0.005828194696828722
1782814255353263900,2.284263916015625,0.008923895689845085,-0.017893749413266775,0.03611862134388648
1782814255373345000,2.304344970703125,0.03904430866539478,-0.019324001412093637,0.028055790329631417
1782814255393427000,2.324427001953125,-0.03347439957857132,0.02952003592960536,0.0739674822801724
1782814255413507800,2.3445078125,-0.15731705234646795,0.06974800142161548,0.0857342732457444
1782814255433590000,2.364590087890625,-0.16595920848548412,0.06426657433584332,0.027645355498371642
1782814255453671000,2.3846708984375,-0.018642741149663924,-0.03468158341124654,0.054014845842029896
1782814255473753000,2.404753173828125,0.047203065201640124,-0.01166837209239602,0.03716911677750759
1782814255493834000,2.424833984375,0.017134674674272536,-0.019360241769254206,0.0701684370570816
1782814255513916000,2.444916015625,-0.00795242030918598,-0.017290011366456744,0.046301723314588886
1782814255533997000,2.4649970703125,0.027040567138791084,-0.05554375417605042,-0.020303358705108986
1782814255554079000,2.485078857421875,0.014687866044044495,-0.08018588187098502,-0.0258981008390896
1782814255574160000,2.505159912109375,0.009663315880298614,-0.05267769722044468,0.03677121263425797
1782814255594241800,2.52524169921875,-0.012935469418764113,0.006475625754892826,0.055661270475341
1782814255614323000,2.545322998046875,-0.01134615440070629,0.017289134583622218,0.02815249216975644
1782814255634404900,2.56540478515625,0.010633622217178344,0.0360632470279932,0.04400485368221998
1782814255654486000,2.585486083984375,0.005962123274803161,0.06646072337925434,0.08083200688795186
1782814255674568000,2.60556787109375,0.010430793121457099,0.10386924753636122,0.10519725387026556
1782814255694649000,2.625649169921875,0.000083002108335495,0.087294398701936,0.10602629770608618
1782814255714731000,2.64573095703125,-0.0714817664116621,0.10192235125228762,0.061024998598732054
1782814255734812000,2.66581201171875,-0.021979776617884635,0.07427899591475724,0.07339381971121765
1782814255754894000,2.68589404296875,0.08890694846510887,0.07098331537023186,0.06822404325734824
1782814255774975000,2.70597509765625,0.12684358814954758,0.05765329367592931,0.10146773935258388
1782814255795057200,2.72605712890625,0.07071779630184173,0.0513620845772326,0.0340170550879091
1782814255815137800,2.7461376953125,0.040973815423250196,-0.0570173338599503,-0.024415241870190948
1782814255835220000,2.766219970703125,0.004557517173886299,-0.09306246070936322,-0.01989726212224923
1782814255855300900,2.78630078125,-0.17482056033313273,-0.04325673872865736,0.02662320024324581
1782814255875382800,2.8063828125,-0.21908757208287716,-0.030899872915446755,-0.001474063741089776
1782814255895464000,2.8264638671875,-0.0972621043562889,-0.05504318424277007,0.009468240832770243
1782814255915545900,2.8465458984375,0.01767126576900482,-0.06455101730041206,-0.0063832986957859245
1782814255935627000,2.866626953125,0.04455225843191147,-0.07130136834345757,0.01601105007235892
1782814255955709000,2.886708984375,-0.00514087001979351,-0.0032928310003131627,0.027446270996006203
1782814255975791000,2.906791015625,-0.033278584745526314,0.06508592789471149,0.06442438611290417
1782814255995872000,2.9268720703125,0.005050269126892089,0.09619717853851616,0.11046870060032232
1782814256015954000,2.946953857421875,0.06551438243985176,0.08856398024633526,0.11241024485584347
1782814256036035000,2.96703515625,0.14177987599670885,0.05112710677757859,0.11729748717444016
1782814256056117000,2.987116943359375,0.09069909257888793,0.06147767426967621,0.10072556094946339
1782814256076198000,3.007197998046875,0.03341886999905109,0.07393200910799205,0.0763768449768424
1782814256096279800,3.02727978515625,-0.02046411135792732,0.00950944049283862,0.056901351930620146
1782814256116361000,3.04736083984375,-0.10499649800062179,0.027379809030517933,0.014365840148599818
1782814256136443000,3.06744287109375,-0.026147417691349983,-0.04411678962409496,0.007892616413347422
1782814256156524000,3.08752392578125,0.022483049964904783,-0.09641272098533808,-0.02083614127440378
1782814256176606000,3.10760595703125,-0.026910218757390976,-0.09804945534169673,-0.012059225440351292
1782814256196687000,3.12768701171875,-0.09860475113689898,-0.08992642770595848,-0.036313760323496536
1782814256216769000,3.14776904296875,-0.06696282768249512,-0.03004084493331611,0.033827569530950855
1782814256236850000,3.167849853515625,-0.08244447445273399,0.030254049292579292,0.08179548162524589
1782814256256932000,3.18793212890625,-0.07601122653484343,0.03964234762378037,0.07799818996782414
1782814256277013000,3.208012939453125,-0.020365911680459974,0.05354724659658968,0.06565936213480308
1782814256297095200,3.22809521484375,0.017545009040832518,0.06807692640423774,0.09352470792625099
1782814256317175300,3.24817529296875,0.03929273046851158,0.09665434772148727,0.06924210685924627
1782814256337257500,3.268257568359375,0.1196791033476591,0.031582959808781744,0.04542716896976344
1782814256357338400,3.28833837890625,0.02296761861145496,0.047612522785365576,0.0804940071052406
1782814256377420500,3.308420654296875,-0.045886137384176254,0.05400989567227661,0.01735077424352057
1782814256397501400,3.32850146484375,0.04337912299931049,-0.061340969212725756,-0.04183310826686211
1782814256417583400,3.348583251953125,0.01978138979077339,-0.0887876329343766,-0.027554279681434854
1782814256437664500,3.36866455078125,-0.15128244835734367,-0.05172076182179153,-0.013851232556812464
1782814256457746400,3.388746337890625,-0.23101824837327,0.015550108896568417,0.03934238742967136
1782814256477827600,3.40882763671875,-0.20175123735666273,0.03197195912636816,0.030321278443047776
1782814256497909500,3.428909423828125,-0.09223112445175648,-0.042474136983603236,0.010890254726214334
1782814256517990400,3.448990478515625,-0.010666355443000793,-0.03953238444328308,-0.008942527325078845
1782814256538072300,3.469072265625,0.06183189453482627,0.03072093615196645,0.03571443359032273
1782814256558153500,3.489153564453125,0.12880232100188732,0.06336056540682912,0.09679398452104068
1782814256578235400,3.5092353515625,0.07037760456204414,0.09780008369050919,0.09777589909732341
1782814256598316500,3.529316650390625,0.10114157613813876,0.08214629522375762,0.08928833986497484
1782814256618398500,3.5493984375,0.09108078537285327,0.0865848621930927,0.13430456254682502
1782814256638479400,3.569479248046875,-0.019365794727206228,0.09255085792541504,0.1580000479082577
1782814256658561500,3.5895615234375,-0.11695581586360931,0.11405622196458279,0.1276983052827418
1782814256678642400,3.609642333984375,-0.07777239098846912,0.06580657031945884,0.09582829042719676
1782814256698724600,3.629724609375,0.007999766582250595,-0.006220774210989475,0.04786421425780281
1782814256718805500,3.649805419921875,-0.013237667235732078,-0.05194382998794317,0.008353858983237296
1782814256738887400,3.669887451171875,-0.09218377817869186,-0.07662928536795079,-0.021879622445348648
1782814256758968300,3.68996826171875,-0.2055827783435583,-0.014241510516032575,-0.001942777231382206
1782814256779050200,3.71005029296875,-0.12496785740554332,-0.029134251482412218,0.0003967442326247692
1782814256799131400,3.73013134765625,-0.023131869262456892,-0.06693411304466426,0.0016063757507130503
1782814256819213300,3.75021337890625,0.02890636101067066,-0.07153481177315116,-0.04874781955876387
1782814256839294500,3.77029443359375,-0.009671499186754227,-0.0010940788470208643,-0.0021765220551751554
1782814256859376400,3.79037646484375,-0.06077917061150074,0.054494902710244056,0.04439378906772472
1782814256879457500,3.81045751953125,-0.11874971354305744,0.1065722959499806,0.10764906746917403
1782814256899539500,3.83053955078125,-0.114755675470829,0.0872740865662694,0.10241538633308372
1782814256919620600,3.85062060546875,-0.025931729114055634,0.06010558219887316,0.05316060363287106
1782814256939702500,3.87070263671875,0.08483283089399338,0.04622238360121846,0.08048804315533488
1782814256959783700,3.89078369140625,0.11570435449779033,0.05873838549889624,0.1083426118244417
1782814256979865600,3.910865478515625,0.13892682465314865,-0.0002319821249693632,0.05125581119116395
1782814256999946200,3.9309462890625,0.10813245793879031,-0.059725496840104454,0.02277097266134806
1782814257020028400,3.9510283203125,-0.0241337397813797,-0.02461852762363851,0.046086984585365275
1782814257040109300,3.971109375,-0.22099895866215227,0.01237936990596354,0.051474778570933265
1782814257060191500,3.99119140625,-0.22759704175293444,0.02202807273901999,-0.015333744465839117
1782814257080272400,4.0112724609375,-0.0735907213896513,-0.07257913319431245,-0.003484700310602784
1782814257100354600,4.0313544921875,-0.016765256839990614,-0.09315386531986296,-0.033905055213952436
1782814257120435500,4.051435546875,0.0050648821741342545,-0.0631532062664628,-0.028859635792113838
1782814257140517400,4.071517333984375,0.011119359907507896,-0.011549714148789643,-0.01454726113011129
1782814257160598500,4.0915986328125,-0.006014145722985267,0.0012242810979485512,0.031574758236017075
1782814257180680400,4.111680419921875,0.05060439807772636,0.015033903002738951,0.05473296751612797
1782814257200761600,4.13176171875,0.07525193260014057,0.009849559167400003,0.0684070899403654
1782814257220843500,4.151843505859375,0.05049275439679622,0.029100568408519028,0.11685535116381943
1782814257240924400,4.17192431640625,-0.018353987336158752,0.06828538152314723,0.10364106480367481
1782814257261006300,4.19200634765625,-0.027301848423480986,0.03480784013941884,0.06926987164900637
1782814257281087500,4.21208740234375,-0.10040157142579555,0.01947678082101047,0.03843560218252241
1782814257301169400,4.23216943359375,-0.15223171190619467,0.010744316050037742,0.0439369304120075
1782814257321250600,4.25225048828125,-0.10866846451163291,-0.005204436775296926,0.0592528560933657
1782814257341332700,4.272332763671875,-0.03221826203763485,0.009793079739809035,0.05977374729546718
1782814257361413600,4.29241357421875,0.05014028769731521,-0.014827420645207166,0.04190010908846743
1782814257381495800,4.312495849609375,0.05603051477968692,-0.01231105391010642,0.04448854554593563
1782814257401576700,4.33257666015625,-0.005403320348262786,0.021289164005219935,0.04546732745021581
1782814257421659000,4.352658935546875,-0.01504442439675331,0.043422889075800775,0.060552640979783606
1782814257441739800,4.37273974609375,0.013238251757621765,0.08144735317416489,0.06323687509507872
1782814257461821700,4.39282177734375,0.048717561417818064,0.06340067822150885,0.0612150047454983
1782814257481902800,4.41290283203125,0.021368951243162154,0.07130180673487484,0.04100228346590884
1782814257501984800,4.43298486328125,0.04387596660554409,0.026130174295604228,0.0030511403320822865
1782814257522065700,4.453065673828125,0.07944295454919338,0.009001929362118244,-0.0008434102878905832
1782814257542147800,4.47314794921875,0.0189531222730875,0.018478709694370626,0.04139656174681149
1782814257562228700,4.493228759765625,-0.06787292826473712,0.038900004823878405,0.023095701970532536
1782814257582310700,4.513310546875,-0.03373042016625404,-0.029823987312242388,-0.03960404317369684
1782814257602391800,4.533391845703125,0.012781740161776542,-0.1086744558610022,-0.02140550212757662
1782814257622473700,4.5534736328125,-0.14173720589876174,-0.03994169589653611,0.029833330529322848
1782814257642555000,4.573554931640625,-0.19162556466162203,-0.008277925936505198,0.0322628500980325
1782814257662636800,4.59363671875,-0.09510697214901447,0.013901976363360881,0.05168137052631937
1782814257682717700,4.6137177734375,0.0068301382809877395,-0.013526859440654515,0.09286310221236199
1782814257702800000,4.6337998046875,0.11116612654626369,-0.05455423168204725,0.08682304572998546
1782814257722880800,4.653880859375,0.08228022380173206,0.005606149443984031,0.10099084255583583
1782814257742963000,4.673962890625,0.04803133271932602,0.058642596974223846,0.12984770186897365
1782814257763043600,4.694043701171875,-0.0649590866446495,0.12333558002859353,0.11583598152082412
1782814257783125800,4.714125732421875,-0.04664952297210693,0.07570954017452895,0.06981244495995342
1782814257803206700,4.73420654296875,0.01173310789167881,0.0257060305994004,0.08924016247484833
1782814257823288600,4.75428857421875,0.016314005941152572,0.0348548210863024,0.09649715699893421
1782814257843369700,4.77436962890625,-0.02442775429189205,-0.006772416744381189,0.0534162497612182
1782814257863451600,4.79445166015625,-0.05675824453234672,-0.042172158362343906,-0.013861863548681139
1782814257883532800,4.81453271484375,-0.03526420560479164,-0.09027655631788074,-0.037943316020397466
1782814257903614700,4.83461474609375,-0.008763152170181273,-0.09479651796035468,-0.046652920505590736
1782814257923695900,4.85469580078125,-0.0052712184011936185,-0.09727598675116896,-0.03436325644338503
1782814257943777800,4.87477783203125,-0.044292146191000935,-0.06334975175186991,-0.050705054573761295
1782814257963859000,4.89485888671875,0.0180208098590374,-0.035776392910629506,-0.024487886981293557
1782814257983940900,4.91494091796875,0.009310849180817603,-0.014098375718295574,0.018817330531589686
1782814258004021800,4.935021728515625,-0.08159574866890906,0.04225063042603433,0.04081746495091356
1782814258024103700,4.955103759765625,-0.11637129397392272,0.09714483465217054,0.07537516625416464
1782814258044185600,4.975185546875,-0.0026297639816999434,0.07561148662753403,0.11866320430338383
1782814258064266800,4.995266845703125,0.0936328079432249,0.06168839441090822,0.13241921459110453
1782814258084348700,5.0153486328125,0.08103986835181713,0.03447656235843897,0.12093356038816272
1782814258104429800,5.035429931640625,0.04382160606980324,0.024912834395095704,0.11058397927675395
1782814258124511700,5.05551171875,0.029801264023780822,0.013291443249583243,0.057808429438713935
1782814258144592600,5.075592529296875,0.07930091572999953,-0.025236001934856176,0.10735495249396189
1782814258164674800,5.0956748046875,0.07371522455215454,0.017936273380741476,0.07479414236266166
1782814258184755700,5.115755615234375,0.11530337248146533,-0.08978855360522865,0.028463658744469284
1782814258204838000,5.135837890625,0.006392915907502174,-0.13920162300653754,-0.018863599092420188
1782814258224918800,5.155918701171875,-0.23479601334631442,-0.0557866230212152,-0.01888789328346029
1782814258245001000,5.1760009765625,-0.3379629578322172,0.002980477115511894,0.013336122641526163
1782814258265081600,5.19608154296875,-0.2101186682075262,0.03074548607133329,0.026557898188382386
1782814258285163500,5.21616357421875,0.032277883270382876,-0.042399391246959565,0.012481880432367323
1782814258305244700,5.23624462890625,0.18198212252557278,-0.12474559295698999,-0.0077880600603297346
1782814258325327400,5.256327392578125,0.15415420440137387,-0.03297434110194444,0.019614344394486397
1782814258345408500,5.276408447265625,0.031130466800928114,0.04540938671790063,0.0658710503904149
1782814258365490400,5.296490478515625,-0.008716390419006348,0.03445003967769444,0.029283578558918087
1782814258385571600,5.316571533203125,0.03763970256447792,0.00017499124072492122,0.018878084275498985
1782814258405653500,5.336653564453125,0.06498831273913383,0.009313771790266037,0.054643279938679186
1782814258425734400,5.356734375,-0.0650116936147213,0.051714624341949816,0.08593175031291321
1782814258445816600,5.376816650390625,-0.06907762787938118,0.0641598260257393,0.08422498292764648
1782814258465897500,5.3968974609375,-0.0359977805763483,0.02148563642539084,0.06713871397236362
1782814258485979600,5.416979736328125,-0.07330605922937393,-0.03998604649491608,0.016182031858246772
1782814258506060500,5.437060546875,-0.08693477160930634,-0.05782572763338685,-0.017608447932172564
1782814258526142700,5.457142822265625,-0.03019990795254707,-0.06087357089668512,0.00928341318462044
1782814258546223400,5.477223388671875,0.008707622590661048,-0.08755641063898802,-0.015738452809210865
1782814258566305300,5.49730517578125,-0.01956394764780998,-0.07916450293399394,-0.06014455336923711
1782814258586386400,5.517386474609375,-0.04630348601341247,-0.059937093764171,-0.027498174713179467
1782814258606468400,5.53746826171875,-0.017055764219164847,0.00953683995641768,0.005923508297465741
1782814258626549500,5.557549560546875,0.03521627480983734,0.017144465415924785,0.06698176071182824
1782814258646631400,5.57763134765625,0.03382452819049358,-0.001306917880102992,0.02710213373345323
1782814258666712600,5.597712646484375,0.020436638829112053,-0.015103314977139234,0.025090739112114534
1782814258686794500,5.61779443359375,-0.006097147831320762,-0.022485241921991108,0.046966041575372215
1782814258706876400,5.63787646484375,0.009374562066793442,-0.010372194802016019,0.05674958630185574
1782814258726957600,5.65795751953125,-0.04444295283854007,-0.001233341187238693,0.03246759715620428
1782814258747039500,5.67803955078125,-0.07188099486231804,0.030796777867153284,0.06315571788395755
1782814258767120600,5.69812060546875,0.017343348988890648,0.0038639819517731666,0.03450889372546226
1782814258787202600,5.71820263671875,0.14669862769842146,-0.05756634604483842,0.03627329131579026
1782814258807283500,5.738283447265625,-0.11575520790219307,-0.018648147977143526,0.04995366081772372
1782814258827365400,5.758365478515625,-0.32290684299767014,0.04169643060937524,0.022856696449732407
1782814258847446500,5.778446533203125,-0.22996669349372387,0.07769501490332185,0.03624530733032152
1782814258867528400,5.798528564453125,0.020043840119242668,0.0215717803388834,0.04074932248499244
1782814258887609600,5.818609619140625,0.2146668330311775,-0.05601758223287761,0.02345734749031253
1782814258907691500,5.83869140625,0.25622224773466584,-0.04833214229680598,0.007204880744358524
1782814258927772400,5.8587724609375,0.1719546495079994,-0.00312573080509901,0.0648667595855426
1782814258947854600,5.8788544921875,0.06690496001541614,0.05389058014154434,0.05954650527769699
1782814258967936500,5.8989365234375,0.029978374156355857,0.04670980179198086,0.025161849853256715
1782814258988017700,5.919017578125,0.08938099571764468,-0.010957885735481976,0.016508176806382835
1782814259008099600,5.939099609375,0.061708560416102405,0.005718450712040067,0.06530034696352667
1782814259028180500,5.959180419921875,-0.06524491784870624,0.058116600338742136,0.12618648508084007
1782814259048262700,5.9792626953125,-0.14795944141447542,0.053555064576864236,0.09616342239938676
1782814259068343300,5.99934326171875,-0.1897837361872196,-0.014089023368060588,0.0501088148468174
1782814259088425500,6.019425537109375,-0.14682254633903502,-0.03876308057121932,0.057092353591229765
1782814259108506400,6.03950634765625,-0.07099135254621505,-0.09182385882511734,0.06208381433612667
1782814259128588500,6.059588623046875,-0.11496201169788836,-0.08188603685237467,0.06455512721994891
1782814259148669400,6.07966943359375,-0.2101572466522455,-0.04219992315210402,0.05385127104446292
1782814259168751400,6.09975146484375,-0.21385843925774095,-0.001970569420605898,0.03275447867303155
1782814259188832500,6.11983251953125,-0.0916851810067892,0.000041281858459115026,0.02995146788312122
1782814259208914400,6.13991455078125,0.008295534658432007,-0.014780366633087396,0.03928574360529892
1782814259228995600,6.15999560546875,0.052236383193731306,0.032298560732230544,0.01186019573691301
1782814259249077500,6.180077392578125,0.027425182542204857,0.061044616614654656,0.029326175591628995
1782814259269159700,6.20015966796875,0.027460838377475736,0.0631599282681942,0.03403294677678496
1782814259289240600,6.220240478515625,0.12242460266351698,0.046118923226743935,0.0016912775551900267
1782814259309322500,6.240322509765625,0.17560908036231992,0.028463585679233072,0.015557890344224869
1782814259329403000,6.26040283203125,0.09942600439190864,0.09800094002485275,0.06569198576277122
1782814259349484800,6.28048486328125,0.04109364241063595,0.09204868055693805,0.003328011911548674
1782814259369565700,6.300565673828125,0.07377659935057163,0.004235445612668991,0.004203296908736229
1782814259389647600,6.320647705078125,-0.01399871473610401,0.026972981795296072,-0.000826477419398725
1782814259409728800,6.340728759765625,-0.08752572323977947,0.0006970423534512519,-0.01720333773000166
1782814259429810700,6.360810791015625,-0.10799275720715522,-0.008583046362921594,-0.05754868252398446
1782814259449891800,6.380891845703125,-0.055228550747036934,-0.03840557237043977,-0.015534911327436566
1782814259469973800,6.400973876953125,-0.047394788381457324,-0.04906958972588181,0.01793928732173517
1782814259490055000,6.421054931640625,-0.025169512569904327,-0.0824560187600553,0.001590118735656142
1782814259510136800,6.44113671875,-0.020237316864728926,-0.04137662407048046,-0.02116849676761776
1782814259530218000,6.461218017578125,0.0005400982260704041,-0.038849443680420516,0.007025752184633165
1782814259550300000,6.4812998046875,-0.026925416326522827,-0.010325652246549724,0.023519772601500153
1782814259570380800,6.501380859375,-0.05666647459566593,0.029400428137928244,0.07446964138234034
1782814259590463000,6.521462890625,-0.044127895539999004,0.02242401325404644,0.08485915264533832
1782814259610545000,6.541544921875,0.008287351351976394,0.03346782370731234,0.09356167893577366
1782814259630625800,6.561625732421875,0.0036100071907043457,0.03138809482380748,0.08571091063646599
1782814259650707700,6.581707763671875,0.004792494973540306,0.041562355900928376,0.07514960473682732
1782814259670788900,6.601788818359375,0.00455225647687912,0.004400646111741662,0.05524192168526351
1782814259690870800,6.621870849609375,-0.00009761515557765961,0.011432736705616117,0.027798838160187005
1782814259710951700,6.64195166015625,0.00023380875587463378,-0.048990825401246545,0.04895513303335756
1782814259731033900,6.662033935546875,-0.036522681233286856,0.011856222814694046,0.04600348015353083
1782814259751114800,6.68211474609375,-0.06903378873765469,0.00751293291337788,0.04922499948330223
1782814259771197000,6.702197021484375,-0.1398345871478319,0.006034019467234611,0.0026949381723999975
1782814259791277800,6.72227783203125,-0.11463760204911232,0.00026266952417790886,-0.003237666746973991
1782814259811360000,6.742360107421875,-0.016973931154608726,0.027228929317742585,0.03138550100792199
1782814259831441000,6.76244091796875,0.05679448488950729,0.028520868824422358,0.08036405144948512
1782814259851522800,6.782522705078125,0.19376842190921306,-0.0038528029706329106,0.059873344345577055
1782814259871603700,6.802603759765625,0.3303378697812557,-0.06746785459518433,0.04455790272140875
1782814259891685600,6.822685546875,0.2848211502313614,0.014412629299238323,0.11904621227160095
1782814259911766800,6.842766845703125,-0.02135433819591999,0.10799180735908448,0.16215199822224677
1782814259931848700,6.8628486328125,-0.15787176361978053,0.09980798944681882,0.08820802468182519
1782814259951929900,6.882929931640625,-0.09233809195756912,0.004426365074887872,0.09893306977581232
1782814259972011800,6.90301171875,-0.127687637758255,0.019656959693506358,0.14672091259546577
1782814259992093700,6.92309375,-0.22965806593596935,0.0657624389167875,0.11645679856659844
1782814260012174800,6.9431748046875,-0.29772622451186176,0.07781359978169203,0.06645290539897977
1782814260032256800,6.9632568359375,-0.17954174363613126,0.06675239980220794,0.04963334282217547
1782814260052338000,6.983337890625,0.03960720324516296,-0.021312179554626345,0.051920832704845814
1782814260072419800,7.003419921875,0.13889233786165714,-0.045893516973033545,0.024757278507202864
1782814260092501000,7.0235009765625,0.052747839847207066,0.0025062106672674414,0.014450915483012795
1782814260112583000,7.0435830078125,-0.05728840588629246,0.05228913629427552,0.027664617321267723
1782814260132663800,7.063663818359375,0.06703823100626469,0.04290668318197131,-0.02846552190799266
1782814260152745700,7.083745849609375,0.2878980734586716,-0.02850873999521136,-0.020144688411522657
1782814260172827000,7.103826904296875,0.3024924160003662,-0.0843597334895283,-0.04847688452973962
1782814260192908800,7.12390869140625,0.09575169979333877,-0.05199103013053536,-0.05001367477611638
1782814260212989700,7.14398974609375,-0.17156828053891657,0.012964622448012232,0.01080179099147208
1782814260233071900,7.16407177734375,-0.323548648032546,0.02707666136547923,0.02372674814937636
1782814260253152800,7.18415283203125,-0.1466711551696062,-0.012010390463098883,-0.013413106001028791
1782814260273235000,7.20423486328125,0.03382686627805233,-0.12152012810446321,0.01163361130626872
1782814260293315800,7.22431591796875,-0.059632923185825346,-0.07004260045401751,0.024613248660322277
1782814260313397800,7.244397705078125,-0.17153087113797663,0.01124671261422336,0.0772985903311055
1782814260333478700,7.264478759765625,-0.2647317174047232,0.0611576485350728,0.10048123993272892
1782814260353560600,7.284560546875,-0.22092647794783113,0.02760930693745613,0.06182252391828224
1782814260373642800,7.304642822265625,-0.08483458445966244,0.0044564679522067305,0.0898048562860582
1782814260393723400,7.324723388671875,0.005598550659418106,0.05561871910840273,0.10523632550532928
1782814260413805600,7.3448056640625,0.018757891961932182,0.10809263738505541,0.16167659926284103
1782814260433886500,7.364886474609375,0.09916764571666717,0.05441007397100329,0.05188065595808439
1782814260453968600,7.38496875,0.19198095397055148,-0.010616890278086065,0.009750711035961285
1782814260474049500,7.405049560546875,0.14027707021832464,0.03429236489795148,0.056632681923918425
1782814260494131500,7.42513134765625,0.03670505206286907,0.07283091599829494,0.017699459817027672
1782814260514212600,7.445212646484375,0.004711246430873871,-0.0027422113802284,-0.034554139372985807
1782814260534294500,7.46529443359375,0.0007014262676239013,0.007024857135489583,0.06255508510968648
1782814260554375700,7.485375732421875,-0.06278466521501541,-0.012654825846478342,0.020760025564581154
1782814260574457600,7.50545751953125,-0.13176409341692924,-0.04309716425277293,-0.050554156594676894
1782814260594538800,7.525538818359375,-0.09948211849331855,-0.016147563333064316,-0.012763875711522996
1782814260614620700,7.54562060546875,-0.06160919169485569,-0.02590498723760247,0.05074076520795934
1782814260634701600,7.56570166015625,0.003660276073217392,-0.04810717443451285,0.03700322215869091
1782814260654783500,7.585783447265625,0.08619418237507342,-0.051085313462465996,-0.0019466679552104323
1782814260674864600,7.60586474609375,0.08344517592787742,-0.004518646468222141,0.04305264925761148
1782814260694946600,7.625946533203125,-0.0020125088661909103,0.02719035087302327,0.07084082902646623
1782814260715027500,7.64602734375,-0.08176350645124912,0.07435936767458916,0.10269361875257454
1782814260735109600,7.666109619140625,-0.05190145215094089,0.07088708845414221,0.1436374043637421
1782814260755190500,7.6861904296875,-0.0007189619243144989,0.04421893482431769,0.1324452714809682
1782814260775272700,7.706272705078125,-0.04567570950388908,0.013232917995378374,0.10188246676647103
1782814260795353600,7.726353515625,-0.13566694607436655,0.03254574042633176,0.05488673330573365
1782814260815435500,7.746435546875,-0.07911328420341014,-0.027567075230926275,0.03886873290278017
1782814260835517700,7.766517578125,0.001007131215929985,-0.05749079659059644,-0.014067359525524079
1782814260855598600,7.7865986328125,0.0494569816082716,-0.08519004683382808,-0.03155409904047846
1782814260875680800,7.8066806640625,0.042834933120012283,-0.05928476733528077,-0.0016694310495629905
1782814260895761400,7.826761474609375,-0.010291676911711692,-0.008426029170304536,0.01079986389586702
1782814260915843600,7.846843505859375,-0.015432546931505203,0.004337152421474456,-0.029856994532700628
1782814260935924500,7.866924560546875,0.08537818981707096,-0.020827757038548587,-0.03200203460422344
1782814260956006400,7.88700634765625,0.08731295727193356,0.0028803777419030663,-0.04629315641564317
1782814260976087600,7.907087646484375,0.09220540548861027,0.0380689608272165,-0.015770354917971418
1782814260996169500,7.92716943359375,0.11833587204515933,0.015840397080034017,-0.03991742910495959
1782814261016250600,7.947250732421875,0.20221359417140483,-0.0513155420217663,-0.08261414106437005
1782814261036332500,7.96733251953125,0.12671850046515465,0.01243628772497177,0.004171595729375258
1782814261056413700,7.98741357421875,-0.020850480327010153,0.05579363728389144,0.0241467362602707
1782814261076495600,8.00749560546875,-0.1465846459299326,0.05899762095697224,-0.0025345234462991356
1782814261096576800,8.02757666015625,-0.22980127379894255,0.004231134763732552,0.010160205152304843
1782814261116658700,8.04765869140625,-0.268005039986968,0.040017391481250525,0.17439002342876045
1782814261136739600,8.067739501953126,-0.34598610529005525,0.002928381602093577,0.0727460233269725
1782814261156821500,8.087821533203124,-0.3688905955374241,0.03288951236270368,0.05602005731775425
1782814261176902700,8.107902587890624,-0.21690847447812556,0.042824850117415186,0.1569433236632496
1782814261196984600,8.127984619140625,-0.04727496139407158,-0.0010696019928902387,0.1442736838401295
1782814261217065500,8.1480654296875,0.13446809167861937,-0.05076557998880744,0.06893289477960206
1782814261237147600,8.168147705078125,0.13085282379090785,-0.056406216224282976,0.04988604807476513
1782814261257228500,8.188228515625,0.05534720869064331,0.03445668861418962,0.055181414536526426
1782814261277310700,8.208310791015625,0.03922258784174919,0.06748034875057637,0.11091458120429888
1782814261297391600,8.2283916015625,0.13729367049336433,0.023287425150349733,0.04261090597263537
1782814261317474000,8.24847412109375,0.22868074533641336,-0.02614193779863417,-0.012125669139530509
1782814261337556200,8.26855615234375,0.17530746706724165,-0.012725552995130418,-0.01965340689639561
1782814261357637000,8.28863720703125,-0.025602643290162087,0.05733027226664126,0.006962605554237961
1782814261377719000,8.308718994140625,-0.19108838904500006,0.04061586883105337,0.04236154345460236
1782814261397800200,8.32880029296875,-0.24923838019669053,0.035161914274096484,0.04060251615913585
1782814261417882000,8.348882080078125,-0.24583587827682493,0.05664660085141658,0.03200646418416873
1782814261437963000,8.368962890625,-0.18373510367274284,0.07803001901134848,0.05481335754226893
1782814261458045000,8.389044921875,-0.0658826312303543,0.08808131129592657,0.0704367143381387
1782814261478126000,8.4091259765625,0.04019757035374641,0.04482084624022245,0.050433041832502926
1782814261498208000,8.4292080078125,0.0904261208564043,0.06015212475433945,0.10473144472311251
1782814261518289200,8.4492890625,0.09507365440130233,0.080154683015123,0.13709111539227886
1782814261538371000,8.46937109375,0.06386486166715621,0.09354673709496855,0.12464316462897695
1782814261558452200,8.4894521484375,0.06008183599710464,0.020059549145027993,0.06931042285510339
1782814261578534100,8.5095341796875,0.051480011868476866,-0.015748042621463537,-0.006491033386578783
1782814261598615300,8.529615234375,0.02768821739256382,-0.039451062835380434,0.013015457586105911
1782814261618697200,8.549697265625,-0.0772720402508974,0.015870646087825298,0.021762489738548173
1782814261638777900,8.56977783203125,-0.06486205601096152,-0.008990823446214198,-0.012242646582704037
1782814261658860300,8.5898603515625,-0.03405599885880947,-0.025353125508502123,0.009039841086557135
1782814261678941000,8.60994091796875,-0.0715595078229904,0.00017659867592155932,0.00240719813904725
1782814261699023000,8.630023193359374,-0.05885550907254219,0.012638897624984383,-0.01888789328346029
1782814261719104000,8.65010400390625,-0.05268412696123123,0.022278905694931746,-0.07110689608412794
1782814261739186200,8.670186279296875,0.040888475227355954,-0.008612930044531822,-0.05911183105432428
1782814261759267000,8.69026708984375,0.07592939347028732,-0.02172996657527983,-0.041875851430045435
1782814261779349000,8.710348876953125,0.14436346274912357,-0.024534502601996064,-0.028351795867830515
1782814261799430100,8.73043017578125,0.08420096273124217,-0.02839307772628963,-0.026162286466918885
1782814261819512000,8.750511962890625,-0.0978635773807764,0.00027560207098722457,-0.022947178611624985
1782814261839593200,8.77059326171875,-0.08280746254622935,-0.008203107134625316,0.023002233267109838
1782814261859675100,8.790675048828126,-0.03791384333074092,-0.000912146408855915,0.09208292075325734
1782814261879756000,8.810756103515626,-0.003163432466983795,-0.004533405645936728,0.11469601770546287
1782814261899838000,8.830837890625,-0.03226853092014789,-0.026381445642933248,0.08793647773144767
1782814261919919000,8.850919189453125,-0.03195230457782745,-0.042005569623783226,0.06426226348690688
1782814261940001000,8.8710009765625,-0.04584112919867039,-0.04102386511005461,0.05721211664653383
1782814261960083000,8.8910830078125,-0.04592939200401306,-0.057347588727623224,0.0484106143604964
1782814261980164000,8.9111640625,-0.15422376250624656,-0.034330431886017324,0.05893641055533662
1782814262000246000,8.93124609375,-0.1576648428708315,-0.034263942521065474,0.0620020360704977
1782814262020327200,8.9513271484375,-0.0988093337982893,-0.01551321095228195,0.04442164518903009
1782814262040409000,8.9714091796875,-0.07011106258034706,-0.010628288454934954,0.017011669349111615
1782814262060490200,8.991490234375,0.0020540099203586576,0.02662051509581506,0.04496017251252196
1782814262080572200,9.011572265625,0.00859422534406185,0.015240166164562105,0.04351879633148201
1782814262100653000,9.031653076171875,0.08406418460905551,0.027307328316196797,0.043553538851300255
1782814262120735200,9.0517353515625,0.16366729815602302,0.014733458751440047,0.04999663230977021
1782814262140816000,9.07181591796875,0.2450321606785059,0.012355112247541546,0.04632790806861594
1782814262160898000,9.09189794921875,0.08772387616038321,0.05797602282427251,0.07201802871283143
1782814262180979000,9.11197900390625,-0.10316577544212341,0.1138970128148794,0.07224385509165003
1782814262201061000,9.13206103515625,-0.00165828860104084,0.08898045209273696,0.0724322720695287
1782814262221142000,9.15214208984375,0.18644085550010203,0.004478972044959664,0.1176652062419802
1782814262241224000,9.172223876953124,0.05449380673170089,-0.030329744877293705,0.05933243326875381
1782814262261305000,9.19230517578125,-0.21720891872942447,0.011760142029076813,-0.048777283115265885
1782814262281387000,9.212386962890625,-0.2608902395457029,0.08374342822209001,0.030769634131900963
1782814262301468200,9.23246826171875,-0.11257833143174648,0.034736090077459814,0.043048283609747884
1782814262321550600,9.252550537109375,0.10936755269169807,-0.08595043674707412,-0.005588449390511959
1782814262341631500,9.272631591796875,0.15989362483620642,-0.10769026712924241,-0.05013095361338928
1782814262361713400,9.29271337890625,0.05840542721748352,-0.025361235749721527,-0.02621398012153804
1782814262381794600,9.312794677734376,-0.08346855680346489,0.03805193662717938,-0.0033932226348668336
1782814262401876500,9.33287646484375,-0.05508300479650497,0.004355272600054741,-0.0016702347671613096
1782814262421957400,9.352957275390626,0.004339490509033203,-0.0408192093834281,-0.0033587906423024833
1782814262442039600,9.37303955078125,0.020971476358175277,-0.060966363746672865,-0.0063099685980938375
1782814262462120400,9.393120361328124,0.015064298141002654,0.0029673984382301566,0.06112556376322172
1782814262482202600,9.41320263671875,-0.005175941333174706,0.014905235121771693,0.10397201379109174
1782814262502283500,9.433283447265625,-0.07215396658480167,-0.015486249880120158,0.05656959009245038
1782814262522365700,9.45336572265625,-0.10611059672236442,-0.0293380304262042,0.026355352220451458
1782814262542446600,9.473446533203125,-0.06657295158207416,-0.050371246908977624,-0.0026633831235114485
1782814262562528500,9.493528564453126,-0.019501403805613517,-0.07429302444010973,0.014272188782086595
1782814262582609400,9.513609375,-0.0507943676918745,-0.045971550645306704,0.03415282856309786
1782814262602691300,9.53369140625,-0.10647650742530822,-0.013775354309007525,0.017749792631622404
1782814262622772500,9.5537724609375,-0.05502396808564663,0.03735657477416098,0.031831746938079594
1782814262642854400,9.5738544921875,0.04726911617517471,-0.008125146527588367,0.03317734372760169
1782814262662935600,9.593935546875,0.17031798821687696,-0.023682635013014076,0.03671475147297606
1782814262683017500,9.614017578125,0.20382512102127073,-0.019617650596424938,0.03463001762079075
1782814262703098600,9.6340986328125,0.09738485395312309,0.0426352458294481,0.10260382157727144
1782814262723180500,9.6541806640625,-0.0074228434771299355,0.10583009928055107,0.09297403350723907
1782814262743262500,9.674262451171876,-0.06376432390213012,0.07731266452223062,0.0529670903547667
1782814262763343600,9.694343505859376,0.044857378858327863,-0.0009517477668821811,0.06654604530883952
1782814262783425500,9.714425537109374,0.016786299628019332,-0.026339798458293078,0.09723847688552922
1782814262803506700,9.734506591796874,-0.23263620496392248,-0.010023600560054182,0.0901015194113832
1782814262823588600,9.754588623046875,-0.30260639776885506,-0.02506955932676792,-0.008062091228738426
1782814262843669500,9.77466943359375,-0.12216916659772395,-0.04796688918098807,-0.0021512140839826314
1782814262863751400,9.79475146484375,0.12806816150844097,-0.11443528441004454,0.03179582624132745
1782814262883832600,9.81483251953125,0.2388882510960102,-0.1813078034605831,-0.01889963852018118
1782814262903914500,9.83491455078125,0.09298924934267998,-0.09727437931597233,0.009425534202205016
1782814262923995400,9.854995361328125,-0.13438275148272513,-0.019769991613924502,0.044215920883323996
1782814262944077600,9.87507763671875,-0.21993571334481238,0.006482713082805276,0.05112854068283923
1782814262964158500,9.895158447265626,-0.08591302734613418,-0.031134046997502444,0.052906564939720555
1782814262984240600,9.91524072265625,0.04103986639678478,-0.025555077821388838,0.1096584436633624
1782814263004321500,9.935321533203124,-0.01579904215633869,0.007392083012685179,0.11927973789968527
1782814263024403500,9.955403564453125,-0.06204466050267219,0.03504230648241937,0.0993974358845502
1782814263044484600,9.975484619140625,-0.05858429091572761,0.036862872973084444,0.1173471258692909
1782814263064566500,9.99556640625,0.01454465818107128,0.010466156695783138,0.11729020805028266
1782814263084647400,10.0156474609375,0.13090133910775184,-0.03559219545014202,0.05436233497229404
1782814263104729300,10.035729248046875,0.13312778298556804,-0.050487274504080415,0.03676818956010975
1782814263124810500,10.055810546875,-0.0011485855132341385,-0.03673858900628984,0.014757433282071724
1782814263144892400,10.075892333984376,-0.21813713949024677,0.07282572836652397,0.043649117313418535
1782814263164973600,10.0959736328125,-0.22888182086646555,0.10563377299085258,0.10750848082154989
1782814263185055500,10.116055419921874,-0.08638941268622875,0.08756262118406594,0.08401787038245238
1782814263205136600,10.13613671875,0.09847031110227107,0.016682839253544808,0.007879492070293053
1782814263225218600,10.156218505859375,0.1882026044756174,-0.017820684177055953,-0.017557557995151726
1782814263245299500,10.176299560546875,0.1703419536143541,-0.014729586293920873,-0.010228457216080277
1782814263265381600,10.196381591796875,0.14162380865216254,0.02255553067922592,-0.033183590805297716
1782814263285462500,10.216462646484375,0.14789572852849958,0.026043153599277138,-0.017734184070536865
1782814263305544700,10.236544677734376,0.030626608932018278,0.011828458024933933,-0.004866665321448817
1782814263325625300,10.256625244140626,-0.16407061825990676,0.029003610840067265,0.025328511657053604
1782814263345707500,10.27670751953125,-0.28795418756008145,0.01812909253910184,0.040320265151653434
1782814263365788400,10.296788330078124,-0.27373919972479344,0.020651962080225347,0.003323025209177285
1782814263385870300,10.316870361328125,-0.1261801558047533,0.03820551975369453,0.05325302202352322
1782814263405951500,10.336951416015625,-0.1022287868529558,0.04923552087731659,0.05349829288832843
1782814263426033400,10.357033447265625,0.059574470996856685,0.015446721587330101,0.028057516495836897
1782814263446114600,10.377114501953125,0.05586451056301593,0.07241714756563306,-0.05617867281241342
1782814263466196500,10.397196533203125,0.4625181427836418,0.08245075806304812,0.1764008152619004
1782814263486277600,10.417277587890625,0.26541911514699457,0.041328620210289956,0.19394427166646344
1782814263506359600,10.437359619140626,-0.2634738262981176,0.05050429870411753,-0.12296706637660972
1782814263526440400,10.4574404296875,-0.23754326622784136,-0.041327816492691634,-0.12357230226076207
1782814263546522400,10.4775224609375,0.06164718561768531,-0.06390950452648103,0.13354117695889434
1782814263566603500,10.497603515625,0.009836918881535529,-0.10051555319428443,0.10771352927382104
