time,seconds_elapsed,z,y,x
1782814109521002000,0.074001953125,-0.008713294751942158,-0.011858604848384857,0.045717280358076096
1782814109541084200,0.094084228515625,-0.0031171508599072695,0.020438184961676598,0.10080532729625702
1782814109561166000,0.114166015625,-0.01343104150146246,0.04701333865523338,0.1192874014377594
1782814109581248000,0.134248046875,-0.002818344160914421,0.07438131421804428,0.11248941719532013
1782814109601330000,0.154329833984375,-0.0012269363505765796,0.05854104831814766,0.06835311651229858
1782814109621412000,0.174412109375,-0.01263410784304142,0.020053301006555557,0.018823768943548203
1782814109641494000,0.194493896484375,-0.012716016732156277,0.02751162089407444,0.003831196343526244
1782814109661576000,0.214575927734375,-0.00005501310806721449,0.038174763321876526,0.028054341673851013
1782814109681658000,0.234658203125,-0.010623359121382236,0.03878882899880409,0.03316514566540718
1782814109701740000,0.254739990234375,-0.023105187341570854,-0.0044128200970590115,0.0177670419216156
1782814109721822000,0.274822021484375,-0.01470003742724657,0.04722266271710396,0.016122931614518166
1782814109741905000,0.29490478515625,0.004824635572731495,0.06651032716035843,0.021188460290431976
1782814109761987000,0.314987060546875,0.007448727265000343,0.0271160788834095,0.005784681066870689
1782814109782069000,0.335069091796875,-0.0018890611827373505,0.010920609347522259,-0.01221894659101963
1782814109802151000,0.35515087890625,-0.001416748738847673,0.06130917742848396,0.015944696962833405
1782814109822233000,0.375233154296875,0.017292294651269913,0.09716475754976273,0.07375989109277725
1782814109842315000,0.39531494140625,0.0331418402493,0.08133856952190399,0.0965673178434372
1782814109862397000,0.41539697265625,0.03324243798851967,0.013495761901140213,0.03359197825193405
1782814109882478800,0.435478759765625,0.032697271555662155,-0.005856990348547697,-0.00807180255651474
1782814109902561000,0.45556103515625,0.04836679622530937,0.03368225693702698,0.05824273079633713
1782814109922643000,0.475642822265625,0.05365000665187836,0.021079301834106445,0.09523714333772659
1782814109942724900,0.495724853515625,0.031432099640369415,-0.005323707591742277,0.07816338539123535
1782814109962807000,0.51580712890625,0.017791911959648132,-0.004469279199838638,0.04232431575655937
1782814109982889000,0.535888916015625,0.03464294224977493,0.00034745270386338234,0.022305896505713463
1782814110002971000,0.555970947265625,0.04563901573419571,0.008121620863676071,0.006995690055191517
1782814110023053000,0.576052978515625,0.033235326409339905,-0.004264302086085081,-0.031761251389980316
1782814110043136000,0.596135986328125,0.030161036178469658,-0.005036958493292332,-0.04867606610059738
1782814110063218000,0.616218017578125,0.04194589704275131,-0.009486611932516098,-0.036809440702199936
1782814110083299800,0.6362998046875,0.047169800847768784,0.0012621167115867138,-0.03964052349328995
1782814110103381800,0.6563818359375,0.034047164022922516,-0.02412080578505993,-0.03560470789670944
1782814110123464000,0.6764638671875,0.028938503935933113,-0.010262563824653625,-0.012342223897576332
1782814110143545900,0.6965458984375,0.04187840223312378,0.018045810982584953,0.02896881476044655
1782814110163627800,0.716627685546875,0.04232786223292351,-0.004967117682099342,0.03300728648900986
1782814110183709400,0.73670947265625,0.02796371467411518,0.0006238673813641071,0.01895904541015625
1782814110203791400,0.756791259765625,0.005353352054953575,-0.013126948848366737,0.02282251976430416
1782814110223873500,0.77687353515625,-0.004082126542925835,-0.015610313042998314,0.032335065305233
1782814110243955700,0.796955810546875,0.0031901285983622074,0.03197414427995682,0.01982858031988144
1782814110264037600,0.81703759765625,0.008747675456106663,0.01770644821226597,0.006903715431690216
1782814110284119600,0.83711962890625,0.012855895794928074,-0.007879936136305332,-0.0013860054314136505
1782814110304201700,0.85720166015625,0.0025652709882706404,-0.004793745931237936,-0.005643701180815697
1782814110324284700,0.87728466796875,-0.006309482268989086,0.018497006967663765,-0.02861577831208706
1782814110344366600,0.89736669921875,-0.0016442898195236921,0.023721633478999138,-0.059477467089891434
1782814110364448500,0.917448486328125,-0.0015631435671821237,0.021968452259898186,-0.06555234640836716
1782814110384530400,0.937530517578125,-0.011224682442843914,-0.024399172514677048,-0.04269787296652794
1782814110404612600,0.957612548828125,-0.0048184990882873535,-0.04300456866621971,-0.022132545709609985
1782814110424694500,0.977694580078125,-0.0008257845183834434,-0.022530682384967804,-0.019149264320731163
1782814110444776400,0.9977763671875,-0.002544731367379427,-0.00620458135381341,-0.026560867205262184
1782814110464858600,1.017858642578125,-0.0014451566385105252,0.0062096440233290195,-0.015556182712316513
1782814110484940500,1.0379404296875,-0.00045979590504430234,0.022872863337397575,0.009120023809373379
1782814110505022500,1.0580224609375,-0.0076359231024980545,0.045992571860551834,0.03869769349694252
1782814110525104600,1.078104736328125,-0.006954197771847248,0.00028703315183520317,0.047922320663928986
1782814110545186600,1.0981865234375,-0.00661654444411397,-0.02039925940334797,0.03063848987221718
1782814110565268500,1.1182685546875,-0.010741702280938625,-0.0036112014204263687,0.029774772003293037
1782814110585350400,1.138350341796875,-0.012849362567067146,-0.011500470340251923,0.025170782580971718
1782814110605433300,1.158433349609375,-0.018817968666553497,-0.016720958054065704,-0.010071794502437115
1782814110625515500,1.178515625,-0.019731441512703896,-0.010305050760507584,-0.05095702037215233
1782814110645597400,1.198597412109375,-0.011906399391591549,0.030844658613204956,-0.06070069596171379
1782814110665679400,1.218679443359375,-0.01810210943222046,0.03439762070775032,-0.056260060518980026
1782814110685761500,1.238761474609375,-0.02367294579744339,0.03982974961400032,-0.041495680809020996
1782814110705843500,1.258843505859375,-0.01921660825610161,0.023149143904447556,0.006478870287537575
1782814110725925400,1.27892529296875,-0.005890397820621729,0.015080925077199936,0.04260487109422684
1782814110746007600,1.299007568359375,0.0002039620012510568,0.02770075388252735,0.04429442435503006
1782814110766089500,1.31908935546875,-0.004754675552248955,0.0024999473243951797,0.0147523432970047
1782814110786171400,1.33917138671875,-0.025253131985664368,-0.015474757179617882,-0.025317953899502754
1782814110806253300,1.35925341796875,-0.029583832249045372,-0.0026556593365967274,-0.021272433921694756
1782814110826335500,1.37933544921875,-0.017968380823731422,-0.029856093227863312,-0.00795429851859808
1782814110846417400,1.39941748046875,-0.005143444053828716,-0.01936405897140503,0.021794680505990982
1782814110866499300,1.419499267578125,-0.016113437712192535,-0.006802618503570557,0.048110343515872955
1782814110886581500,1.43958154296875,-0.026931865140795708,-0.02879556268453598,0.029889442026615143
1782814110906663400,1.459663330078125,-0.024653470143675804,-0.020229579880833626,-0.012859099544584751
1782814110926746600,1.47974658203125,-0.013973455876111984,-0.016681376844644547,-0.03018561191856861
1782814110946828500,1.49982861328125,0.003805603366345167,-0.007435488048940897,-0.004845115356147289
1782814110966910700,1.51991064453125,-0.002277119318023324,0.016358330845832825,0.022678134962916374
1782814110986992600,1.53999267578125,-0.029699981212615967,-0.006132070906460285,0.03564286604523659
1782814111007074600,1.560074462890625,-0.04160675033926964,-0.03514678031206131,0.035621266812086105
1782814111027156500,1.580156494140625,-0.034880708903074265,-0.028727151453495026,0.012969567440450191
1782814111047238700,1.60023876953125,-0.024823466315865517,-0.013444578275084496,-0.007800748571753502
1782814111067320600,1.620320556640625,-0.015129011124372482,0.000501957256346941,-0.017748761922121048
1782814111087402500,1.640402587890625,-0.014757801778614521,0.027287311851978302,-0.02549128793179989
1782814111107484700,1.660484619140625,-0.013044057413935661,0.018107127398252487,-0.02508675307035446
1782814111127566600,1.680566650390625,-0.009444493800401688,-0.02455732226371765,0.005605561658740044
1782814111147648500,1.7006484375,-0.009958820417523384,-0.03332029655575752,0.02797149121761322
1782814111167730700,1.720730712890625,-0.007939497008919716,-0.00896388292312622,0.027881069108843803
1782814111187812600,1.7408125,-0.0030961818993091583,-0.014398399740457535,0.012226268649101257
1782814111207894500,1.76089453125,0.017909623682498932,0.0008557112887501717,0.01691802591085434
1782814111227976400,1.7809765625,0.020091773942112923,-0.010850846767425537,0.018795525655150414
1782814111248059400,1.801059326171875,0.009628908708691597,-0.007403154857456684,0.0024844517465680838
1782814111268141600,1.8211416015625,0.006974480580538511,-0.0018826236482709646,-0.0009390157647430897
1782814111288223500,1.841223388671875,0.017292648553848267,-0.0029688342474400997,0.010318391025066376
1782814111308305400,1.861305419921875,0.025751566514372826,-0.009157774038612843,0.016909770667552948
1782814111328387600,1.8813876953125,0.03137248754501343,-0.01786283403635025,0.022482840344309807
1782814111348469500,1.901469482421875,0.05171480402350426,-0.02428743802011013,0.0364123098552227
1782814111368551400,1.921551513671875,0.037759602069854736,-0.04094364121556282,0.04138876497745514
1782814111388633600,1.941633544921875,0.011413304135203362,-0.047448281198740005,0.03347053751349449
1782814111408715500,1.961715576171875,0.01749338023364544,-0.01715613156557083,0.03126458451151848
1782814111428797400,1.98179736328125,0.024147892370820045,0.008017504587769508,0.042680058628320694
1782814111448879400,2.00187939453125,0.01852770708501339,-0.024229854345321655,0.040912926197052
1782814111468961500,2.02196142578125,0.020308777689933777,-0.03014448657631874,0.02767367847263813
1782814111489043500,2.04204345703125,0.023788703605532646,-0.010373651050031185,0.00030873436480760574
1782814111509125400,2.06212548828125,0.017207080498337746,0.0148980263620615,0.004569213837385178
1782814111529207600,2.08220751953125,0.013096076436340809,0.021020306274294853,0.016110682860016823
1782814111549289500,2.10228955078125,0.01513091754168272,-0.009761059656739235,-0.026767754927277565
1782814111569372400,2.122372314453125,0.01552798505872488,-0.04039371758699417,-0.04699936881661415
1782814111589454300,2.142454345703125,0.007791529409587383,-0.04282677173614502,-0.024573616683483124
1782814111609536500,2.16253662109375,0.007275364361703396,-0.008948802947998047,0.000737037044018507
1782814111629618400,2.182618408203125,0.01263483613729477,0.010226534679532051,-0.0032483115792274475
1782814111649700400,2.202700439453125,0.021036937832832336,0.002174587454646826,-0.041559848934412
1782814111669782500,2.222782470703125,0.026176581159234047,0.005813178140670061,-0.07271845638751984
1782814111689864400,2.242864501953125,0.017669212073087692,-0.004552796017378569,-0.06348830461502075
1782814111709946400,2.2629462890625,0.019535360857844353,-0.0018682265654206276,-0.038941044360399246
1782814111730028300,2.2830283203125,0.03473680838942528,-0.003646095981821418,-0.010444089770317078
1782814111750110500,2.3031103515625,0.03297128528356552,-0.011525468900799751,-0.00302820629440248
1782814111770192400,2.3231923828125,0.012118164449930191,-0.00959672499448061,-0.004294190555810928
1782814111790274300,2.3432744140625,-0.006101071834564209,0.0062268865294754505,0.001112334313802421
1782814111810356500,2.3633564453125,-0.008832268416881561,0.022970326244831085,0.002170700579881668
1782814111830438400,2.3834384765625,-0.011645081453025341,0.0320131853222847,0.009310061112046242
1782814111850520300,2.403520263671875,-0.010843077674508095,0.0315946526825428,0.007616264279931784
1782814111870602500,2.4236025390625,0.008309107273817062,0.02178981713950634,0.00033047120086848736
1782814111890684400,2.443684326171875,0.02528833970427513,0.017682861536741257,-0.012318968772888184
1782814111910767600,2.463767578125,0.018445337191224098,0.017565306276082993,-0.02750398777425289
1782814111930849500,2.483849609375,0.007059580646455288,0.034989312291145325,-0.03717005252838135
1782814111950931500,2.503931396484375,0.009274540469050407,0.03547259047627449,-0.0349094532430172
1782814111971013600,2.524013671875,0.012699173763394356,0.012406779453158379,-0.018190821632742882
1782814111991095600,2.544095458984375,0.02007432095706463,0.012455929070711136,-0.0034152641892433167
1782814112011177500,2.564177490234375,0.026141606271266937,0.013101847842335701,-0.00920514203608036
1782814112031259600,2.584259765625,0.014160984195768833,0.034916218370199203,-0.019339777529239655
1782814112051341600,2.604341552734375,0.004044249188154936,0.03670801222324371,-0.01993557997047901
1782814112071423500,2.624423583984375,-0.004991874098777771,0.021203260868787766,-0.01155217457562685
1782814112091505400,2.64450537109375,-0.015936410054564476,0.04079568758606911,-0.0005457079969346523
1782814112111587600,2.664587646484375,-0.004791834391653538,0.04899912327528,0.020016588270664215
1782814112131669500,2.68466943359375,0.04526640474796295,0.035974372178316116,0.02217099815607071
1782814112151751400,2.70475146484375,0.06907975673675537,0.03191201761364937,0.0008336434839293361
1782814112171834000,2.724834228515625,0.06490897387266159,0.014050818048417568,-0.023367412388324738
1782814112191916300,2.744916259765625,0.0560726523399353,0.01365635171532631,-0.025068406015634537
1782814112211998200,2.764998291015625,0.0570199228823185,-0.004340255167335272,-0.003755976678803563
1782814112232081400,2.785081298828125,0.06573062390089035,-0.010189971886575222,0.013425590470433235
1782814112252163300,2.805163330078125,0.06289621442556381,0.02941638045012951,0.011995892971754074
1782814112272245500,2.82524560546875,0.02970251999795437,0.01894295960664749,0.005679265130311251
1782814112292327400,2.845327392578125,0.004228806588798761,0.003855254501104355,-0.0010439145844429731
1782814112312409300,2.865409423828125,-0.014915380626916885,-0.007237088866531849,-0.0031487527303397655
1782814112332491500,2.885491455078125,-0.034215860068798065,0.0070296386256814,-0.0031258079688996077
1782814112352573400,2.905573486328125,-0.0529513843357563,0.011048898100852966,0.004386649001389742
1782814112372655400,2.9256552734375,-0.05999075993895531,0.013639064505696297,0.02159305103123188
1782814112392737300,2.9457373046875,-0.050453294068574905,0.014107370749115944,0.028605466708540916
1782814112412819500,2.9658193359375,-0.031999800354242325,0.00034919800236821175,0.01924131251871586
1782814112432901400,2.9859013671875,-0.013291819021105766,-0.015887726098299026,0.003249397035688162
1782814112452983300,3.0059833984375,-0.0067327916622161865,-0.01850971020758152,0.0014673755504190922
1782814112473065500,3.0260654296875,-0.0005195827106945217,0.003626227844506502,0.006388240028172731
1782814112493147400,3.0461474609375,-0.0025648721493780613,0.008573941886425018,0.013517213985323906
1782814112513229300,3.066229248046875,-0.002244051545858383,-0.010022841393947601,0.007477105595171452
1782814112533311500,3.0863115234375,0.0008710569236427546,-0.013194752857089043,0.0023716725409030914
1782814112553393400,3.106393310546875,-0.004266722593456507,-0.0118558956310153,0.011100868694484234
1782814112573475300,3.126475341796875,-0.011069473810493946,-0.022960206493735313,0.008619672618806362
1782814112593558300,3.146558349609375,-0.004627646878361702,-0.008993851952254772,-0.0020026026759296656
1782814112613640200,3.16664013671875,-0.0019214252242818475,0.013604123145341873,-0.020721377804875374
1782814112633722400,3.186722412109375,-0.00528668612241745,0.02507070265710354,-0.02849547192454338
1782814112653804300,3.20680419921875,-0.006075744517147541,0.022690020501613617,-0.02869608998298645
1782814112673886200,3.22688623046875,-0.01355736330151558,0.016642780974507332,-0.03226286172866821
1782814112693968400,3.246968505859375,-0.016202323138713837,0.0029351511038839817,-0.04677170515060425
1782814112714050300,3.26705029296875,-0.026195110753178596,-0.021663770079612732,-0.05173220857977867
1782814112734132200,3.28713232421875,-0.03611041605472565,-0.04191810265183449,-0.043123066425323486
1782814112754214400,3.30721435546875,-0.03840091824531555,-0.034937676042318344,-0.017128005623817444
1782814112774296300,3.32729638671875,-0.03179579973220825,-0.020720666274428368,-0.015188034623861313
1782814112794378200,3.347378173828125,-0.028851648792624474,-0.026219822466373444,-0.04973315820097923
1782814112814460200,3.367460205078125,-0.02424563840031624,0.00657710712403059,-0.07415717095136642
1782814112834542300,3.387542236328125,-0.02820415236055851,0.026504388079047203,-0.058236151933670044
1782814112854624300,3.407624267578125,-0.031737588346004486,0.019787192344665527,-0.031685467809438705
1782814112874706200,3.4277060546875,-0.02969789132475853,0.0029876152984797955,-0.007916182279586792
1782814112894788400,3.447788330078125,-0.020078910514712334,-0.01526002399623394,0.012895561754703522
1782814112914870300,3.467870361328125,-0.017634451389312744,-0.022217418998479843,0.027420904487371445
1782814112934952200,3.4879521484375,-0.01330009289085865,0.00017051026225090027,0.031204640865325928
1782814112955034400,3.508034423828125,-0.011740435846149921,0.0035732481628656387,0.02770872786641121
1782814112975117600,3.52811767578125,-0.008271768689155579,0.007087984122335911,0.023588910698890686
1782814112995199500,3.548199462890625,0.0012961424654349685,-0.011231373995542526,0.02210652455687523
1782814113015281400,3.568281494140625,0.0024271600414067507,-0.01300119236111641,0.01164882443845272
1782814113035363300,3.58836328125,-0.0022903094068169594,0.0016063996590673923,0.007868537679314613
1782814113055445500,3.608445556640625,-0.010950579307973385,-0.0031378339044749737,0.009980945847928524
1782814113075527400,3.62852734375,-0.017476055771112442,-0.0038501806557178497,0.0016877856105566025
1782814113095609300,3.648609375,-0.02196425572037697,-0.01578579656779766,-0.018033314496278763
1782814113115691500,3.66869140625,-0.01892567053437233,0.002689607907086611,-0.036518532782793045
1782814113135773400,3.6887734375,-0.01119355857372284,0.006794174201786518,-0.040896181017160416
1782814113155855400,3.70885546875,-0.010244584642350674,0.004453594330698252,-0.03269685432314873
1782814113175937000,3.72893701171875,-0.009255594573915005,0.002683104947209358,-0.010523395612835884
1782814113196019000,3.74901904296875,0.0002552313089836389,-0.008436456322669983,0.017237864434719086
1782814113216100900,3.769100830078125,0.004159342963248491,-0.03945989906787872,0.017066409811377525
1782814113236183000,3.78918310546875,-0.013162655755877495,-0.03183819726109505,-0.004315578378736973
1782814113256265000,3.809264892578125,-0.014194034039974213,0.002394263166934252,-0.01914966106414795
1782814113276347000,3.829346923828125,-0.02113320305943489,0.02958841808140278,-0.011931614950299263
1782814113296428800,3.8494287109375,-0.017334837466478348,-0.011380961164832115,0.0048112403601408005
1782814113316511000,3.869510986328125,-0.01526951789855957,-0.03491779416799545,0.014392144978046417
1782814113336593000,3.889593017578125,-0.017763175070285797,-0.01110076904296875,0.017271267250180244
1782814113356674800,3.9096748046875,-0.026826756075024605,0.019980356097221375,0.028132673352956772
1782814113376758000,3.929758056640625,-0.019736256450414658,0.03078490123152733,0.03121039643883705
1782814113396840200,3.949840087890625,-0.022462865337729454,0.014648357406258583,0.027465203776955605
1782814113416922000,3.969922119140625,-0.02905886061489582,-0.008896196261048317,0.043870944529771805
1782814113437004000,3.990004150390625,-0.03285611420869827,-0.0033570085652172565,0.06333451718091965
1782814113457086200,4.010086181640625,-0.023714961484074593,0.007642177399247885,0.057645540684461594
1782814113477168000,4.030168212890625,-0.013005713000893593,0.0034825215116143227,0.04318877309560776
1782814113497250000,4.05025,-0.01506558433175087,-0.01477210782468319,0.036060772836208344
1782814113517332000,4.07033203125,-0.007609422784298658,-0.016595948487520218,0.029698694124817848
1782814113537414100,4.0904140625,0.005858191754668951,-0.012751495465636253,0.01314166747033596
1782814113557496000,4.11049609375,0.012766523286700249,-0.0040299859829247,-0.01596209406852722
1782814113577578000,4.130577880859375,0.002646245062351227,0.007173399906605482,-0.03123399242758751
1782814113597660200,4.15066015625,-0.0019627949222922325,0.021625638008117676,-0.01098359003663063
1782814113617742000,4.1707421875,0.0038390103727579117,0.014758961275219917,0.01241869106888771
1782814113637824000,4.190823974609375,0.00666566239669919,0.005215253680944443,0.013218366540968418
1782814113657906200,4.21090625,0.010044626891613007,-0.007753817364573479,0.0061022574082016945
1782814113677988000,4.230988037109375,0.01374823972582817,-0.005910083185881376,0.0030460560228675604
1782814113698070000,4.251070068359375,0.020336870104074478,0.00011238735169172287,0.0018124073976650834
1782814113718152000,4.27115185546875,0.032738570123910904,0.022692784667015076,-0.0031256473157554865
1782814113738234000,4.291234130859375,0.05047949030995369,0.02405676804482937,-0.00021603167988359928
1782814113758316000,4.31131591796875,0.06467892229557037,0.0008412827737629414,0.006565063260495663
1782814113778399000,4.33139892578125,0.07212933152914047,0.008459778502583504,0.009107707068324089
1782814113798481000,4.35148095703125,0.06569812446832657,0.009439477697014809,0.009090650826692581
1782814113818563000,4.37156298828125,0.0744234099984169,0.017002584412693977,0.022902265191078186
1782814113838645000,4.39164501953125,0.06880096346139908,0.01693875901401043,0.028769435361027718
1782814113858727000,4.411726806640625,0.05852809548377991,-0.0325511172413826,0.030593812465667725
1782814113878809000,4.43180908203125,0.057438965886831284,-0.06169292330741882,0.012178229168057442
1782814113898891000,4.45189111328125,0.06541213393211365,-0.05263001471757889,-0.01920083537697792
1782814113918973000,4.471972900390625,0.07130350917577744,-0.002263967413455248,-0.038698092103004456
1782814113939054800,4.492054931640625,0.06916062533855438,0.04816190153360367,-0.030504098162055016
1782814113959137000,4.512136962890625,0.060558609664440155,0.05225331708788872,-0.01392432302236557
1782814113979219000,4.532218994140625,0.061942629516124725,0.026373108848929405,-0.011812703683972359
1782814113999300900,4.55230078125,0.054791875183582306,-0.020338760688900948,-0.01914641447365284
1782814114019383000,4.572383056640625,0.04232333227992058,-0.04038035869598389,-0.019205518066883087
1782814114039465000,4.59246484375,0.03464715555310249,-0.06028502807021141,-0.002861900720745325
1782814114059547000,4.612546875,0.02511419728398323,-0.05640966817736626,0.022203831002116203
1782814114079629000,4.632629150390625,0.015411069616675377,-0.016512487083673477,0.0387350469827652
1782814114099711000,4.6527109375,0.018203265964984894,-0.003948329947888851,0.034013014286756516
1782814114119793000,4.67279296875,0.017463183030486107,-0.004489571321755648,0.01413529273122549
1782814114139874800,4.692874755859375,0.0028069172985851765,-0.021350646391510963,-0.0036159949377179146
1782814114159957800,4.712957763671875,-0.012770308181643486,-0.052666857838630676,0.010953377932310104
1782814114180039400,4.733039306640625,-0.017544768750667572,-0.06728946417570114,0.038829363882541656
1782814114200121300,4.753121337890625,-0.006576951593160629,-0.045613136142492294,0.058097127825021744
1782814114220203500,4.77320361328125,0.005799097009003162,-0.006090126931667328,0.061971329152584076
1782814114240285400,4.793285400390625,-0.00014033949992153794,-0.03282561153173447,0.04637811332941055
1782814114260367400,4.813367431640625,-0.0011737747117877007,-0.04711052030324936,0.011707576923072338
1782814114280449300,4.83344921875,-0.00802347157150507,-0.03134337067604065,-0.015415686182677746
1782814114300531500,4.853531494140625,-0.008086936548352242,-0.04774659126996994,-0.01209280826151371
1782814114320613400,4.87361328125,-0.0017724439967423677,-0.038276370614767075,0.0016356143169105053
1782814114340695300,4.8936953125,0.006065697409212589,-0.01153353601694107,0.008124569430947304
1782814114360777500,4.913777587890625,0.0027684932574629784,0.0035628648474812508,-0.002125261351466179
1782814114380859400,4.933859375,-0.0011399987852200866,0.014453945681452751,-0.022015530616044998
1782814114400941300,4.95394140625,-0.0017089504981413484,0.023951472714543343,-0.03932332247495651
1782814114421023500,4.9740234375,-0.005755981896072626,-0.011101119220256805,-0.022297723218798637
1782814114441105400,4.99410546875,0.005553507711738348,-0.03494450822472572,0.0000506741926074028
1782814114461187300,5.014187255859375,0.03296685963869095,-0.01907436177134514,0.005464522168040276
1782814114481269200,5.034269287109375,0.06545776128768921,-0.005764585919678211,-0.006327052600681782
1782814114501351400,5.054351318359375,0.07743936032056808,-0.033228520303964615,-0.022213688120245934
1782814114521433300,5.074433349609375,0.0648476853966713,-0.05475520342588425,-0.04111669212579727
1782814114541515300,5.094515380859375,0.048281650990247726,-0.07064265757799149,-0.03591198846697807
1782814114561597400,5.114597412109375,0.03200387954711914,-0.0653538852930069,-0.005923461634665728
1782814114581679400,5.134679443359375,0.02170785702764988,-0.057621393352746964,0.0361846499145031
1782814114601762600,5.154762451171875,0.021364850923419,-0.03862009197473526,0.05692625790834427
1782814114621844500,5.174844482421875,0.010410443879663944,-0.014127271249890327,0.04807490482926369
1782814114641926400,5.194926513671875,-0.009181825444102287,-0.007847975939512253,0.01946866512298584
1782814114662008600,5.215008544921875,-0.02297324314713478,-0.0052112978883087635,-0.003949843812733889
1782814114682090500,5.235090576171875,-0.0233792494982481,0.005579407326877117,-0.013356950134038925
1782814114702172400,5.25517236328125,-0.01969885267317295,0.029073355719447136,-0.017056940123438835
1782814114722254600,5.275254638671875,-0.011558789759874344,0.037470582872629166,-0.021403199061751366
1782814114742336500,5.29533642578125,-0.0038364860229194164,0.05421262979507446,-0.03308647498488426
1782814114762418400,5.31541845703125,0.0036166917998343706,0.0549151748418808,-0.04152615740895271
1782814114782500600,5.33550048828125,0.013962723314762115,0.07013513147830963,-0.01960029825568199
1782814114802582500,5.35558251953125,0.01816672645509243,0.053190700709819794,0.019031066447496414
1782814114822664400,5.37566455078125,0.024363799020648003,0.008168535307049751,0.034732621163129807
1782814114842746600,5.39574658203125,0.0362849086523056,-0.027137257158756256,0.029480336233973503
1782814114862828500,5.41582861328125,0.048323821276426315,-0.03523175045847893,0.025489386171102524
1782814114882910500,5.435910400390625,0.04878317937254906,-0.026053080335259438,0.04542189836502075
1782814114902992400,5.455992431640625,0.04465160891413689,0.016522880643606186,0.0699835792183876
1782814114923074600,5.476074462890625,0.04267783463001251,0.015925701707601547,0.05801781639456749
1782814114943156500,5.496156494140625,0.04298795387148857,0.00019838660955429077,0.03415074199438095
1782814114963238400,5.51623828125,0.041313059628009796,0.0023861099034547806,0.010451694019138813
1782814114983320600,5.536320556640625,0.02683991566300392,0.025423498824238777,-0.015259500592947006
1782814115003402500,5.556402587890625,0.01157790794968605,0.020217468962073326,-0.02018509991466999
1782814115023484400,5.576484375,0.003166215494275093,0.011594698764383793,-0.014001604169607162
1782814115043566600,5.596566650390625,-0.0005524777225218713,0.03166968747973442,-0.015632661059498787
1782814115063648500,5.6166484375,-0.013539004139602184,0.040334559977054596,-0.009017611853778362
1782814115083730400,5.63673046875,-0.010383433662354946,0.040120262652635574,0.0025254804641008377
1782814115103812400,5.656812255859375,-0.001174755860120058,0.007000924088060856,0.013620741665363312
1782814115123894500,5.67689453125,-0.005487782880663872,-0.012533009983599186,0.007573050446808338
1782814115143976400,5.6969765625,-0.01490895263850689,-0.02335183322429657,0.01988464966416359
1782814115164059400,5.717059326171875,-0.019015595316886902,-0.020307667553424835,0.03363318741321564
1782814115184141600,5.7371416015625,-0.012545013800263405,-0.021162107586860657,0.030186081305146217
1782814115204223700,5.7572236328125,-0.01590048521757126,-0.023911278694868088,0.012682478874921799
1782814115224305700,5.7773056640625,-0.029727647081017494,-0.026379764080047607,-0.0006424535531550646
1782814115244387600,5.7973876953125,-0.02965332567691803,-0.024084828794002533,-0.008977389894425869
1782814115264469500,5.817469482421875,-0.01587340421974659,0.004446052946150303,-0.0202218908816576
1782814115284551700,5.8375517578125,-0.02041582018136978,0.0328872948884964,-0.01931605488061905
1782814115304633600,5.857633544921875,-0.030650509521365166,0.019736161455512047,-0.010959142819046974
1782814115324715500,5.877715576171875,-0.02962314523756504,-0.001858080504462123,-0.008621374145150185
1782814115344797700,5.897797607421875,-0.025111589580774307,-0.02231151983141899,-0.006665725260972977
1782814115364879600,5.917879638671875,-0.026827748864889145,-0.012737278826534748,-0.004261382855474949
1782814115384961500,5.93796142578125,-0.03243611007928848,-0.00473865307867527,-0.0003834008239209652
1782814115405043700,5.958043701171875,-0.02561119757592678,0.003951510414481163,-0.005397793836891651
1782814115425125600,5.978125732421875,-0.01681952364742756,0.011404992081224918,-0.018663233146071434
1782814115445207600,5.99820751953125,0.007088318932801485,-0.0013797758147120476,-0.024200454354286194
1782814115465289500,6.01828955078125,0.03332827612757683,-0.00005299737676978111,-0.02080376073718071
1782814115485371600,6.03837158203125,0.04135105758905411,0.016818305477499962,-0.00626651756465435
1782814115505453800,6.058453857421875,0.04584154486656189,0.019706333056092262,0.007368051912635565
1782814115525535700,6.07853564453125,0.05172078311443329,-0.0017694141715765,0.016237929463386536
1782814115545618000,6.098617919921875,0.04744097217917442,-0.03246597200632095,0.010985164903104305
1782814115565699800,6.118699951171875,0.043972793966531754,-0.00714474730193615,-0.01107133086770773
1782814115585781800,6.13878173828125,0.026278669014573097,-0.04235668480396271,-0.011485329829156399
1782814115605864700,6.15886474609375,0.024652928113937378,-0.037956006824970245,0.0033261673524975777
1782814115625947000,6.17894677734375,0.014299944043159485,-0.01641741767525673,0.015399218536913395
1782814115646028800,6.19902880859375,0.0014272518455982208,0.008374832570552826,0.02204362116754055
1782814115666110700,6.21911083984375,-0.00946191418915987,0.02512524649500847,0.017850900068879128
1782814115686192600,6.239192626953125,-0.015062415972352028,0.020579755306243896,0.004226337186992168
1782814115706274800,6.25927490234375,-0.02779599092900753,0.010349137708544731,-0.015212085098028183
1782814115726356700,6.279356689453125,-0.03350378945469856,-0.007999518886208534,-0.018283531069755554
1782814115746438700,6.299438720703125,-0.025808053091168404,-0.023636801168322563,-0.008357129991054535
1782814115766520800,6.319520751953125,-0.015512775629758835,0.00370720773935318,0.013981802389025688
1782814115786602800,6.339602783203125,-0.010807815007865429,0.03367726504802704,0.03582581877708435
1782814115806684700,6.3596845703125,-0.0072570680640637875,0.022519322112202644,0.028011539950966835
1782814115826766800,6.379766845703125,0.005193705670535564,0.006477587856352329,0.0028348970226943493
1782814115846848800,6.399848876953125,0.011697512120008469,0.020223330706357956,-0.008826378732919693
1782814115866930700,6.4199306640625,0.0255726370960474,0.017268558964133263,0.008114932104945183
1782814115887012600,6.4400126953125,0.03029145486652851,-0.01526825875043869,0.012262885458767414
1782814115907094800,6.4600947265625,0.026532091200351715,-0.034242842346429825,0.010649511590600014
1782814115927176700,6.4801767578125,0.020338762551546097,-0.025306418538093567,0.017496101558208466
1782814115947258600,6.500258544921875,0.02606893889605999,-0.012187080457806587,0.03284555673599243
1782814115967340800,6.5203408203125,0.03225581347942352,-0.010355081409215927,0.029792724177241325
1782814115987422700,6.540422607421875,0.026279030367732048,-0.013183172792196274,0.013064287602901459
1782814116007505700,6.560505615234375,0.020711202174425125,-0.008042490109801292,0.0034425067715346813
1782814116027587600,6.580587646484375,0.018298707902431488,-0.011770198121666908,0.0055509209632873535
1782814116047669800,6.600669677734375,0.026123443618416786,-0.008381228893995285,-0.003081538714468479
1782814116067751700,6.620751708984375,0.027679426595568657,0.004260700661689043,-0.0296667218208313
1782814116087833600,6.64083349609375,0.01525106094777584,-0.004696480464190245,-0.04257842153310776
1782814116107915500,6.66091552734375,0.008808836340904236,-0.0031629465520381927,-0.03909306228160858
1782814116127997700,6.680997802734375,-0.0076461900025606155,0.020964499562978745,-0.013544533401727676
1782814116148079600,6.70107958984375,-0.02052990533411503,-0.008784881792962551,0.02447092905640602
1782814116168161500,6.72116162109375,-0.013836417347192764,-0.008097088895738125,0.027681995183229446
1782814116188244200,6.741244140625,0.005073790904134512,0.03161332383751869,0.0031909318640828133
1782814116208326100,6.761326171875,0.00469939736649394,0.05596589297056198,-0.015572603791952133
1782814116228408000,6.781407958984375,0.0006000123685225844,0.023103106766939163,-0.023975450545549393
1782814116248490000,6.801489990234375,-0.0009708511061035097,-0.007467682473361492,-0.04086706414818764
1782814116268572200,6.821572265625,-0.0007339852745644748,-0.015964344143867493,-0.035566091537475586
1782814116288654000,6.841654052734375,0.010182257741689682,-0.028160972520709038,-0.0036095629911869764
1782814116308736000,6.861736083984375,0.00875902734696865,-0.03656582161784172,0.02808666229248047
1782814116328818200,6.881818115234375,-0.011835722252726555,-0.012375086545944214,0.03757774829864502
1782814116348900000,6.901900146484375,-0.027796275913715363,-0.018987536430358887,0.031218837946653366
1782814116368982000,6.92198193359375,-0.0217136237770319,-0.0016800959128886461,0.013209630735218525
1782814116389064200,6.942064208984375,-0.009159206412732601,0.0024439869448542595,0.0006063340697437525
1782814116409146000,6.96214599609375,0.0032669634092599154,0.019433874636888504,-0.010557197965681553
1782814116429228000,6.98222802734375,0.0031685372814536095,0.01925625279545784,-0.01084586326032877
1782814116449311000,7.00231103515625,0.005054321605712175,0.002729741856455803,-0.003459852421656251
1782814116469393000,7.022392822265625,0.014792031608521938,-0.0034333616495132446,0.007051284424960613
1782814116489475000,7.04247509765625,0.02006733976304531,-0.029129743576049805,0.015723204240202904
1782814116509557000,7.062556884765625,0.019981587305665016,-0.024393312633037567,0.01624997705221176
1782814116529639000,7.082638916015625,0.01517616119235754,-0.019309960305690765,0.0076096574775874615
1782814116549721000,7.10272119140625,0.016402482986450195,-0.011810151860117912,0.0024319493677467108
1782814116569803000,7.122802978515625,0.02384769730269909,-0.0009745389688760042,-0.002103729872033
1782814116589885000,7.142885009765625,0.020310629159212112,0.00670549226924777,-0.016472185030579567
1782814116609967000,7.162967041015625,0.0031288282480090857,0.00999058224260807,-0.021157164126634598
1782814116630049000,7.183049072265625,-0.00128691247664392,0.012001628056168556,-0.019918495789170265
1782814116650131000,7.203130859375,0.0037592824082821608,0.019781168550252914,-0.009515469893813133
1782814116670212900,7.223212890625,-0.007926344871520996,0.010036395862698555,-0.01881747879087925
1782814116690295000,7.243294921875,-0.012412149459123611,0.01292182132601738,-0.035285674035549164
1782814116710377000,7.263376953125,-0.024876566603779793,0.012027641758322716,-0.02820805087685585
1782814116730459000,7.283458984375,-0.03463295102119446,-0.014033351093530655,0.005434274673461914
1782814116750541000,7.303541015625,-0.030505288392305374,-0.024570412933826447,0.035230062901973724
1782814116770623000,7.323623046875,-0.02106112241744995,-0.01444569043815136,0.033939749002456665
1782814116790705000,7.343704833984375,-0.01178121380507946,0.031998418271541595,0.009654255583882332
1782814116810787000,7.363787109375,-0.005374237895011902,0.0684690773487091,-0.00029119919054210186
1782814116830869200,7.383869140625,-0.001072326791472733,0.043856844305992126,0.0072058094665408134
1782814116850951200,7.403951171875,0.009744727984070778,-0.00555978761985898,0.0014148291666060686
1782814116871033000,7.424033203125,0.017044194042682648,-0.05141444876790047,0.007794544566422701
1782814116891115300,7.444115234375,0.015558161772787571,-0.04514865577220917,0.03128587082028389
1782814116911197200,7.464197265625,0.01564602553844452,0.004881934728473425,0.06129574030637741
1782814116931280100,7.484280029296875,0.029315682128071785,0.014201660640537739,0.08218136429786682
1782814116951362000,7.504362060546875,0.042329952120780945,-0.007863612845540047,0.06055277958512306
1782814116971444200,7.5244443359375,0.04781847819685936,-0.020430786535143852,0.017428936436772346
1782814116991526100,7.544526123046875,0.04642500728368759,-0.015027590095996857,-0.015264209359884262
1782814117011608000,7.564608154296875,0.045994050800800323,-0.006926257163286209,-0.019789865240454674
1782814117031690200,7.584690185546875,0.04859205707907677,0.006826754193753004,-0.005532300565391779
1782814117051772200,7.604772216796875,0.05132865533232689,0.008825277909636497,0.004748574458062649
1782814117071854000,7.62485400390625,0.049546003341674805,0.0015137484297156334,0.0013407858787104487
1782814117091936000,7.64493603515625,0.041761092841625214,-0.018240531906485558,-0.011433111503720284
1782814117112018200,7.66501806640625,0.0417669378221035,-0.016447408124804497,-0.030999502167105675
1782814117132100000,7.68510009765625,0.0429532527923584,-0.017208188772201538,-0.04100247472524643
1782814117152182000,7.70518212890625,0.04108552262187004,-0.014845703728497028,-0.029358744621276855
1782814117172264200,7.72526416015625,0.028693707659840584,0.005230011884123087,-0.01301988959312439
1782814117192345900,7.745345947265625,0.01996937394142151,0.015502085909247398,-0.012799332849681377
1782814117212427800,7.765427734375,0.023165736347436905,0.0030623748898506165,-0.026260627433657646
1782814117232510000,7.785510009765625,0.028906503692269325,0.0009733927436172962,-0.038825009018182755
1782814117252591900,7.805591796875,0.014823689125478268,0.016114704310894012,-0.04278881847858429
1782814117272673800,7.825673828125,0.003686274401843548,0.033479489386081696,-0.03449796885251999
1782814117292756000,7.845755859375,-0.009288351982831955,0.023397296667099,-0.018636910244822502
1782814117312838000,7.865837890625,-0.024677591398358345,-0.008513674139976501,0.0065346695482730865
1782814117332919800,7.885919921875,-0.02481010928750038,-0.018587974831461906,0.01772920787334442
1782814117353001700,7.906001708984375,-0.02024964801967144,-0.00645256694406271,0.013871612027287483
1782814117373084000,7.926083984375,-0.02451203763484955,0.020198483020067215,0.002589130075648427
1782814117393165800,7.946165771484375,-0.024582639336586,0.05090073496103287,-0.012290822342038155
1782814117413247700,7.966247802734375,-0.0477072149515152,0.09818587452173233,-0.0019489498808979988
1782814117433330000,7.986329833984375,-0.032103899866342545,0.09180973470211029,0.024502266198396683
1782814117453411800,8.006411865234375,-0.0025588006246834993,0.00288687227293849,0.035915397107601166
1782814117473494800,8.026494873046875,0.011439667083323002,-0.016718873754143715,0.008879582397639751
1782814117493576700,8.04657666015625,0.0206360574811697,-0.03504506126046181,-0.008256714791059494
1782814117513659000,8.066658935546876,0.018185501918196678,-0.025416402146220207,-0.012058955617249012
1782814117533740800,8.08674072265625,0.021287458017468452,-0.008877551183104515,-0.016116881743073463
1782814117553822700,8.10682275390625,0.02820507436990738,-0.008697520941495895,-0.016856292262673378
1782814117573904600,8.126904541015625,0.033365149050951004,0.010404355823993683,-0.01556252408772707
1782814117593986800,8.14698681640625,0.028134815394878387,0.008479423820972443,-0.00788593478500843
1782814117614068700,8.16706884765625,0.027721397578716278,0.011259319260716438,-0.008437009528279305
1782814117634150700,8.187150634765626,0.029567455872893333,0.007728049531579018,-0.01255351398140192
1782814117654232800,8.20723291015625,0.039581283926963806,-0.017099350690841675,-0.022043293341994286
1782814117674314800,8.227314697265625,0.044392526149749756,-0.023984774947166443,-0.042040396481752396
1782814117694396700,8.247396728515625,0.03397466242313385,-0.028071222826838493,-0.05559647083282471
1782814117714478800,8.267478759765625,0.022195834666490555,-0.03546522185206413,-0.05549632012844086
1782814117734560800,8.287560791015625,0.025109102949500084,-0.08113346248865128,-0.04818175733089447
1782814117754642700,8.307642578125,0.045056600123643875,-0.17089371383190155,-0.050803400576114655
1782814117774724600,8.327724609375,0.014125417917966843,-0.2269105464220047,-0.07820901274681091
1782814117794806800,8.347806884765625,-0.023078106343746185,-0.04313228279352188,-0.08850514143705368
1782814117814888700,8.367888671875,0.00338329141959548,0.1476856917142868,-0.0615227110683918
1782814117834970600,8.387970703125,0.0022413660772144794,0.1576801836490631,-0.08729766309261322
1782814117855053000,8.408052978515625,-0.0441434346139431,0.12042273581027985,-0.11414194852113724
1782814117875135000,8.428135009765626,-0.05246993154287338,0.11662408709526062,-0.04501601308584213
1782814117895217000,8.448216796875,-0.06472883373498917,0.17972475290298462,0.0649203211069107
1782814117915298800,8.468298828125,-0.12393997609615326,0.12131932377815247,0.11954616755247116
1782814117935381000,8.488381103515625,-0.1644047200679779,0.023019302636384964,0.07257386296987534
1782814117955463000,8.508462890625,-0.17642639577388763,-0.05532325804233551,0.012550409883260727
1782814117975544800,8.528544921875,-0.16538527607917786,-0.026839066296815872,-0.011161303147673607
1782814117995627000,8.548626953125,-0.15263117849826813,-0.024975208565592766,0.017361778765916824
1782814118015709000,8.568708984375,-0.12242511659860611,-0.052413664758205414,0.030749568715691566
1782814118035792000,8.5887919921875,-0.11066561192274094,-0.0723286122083664,-0.016571545973420143
1782814118055873800,8.608873779296875,-0.10655545443296432,-0.07804330438375473,-0.05333562195301056
1782814118075956000,8.6289560546875,-0.09212148189544678,-0.07488373667001724,-0.060705069452524185
1782814118096038000,8.649037841796876,-0.0878690779209137,-0.07240930199623108,-0.04659699276089668
1782814118116119800,8.669119873046874,-0.07097082585096359,-0.0318700410425663,-0.015553241595625877
1782814118136202000,8.689201904296874,-0.0431329719722271,0.034379199147224426,0.012583387084305286
1782814118156284000,8.709283935546875,-0.04207853972911835,0.05400589108467102,0.030186304822564125
1782814118176365800,8.72936572265625,-0.061961665749549866,0.0334998220205307,0.01503579318523407
1782814118196447700,8.74944775390625,-0.05015307292342186,0.009653699584305286,-0.02242238074541092
1782814118216530000,8.769530029296876,-0.03479824960231781,0.00030821841210126877,-0.02659590356051922
1782814118236611800,8.78961181640625,-0.04148099198937416,-0.012492615729570389,0.015404966659843922
1782814118256693800,8.80969384765625,-0.05333791300654411,-0.010304652154445648,0.041675835847854614
1782814118276776000,8.82977587890625,-0.047201015055179596,0.008683511056005955,0.015527518466114998
1782814118296857900,8.84985791015625,-0.03762778267264366,0.025274204090237617,-0.008330749347805977
1782814118316939800,8.869939697265625,-0.04918894171714783,0.006682319566607475,0.0005819995421916246
1782814118337022000,8.89002197265625,-0.0438227578997612,0.005618922878056765,-0.017135167494416237
1782814118357103900,8.910103759765626,-0.030141938477754593,-0.0022039366886019707,-0.03142480552196503
1782814118377185800,8.930185791015624,-0.023183224722743034,0.022162657231092453,-0.027361519634723663
1782814118397267700,8.950267822265625,-0.030835608020424843,0.04960174113512039,-0.010406384244561195
1782814118417350000,8.970349853515625,-0.030016962438821793,0.03078605979681015,0.0009284488623961806
1782814118437431800,8.990431884765625,-0.030003588646650314,0.017770392820239067,0.004363274667412043
1782814118457513700,9.010513671875,-0.03270982578396797,0.022150669246912003,0.014453986659646034
1782814118477596000,9.030595947265626,-0.02680564671754837,0.03691381588578224,0.03547108918428421
1782814118497677800,9.050677734375,-0.03523644432425499,0.031939830631017685,0.022538170218467712
1782814118517759700,9.070759765625,-0.040740665048360825,-0.024618785828351974,-0.007512141019105911
1782814118537842000,9.090842041015625,-0.03397834673523903,-0.04706062376499176,-0.022661305963993073
1782814118557923800,9.110923828125,-0.025200454518198967,-0.0029314239509403706,-0.0025226944126188755
1782814118578005800,9.131005859375,-0.0260301623493433,0.0100017748773098,0.011579794809222221
1782814118598087700,9.151087646484376,-0.016053160652518272,0.007594010792672634,-0.013938614167273045
1782814118618169900,9.171169921875,-0.0035635451786220074,0.007251440081745386,-0.041853975504636765
1782814118638251800,9.191251708984375,-0.003158735344186425,-0.011246167123317719,-0.03637600317597389
1782814118658334700,9.211334716796875,-0.009120792150497437,-0.003329299623146653,-0.022496063262224197
1782814118678416600,9.231416748046875,-0.017886197194457054,-0.009381954558193684,-0.012523716315627098
1782814118698498800,9.251498779296876,-0.016370361670851707,-0.009336058050394058,0.0044470904394984245
1782814118718580700,9.271580810546874,-0.015796585008502007,0.0006238063797354698,0.009403780102729797
1782814118738662700,9.29166259765625,-0.01889028400182724,0.021003827452659607,-0.012193591333925724
1782814118758744800,9.311744873046875,-0.021104473620653152,0.029921775683760643,-0.028818827122449875
1782814118778826800,9.33182666015625,-0.018778592348098755,0.01617027446627617,-0.021164534613490105
1782814118798909000,9.351908935546875,-0.008534230291843414,0.013969617895781994,-0.01928536966443062
1782814118818990800,9.371990966796876,-0.006163328420370817,0.03247741982340813,-0.023469775915145874
1782814118839073000,9.392072998046874,-0.00939392764121294,0.030573628842830658,-0.016495514661073685
1782814118859155000,9.412155029296875,0.0023052531760185957,0.0139781404286623,-0.02195148728787899
1782814118879236900,9.43223681640625,0.008348698727786541,-0.014821462333202362,-0.034831058233976364
1782814118899319000,9.452319091796875,0.012547723948955536,-0.002614241559058428,-0.0405648835003376
1782814118919401000,9.47240087890625,0.00815226137638092,0.027258437126874924,-0.026047775521874428
1782814118939483000,9.49248291015625,-0.002571412594988942,0.017934530973434448,-0.009132334031164646
1782814118959564800,9.512564697265624,-0.009571178816258907,-0.0001399884931743145,-0.017047269269824028
1782814118979647000,9.53264697265625,-0.011229188181459904,-0.011613061651587486,-0.012027903459966183
1782814118999729000,9.55272900390625,-0.0020198621787130833,-0.00033803796395659447,0.013802922330796719
1782814119019810800,9.572810791015625,-0.0031396830454468727,0.011496514081954956,0.022877326235175133
1782814119039893000,9.59289306640625,-0.008429035544395447,0.00491673406213522,0.013261388055980206
1782814119059975000,9.612974853515626,-0.0011997707188129425,0.01689891889691353,0.0053337435238063335
1782814119080056800,9.633056884765624,-0.00007849463145248592,0.025001319125294685,0.024564649909734726
1782814119100139000,9.653138916015624,-0.009555096738040447,-0.005236654542386532,0.0429704412817955
1782814119120221000,9.673220947265625,-0.008739674463868141,-0.026654239743947983,0.03415146470069885
1782814119140302800,9.693302734375,0.004666878376156092,-0.03216130658984184,0.011531645432114601
1782814119160384800,9.713384765625,0.026499398052692413,-0.017152089625597,-0.013093643821775913
1782814119180467700,9.7334677734375,0.03993506357073784,0.01406317949295044,-0.029286503791809082
1782814119200549600,9.753549560546874,0.04843776673078537,0.02984214387834072,-0.018513411283493042
1782814119220631600,9.773631591796875,0.045515645295381546,-0.0047185951843857765,0.013111984357237816
1782814119240713500,9.79371337890625,0.05429830029606819,-0.029500365257263184,0.007271355018019676
1782814119260795600,9.813795654296875,0.0558185875415802,-0.03997831791639328,-0.008233057335019112
1782814119280877600,9.833877685546875,0.0429208017885685,-0.028957344591617584,0.006428076885640621
1782814119300959500,9.85395947265625,0.02582913637161255,-0.02929316833615303,0.019347265362739563
1782814119321042400,9.87404248046875,0.022548140957951546,-0.030302951112389565,0.003144552232697606
1782814119341124600,9.89412451171875,0.024046452715992928,-0.02956821396946907,-0.015676653012633324
1782814119361206500,9.91420654296875,0.02264820970594883,-0.016540182754397392,-0.02420210838317871
1782814119381288400,9.934288330078125,0.008592093363404274,0.008900288492441177,-0.023897944018244743
1782814119401370600,9.95437060546875,-0.000885831075720489,0.02024029567837715,-0.02430141158401966
1782814119421452500,9.97445263671875,0.007597529795020819,0.015632478520274162,-0.018107526004314423
1782814119441534500,9.994534423828124,0.004569276701658964,-0.0066200923174619675,-0.007955750450491905
1782814119461616600,10.01461669921875,-0.004756561946123838,-0.010336441919207573,0.005526993423700333
1782814119481698600,10.034698486328125,-0.006306876894086599,-0.01207796111702919,0.03387263044714928
1782814119501780500,10.054780517578125,0.011054919101297855,-0.008377151563763618,0.04780661314725876
1782814119521862400,10.0748623046875,0.011270350776612759,-0.011549599468708038,0.035065554082393646
1782814119541944600,10.094944580078124,-0.008575563319027424,0.0019545750692486763,0.021557820960879326
1782814119562026500,10.115026611328124,-0.00518472446128726,-0.021468892693519592,0.011058749631047249
1782814119582108400,10.1351083984375,0.012166447937488556,-0.026776229962706566,-0.0016103086527436972
1782814119602190600,10.155190673828125,0.018537182360887527,-0.011302893050014973,-0.015511350706219673
1782814119622272500,10.1752724609375,0.016746094450354576,0.009474016726016998,-0.012399204075336456
1782814119642354400,10.1953544921875,0.02277819998562336,0.02830532006919384,-0.0067282370291650295
1782814119662436600,10.2154365234375,0.021185316145420074,-0.010060003027319908,-0.00405525416135788
1782814119682518500,10.2355185546875,0.018634339794516563,-0.039785224944353104,-0.00765772070735693
1782814119702600400,10.255600341796875,0.027514733374118805,-0.022326983511447906,-0.01624068059027195
1782814119722682400,10.275682373046875,0.03542845696210861,0.02025032229721546,-0.007725663483142853
1782814119742765300,10.295765380859375,0.03806212916970253,0.05060539394617081,0.0016322563169524074
1782814119762847500,10.315847412109376,0.040195632725954056,0.06662119925022125,0.008411099202930927
1782814119782929400,10.335929443359374,0.03354465588927269,0.00011141598224639893,0.007531989831477404
1782814119803011300,10.35601123046875,0.04284267872571945,-0.0649954229593277,-0.021219326183199883
1782814119823093500,10.376093505859375,0.06361564993858337,-0.1708155870437622,-0.07010390609502792
1782814119843175400,10.396175537109375,0.06097106263041496,-0.43266648054122925,-0.10261347889900208
1782814119863257300,10.41625732421875,0.05214356258511543,-0.3040805459022522,-0.1525597721338272
1782814119883339500,10.436339599609376,0.0395638681948185,-0.09417318552732468,-0.09588813781738281
1782814119903421400,10.45642138671875,0.036088958382606506,0.1068786010146141,-0.031284864991903305
1782814119923503400,10.47650341796875,0.057453181594610214,0.13276320695877075,-0.009123153984546661
