time,seconds_elapsed,z,y,x
1782814121399401000,0.06540087890625,-0.06336977162659167,-0.009833265619724989,0.0944682906529866
1782814121419483000,0.08548291015625,0.14137187971770762,-0.05767711294293403,-0.01780696617895737
1782814121439565000,0.10556494140625,0.25945582282841206,-0.05002835175544023,0.016882362147327513
1782814121459647000,0.12564697265625,0.19193360769748688,0.003347118470817804,0.024596808982174843
1782814121479729000,0.14572900390625,-0.015163666862249374,0.013642010252922773,0.06282328932550735
1782814121499810800,0.165810791015625,-0.13352058169543743,0.004342851509898901,0.07404187182378955
1782814121519893000,0.18589306640625,-0.18582009325325488,0.05433101738542318,0.10569722101534716
1782814121539975000,0.205974853515625,-0.10819733986854553,0.09841361247897147,0.014337673500040546
1782814121560056800,0.226056884765625,0.07224690556526184,0.0688921883098781,-0.002847553184535354
1782814121580139000,0.246138916015625,0.1513461612433195,0.006033142684400081,0.011059081087633966
1782814121600221000,0.266220947265625,0.09841127439141273,-0.0055956280499696726,0.031994143558712676
1782814121620302800,0.286302734375,-0.07699263878762722,-0.016991759072244168,0.055458998502045866
1782814121640385000,0.306385009765625,-0.23502163879573343,-0.00033624621704220767,0.10398387775882147
1782814121660467000,0.326467041015625,-0.16161971797645092,0.021365297981351613,0.022297035006666556
1782814121680548900,0.346548828125,0.04025076184570789,0.025390315713733434,-0.03491064292676747
1782814121700630800,0.366630859375,0.10244622899591922,-0.011539338885247706,0.0576625455614645
1782814121720713000,0.386712890625,0.038036008405685426,-0.013701485355198382,0.02721953130173497
1782814121740795000,0.406794921875,-0.1192173310548067,0.05592252436056733,-0.07572922212253325
1782814121760876800,0.426876708984375,-0.2524479898929596,0.10068959458693862,-0.07315180938257836
1782814121780959000,0.446958984375,-0.0804530083745718,0.09130465725660324,-0.03284777384651825
1782814121801041000,0.467041015625,0.16605740816295145,0.05417275808379054,-0.027287673767656086
1782814121821122800,0.487122802734375,0.3280021203100681,0.018155834415555,-0.07171713693696073
1782814121841205000,0.507205078125,0.08998422230780125,0.06701908791437745,-0.013805877311434596
1782814121861287000,0.527286865234375,-0.17720248703360555,0.11453925624117255,0.0043901795166544615
1782814121881368800,0.547368896484375,-0.21065409025847912,0.10016323262527585,0.04146252138880081
1782814121901450800,0.56745068359375,-0.08044540959000587,0.08280439380630851,0.1006852928711567
1782814121921533000,0.587532958984375,0.04756897590458393,0.038109365902841086,0.10658721952447667
1782814121941614800,0.60761474609375,0.0892757817775011,-0.009640519526600838,0.07855219798823818
1782814121961696800,0.62769677734375,0.01615852311849594,-0.04849135144650936,0.04958489143741317
1782814121981779700,0.64777978515625,-0.017723872739076614,-0.06709902128279209,0.05368328493325971
1782814122001862000,0.66786181640625,-0.06850070477426051,-0.04542275765612721,0.01141058880588971
1782814122021943800,0.68794384765625,-0.10048398901224136,0.0019799217708408832,0.027991693851165473
1782814122042025700,0.708025634765625,-0.08999299013614653,-0.01203399053439498,0.05932675244663842
1782814122062108000,0.72810791015625,-0.008445172262191773,-0.01996595257744193,0.02410183767261915
1782814122082189800,0.74818994140625,0.003575520399212837,0.0016674948208034038,-0.024034188397042452
1782814122102271700,0.768271728515625,-0.0004816460371017456,0.0001363397307693958,0.009372854166897013
1782814122122354000,0.78835400390625,0.020635376271605492,-0.007972147922962903,0.038667328579165036
1782814122142435800,0.808435791015625,0.0076303487479686734,0.008355448152124882,-0.031905296231480314
1782814122162517800,0.828517822265625,-0.05742927566170692,0.03481865379437804,0.01767797863758169
1782814122182600400,0.848600341796875,-0.054493222209811204,0.03366816858500242,0.010253007135447113
1782814122202682400,0.868682373046875,-0.00611468348801136,0.04436433464437723,-0.03543886805195361
1782814122222764500,0.8887646484375,-0.053554480054974554,0.06385960097014903,-0.022071135562611744
1782814122242846500,0.908846435546875,-0.11757307097911834,0.08754398954883218,-0.005019787223660387
1782814122262928400,0.928928466796875,-0.10435586200952529,0.0857255419500172,-0.06759113391498103
1782814122283010600,0.949010498046875,-0.030680384945869443,0.07008461296483874,-0.034392861563782205
1782814122303092500,0.969092529296875,-0.020976737055182455,0.026218729361891745,0.014270435216417535
1782814122323174400,0.98917431640625,0.026237434062361717,-0.015029372958093881,0.07609864452339243
1782814122343256600,1.009256591796875,0.095201080173254,-0.026859949874877928,0.06328537214561365
1782814122363338500,1.02933837890625,0.04240004883408546,-0.01816927841901779,0.037970126395509576
1782814122383420400,1.04942041015625,0.08120996422171592,-0.01784896042346954,0.12329639879567549
1782814122403502600,1.069502685546875,0.07888824327588081,-0.07291808282509446,0.11994284145091659
1782814122423584500,1.08958447265625,0.08737433207035064,-0.019555325949937103,0.11288320526299066
1782814122443666400,1.10966650390625,-0.12573416560292244,0.05286167548522353,-0.042670157312625086
1782814122463748400,1.129748291015625,-0.2016530376791954,0.09414879464134573,0.01451090204194188
1782814122483830500,1.14983056640625,-0.152348616284132,0.043260318925231696,0.08441508040595799
1782814122503912400,1.169912353515625,0.0002811550289392471,-0.0379312328569591,0.021458721019001675
1782814122523994400,1.189994384765625,0.009533552020788193,-0.023684534709155557,-0.05378985971342772
1782814122544076500,1.21007666015625,-0.034489129579067225,0.0011982698738574982,-0.0542390099867247
1782814122564158500,1.230158447265625,-0.027006664869189262,0.018623305796831847,-0.02983678286173381
1782814122584240400,1.250240478515625,-0.05461830989420414,0.010260843382030725,-0.02562591456789523
1782814122604322600,1.270322509765625,-0.08198094859421252,0.035424218472093344,0.027399755840003488
1782814122624404500,1.290404541015625,-0.04946808752417564,0.050679947531968354,0.030367702267505226
1782814122644486400,1.310486328125,-0.058279170489311215,0.0487934031330049,0.029872767490567637
1782814122664568300,1.330568359375,-0.02654138544499874,0.03256254543066025,0.06729485438214615
1782814122684650500,1.350650390625,0.060143210795521734,-0.010518033013492823,0.0988719233062584
1782814122704732400,1.370732421875,0.08130582581162452,-0.03237316033840179,0.12493323361673392
1782814122724814300,1.390814453125,-0.009697802671790122,0.0006743921302258968,0.11231602723374962
1782814122744896500,1.410896484375,-0.022059856116771696,0.021230711816251278,0.07897629601866937
1782814122764978400,1.430978515625,-0.009946808996796607,0.06426525916159152,0.032474273492163044
1782814122785060400,1.451060302734375,0.04020341557264328,0.026451369073987006,0.04190650229663588
1782814122805142500,1.471142578125,0.1801806260615587,0.0018562953911721706,0.07815636707106605
1782814122825224400,1.491224365234375,0.12754969059228896,-0.02192526995167136,0.037925771230552345
1782814122845306400,1.511306396484375,-0.061252048820257185,0.07935586078763007,0.022156576223205774
1782814122865388300,1.53138818359375,-0.07847498629987239,0.06543664102852344,-0.004936360423639417
1782814122885470500,1.551470458984375,-0.03136719816625118,-0.002551438048481941,0.09951432199617848
1782814122905552400,1.571552490234375,-0.1222065759986639,-0.0061275429695844645,0.05887990372828208
1782814122925634300,1.59163427734375,-0.08142623732089996,0.025180180094391106,0.02575135844531469
1782814122945716500,1.611716552734375,-0.012610475248098373,-0.05878858131617307,-0.03992944833631627
1782814122965798400,1.63179833984375,0.010452420431375503,-0.0030316227808594703,-0.03221196929416619
1782814122985880300,1.65188037109375,-0.17623861043751238,0.043571138440072536,-0.06265557720893994
1782814123005962500,1.67196240234375,-0.17173954545259476,0.09264277399256825,0.04797577574034221
1782814123026044400,1.69204443359375,0.03826572550833225,-0.008540303199738263,0.02476889587976038
1782814123046126600,1.712126708984375,0.08759761943221092,-0.05265431634485721,-0.029413753410382194
1782814123066208500,1.73220849609375,0.051153264132142065,-0.019841887806355953,-0.10052776422188617
1782814123086290700,1.752290771484375,0.051823710739612575,-0.03610957038775086,-0.030436904179351403
1782814123106372600,1.77237255859375,0.06267302153408527,-0.03518734097629785,0.021020859324699267
1782814123126454500,1.79245458984375,-0.07352583945989609,-0.04130012476816773,0.013829723977902903
1782814123146536700,1.81253662109375,-0.1734142006665468,0.010513795229792594,0.04690973567771725
1782814123166618600,1.83261865234375,-0.11620587427914142,0.059844520109891886,-0.02422514439187944
1782814123186700000,1.852699951171875,-0.08361877892911433,0.04620090242177248,-0.06824786252435297
1782814123206782200,1.8727822265625,-0.02890168483555317,0.011641045694053172,-0.014428228727169335
1782814123226864000,1.892864013671875,-0.018324176719784736,-0.025807664342969654,0.0789263650628738
1782814123246946000,1.912946044921875,-0.002413490882515907,-0.02503916418850422,0.07570116507182828
1782814123267028000,1.933028076171875,0.023961305823922155,-0.0011532616883516312,0.07698692143289372
1782814123287110100,1.953110107421875,-0.020714286726713178,-0.017667320246249438,0.06604974512530025
1782814123307192000,1.973192138671875,-0.08634966519773006,0.01622486635297537,0.05652395171928219
1782814123327274000,1.99327392578125,-0.07155716973543166,0.04931888831183314,0.006159435945190489
1782814123347356200,2.013356201171875,0.02995733136832714,0.0576863191626966,0.02081591133712791
1782814123367438000,2.03343798828125,0.0564279896646738,0.01810088935792446,0.055200046171760185
1782814123387520000,2.05352001953125,0.08428162675201892,0.0000623977117240429,0.120093912959937
1782814123407602200,2.073602294921875,0.04149696251451969,0.022420067731291054,0.1335694075395353
1782814123427684000,2.09368408203125,-0.03266775937080383,0.12797829126790164,0.33017493430450556
1782814123447766000,2.11376611328125,0.010713701716065406,0.10454553936272859,0.5506412473946809
1782814123467848000,2.133847900390625,0.11249299123585224,-0.05873319786712527,0.7648890512961893
1782814123487930000,2.15393017578125,0.024021511578559872,-0.09296630685850978,0.9379503468718379
1782814123508012000,2.174011962890625,0.1548281581401825,-0.09022650663107633,0.913655717440322
1782814123528094000,2.194093994140625,0.21543197218477725,0.0700255762539804,1.1262502742420881
1782814123548176100,2.214176025390625,-0.01447626911997795,0.000012128829210996626,1.2485843490779398
1782814123568258000,2.234258056640625,-0.24980069025456905,0.12910773368924855,1.509649652929604
1782814123588340000,2.254340087890625,-0.10346563517153262,0.15699088913202286,1.4921891073018312
1782814123608422100,2.274422119140625,0.17149053912758827,0.14476196054741738,1.2723606537237762
1782814123628504000,2.294504150390625,0.3140805624634027,0.2208946215048432,1.0208348201770334
1782814123648586000,2.3145859375,0.2711947759389877,0.18259850085824728,0.9342631097264588
1782814123668668000,2.33466796875,0.16704700372219083,0.18255027780234812,0.8577573046077043
1782814123688750000,2.35475,0.16980886965095995,0.23062837227284907,0.6076798067057505
1782814123708832000,2.37483203125,0.24240181217491624,0.38544907775893805,0.51802163801454
1782814123728914000,2.394913818359375,0.14483458739221095,0.5878915122501551,0.4748353341735899
1782814123748996000,2.41499609375,-0.06891571531593799,0.6948708546310662,0.41349367084112015
1782814123769078000,2.435078125,-0.22015081740021705,0.739033675353974,0.3083624770775437
1782814123789160000,2.455159912109375,-0.07154547929763794,0.734012193930149,0.11736728274133056
1782814123809242000,2.4752421875,0.2826093194007873,0.6673223379701375,-0.21637809392847118
1782814123829324000,2.495323974609375,0.6072200437068939,0.5342530071735382,-0.45374370203446596
1782814123849406000,2.515406005859375,0.5105512290686368,0.3089347240075469,-0.45416707854568955
1782814123869488000,2.535488037109375,0.39496845512390133,0.11484627636373042,-0.5030817699708044
1782814123889570000,2.555570068359375,0.4178402121454477,0.052750177934765816,-0.6279463131323456
1782814123909652000,2.57565185546875,0.044100423011183734,-0.07958674693405628,-0.780181386039406
1782814123929734100,2.595734130859375,-0.4431932645887136,0.06741963153928518,-0.7854615183994174
1782814123949816300,2.61581640625,-0.7818027036309242,0.31448169061020015,-0.6569347264032811
1782814123969898200,2.635898193359375,-0.9808400058537721,0.2885961387254298,-0.6040617258064448
1782814123989980200,2.655980224609375,-0.9254273307114839,0.10930427819713949,-0.4874337536577135
1782814124010062300,2.676062255859375,-0.7582996629685163,-0.05982713058367371,-0.5549002200134098
1782814124030144300,2.696144287109375,-0.36966157990992066,-0.11198562623560428,-0.661712535264343
1782814124050226200,2.71622607421875,-0.20192133322656153,-0.09890490312725304,-0.573219720558077
1782814124070308000,2.73630810546875,-0.00511339749097824,-0.0831048380576074,-0.6114176415272057
1782814124090390300,2.756390380859375,0.011266074901819228,-0.23419556323513388,-0.572571266586706
1782814124110472200,2.77647216796875,-0.21807634921371935,-0.3434677657935768,-0.6724846161041408
1782814124130554000,2.79655419921875,-0.2848655738949776,-0.24513204085640608,-0.45669447813145814
1782814124150636300,2.81663623046875,-0.12946633786857129,-0.18500424682572483,-0.46883850491158663
1782814124170718200,2.83671826171875,-0.01625263114273548,-0.22286694449111819,-0.5706400062631816
1782814124190799600,2.856799560546875,-0.10694763206839561,-0.19427870951890944,-0.6320346784245222
1782814124210881800,2.8768818359375,-0.26424831780195235,-0.1994292241498828,-0.6158494864948093
1782814124230963700,2.896963623046875,-0.299816474789381,-0.18489106877483427,-0.594209463225305
1782814124251045600,2.917045654296875,-0.14750059173107147,-0.03678564301840961,-0.6590778028465807
1782814124271127800,2.9371279296875,-0.13544891940951345,0.018010069269314408,-0.7466608092315494
1782814124291209700,2.957209716796875,-0.15749123986959457,-0.05086735986284911,-0.6475812071245163
1782814124311291600,2.977291748046875,-0.18139818515777587,-0.10857844814062118,-0.45621655842140313
1782814124331373600,2.99737353515625,-0.15786942553222177,0.07962503311783074,-0.27625980424359436
1782814124351455700,3.017455810546875,-0.10174304916262626,0.15995543802604079,-0.22286161072887478
1782814124371537700,3.03753759765625,0.018947277054190633,0.08327361875325441,-0.21739399297274647
1782814124391619600,3.05761962890625,0.10962883397638797,-0.09987513639889657,-0.2533631319765001
1782814124411701800,3.07770166015625,0.001678162345290184,-0.19127448620162904,-0.23049510128200054
1782814124431783700,3.09778369140625,0.004867313775420189,-0.22791443713903425,-0.2981160275470465
1782814124451865600,3.117865478515625,0.014648703077435493,-0.18179785199984907,-0.2863808738287538
1782814124471947800,3.13794775390625,-0.04659808504581451,-0.12189349146150052,-0.17003822142742572
1782814124492029700,3.15802978515625,-0.24407412930130956,-0.179615466459468,0.0459040383670479
1782814124512111600,3.178111572265625,-0.2508919926226139,-0.19749993658773599,0.17879501692205665
1782814124532193500,3.198193603515625,-0.11780337260365485,-0.11231427366808056,0.08637450737804174
1782814124552275700,3.218275634765625,-0.06714870564341545,-0.015882994112744925,-0.06599646686837077
1782814124572357600,3.238357666015625,-0.1521305896192789,0.021035992961749433,-0.04641666406430304
1782814124592439600,3.258439453125,-0.17986556876301765,-0.0069725424263626335,0.1419104435738176
1782814124612520700,3.278520751953125,-0.0010725976675748825,0.05527209762781858,0.2724563203074038
1782814124632602600,3.2986025390625,0.17105682388544083,0.1410563109625131,0.19985351397655904
1782814124652684800,3.318684814453125,0.16835516371130943,0.04252601330131292,0.16681063768304882
1782814124672766700,3.3387666015625,0.15797522399425507,-0.06719196026325225,0.24981084632240233
1782814124692848600,3.3588486328125,0.2228495549649,-0.16212262599729,0.20598054548949002
1782814124712930600,3.3789306640625,0.16021978805065154,-0.13724975828640162,0.09406710770726204
1782814124733012700,3.3990126953125,0.03175882783234119,-0.02431837563328445,0.12389686717316507
1782814124753094700,3.4190947265625,-0.08600888893604278,-0.006740633366629481,0.08104132965654134
1782814124773176600,3.439176513671875,-0.21821546542346476,-0.04676211650110781,0.1340652099661529
1782814124793258800,3.4592587890625,-0.19203063833117484,-0.015306874725222587,0.08814670468233525
1782814124813340700,3.479340576171875,-0.1504571034491062,0.018036738080531356,-0.04055383644551039
1782814124833422600,3.499422607421875,-0.10952069742679596,0.039011648504808545,-0.02669314194060862
1782814124853504800,3.5195048828125,-0.05542378105819225,0.030438977405428884,-0.014708835766837
1782814124873586700,3.539586669921875,0.023749124377965926,0.029850363862514495,0.005077595525234937
1782814124893668600,3.559668701171875,0.09003039953708648,0.05386011193804443,0.00893865486755967
1782814124913750500,3.57975048828125,0.08716858036518096,0.05246821918822825,0.018411928068473932
1782814124933832700,3.599832763671875,0.09203764770627021,0.08244695867076515,0.0026028029095381496
1782814124953914600,3.61991455078125,0.05894026474654674,0.08278525071442126,-0.027272695394232868
1782814124973996500,3.63999658203125,-0.024491467177867886,0.1009169736020267,0.011283172167092561
1782814124994078700,3.66007861328125,-0.09299509456157684,0.0925607947975397,0.07479688230901956
1782814125014160600,3.68016064453125,-0.09305880744755267,0.09619710547327995,0.12373188586980104
1782814125034242600,3.70024267578125,0.02158990051746368,0.06511939177289605,0.060419762714579696
1782814125054324700,3.72032470703125,0.06323065541684628,-0.010345306795090436,0.06234890414625406
1782814125074406700,3.74040673828125,0.009837503403425216,-0.00049180210493505,0.048978404311090705
1782814125094488600,3.760488525390625,0.03447802366316318,0.03461355967633426,0.03768471074998379
1782814125114570500,3.780570556640625,0.12196516845822333,-0.012217457342520355,0.04625292486995458
1782814125134653000,3.80065283203125,0.13082593578398227,-0.065742857433483,0.07649141126722096
1782814125154734800,3.82073486328125,-0.049205052673816675,-0.021360329545289276,0.158417780129984
1782814125174816800,3.840816650390625,-0.12537936081588266,0.05272475123256445,0.10413666630089283
1782814125194899000,3.86089892578125,-0.009575053074955939,0.020656126798689365,0.06682743779979645
1782814125214980900,3.88098095703125,0.0954109235316515,-0.013893719991669058,0.017561887110397217
1782814125235062800,3.901062744140625,0.15062544575333595,-0.049445218105241655,0.11687763606086372
1782814125255145000,3.92114501953125,0.12360124522745608,-0.0849490776848048,0.2018792476505041
1782814125275227000,3.941226806640625,0.024005729487538336,-0.0541515691652894,0.13511676484569907
1782814125295308800,3.961308837890625,-0.07613397613167762,0.010734233047440648,0.0035821693357080218
1782814125315390700,3.981390625,-0.09975976639091969,0.017433584555611014,0.05619695738777518
1782814125335473000,4.001472900390625,-0.16607143668830393,-0.0831391787186265,0.0678363225813955
1782814125355554800,4.021554931640625,-0.15898235521018503,-0.09211049374677241,-0.029323928835615513
1782814125375636700,4.04163671875,-0.16028116284906863,-0.02253879874013364,-0.046734351711347696
1782814125395719000,4.061718994140625,-0.10549509517252445,-0.0462429149325937,0.014204466441273688
1782814125415800800,4.08180078125,-0.04230301820039749,-0.055172071319445966,-0.010100392123311758
1782814125435882800,4.1018828125,0.09784837981164454,-0.0196376704711467,-0.08116634427569806
1782814125455965000,4.12196484375,0.08531798406243324,-0.014008943869173526,-0.08680391177125274
1782814125476046800,4.142046875,0.033631051445007325,-0.013294804250448941,0.011756634897738694
1782814125496128800,4.162128662109375,-0.08857727811932563,-0.02489106095470488,0.04187544043809175
1782814125516210700,4.182210693359375,-0.003510638469457626,-0.016521292016282677,0.06120112235061824
1782814125536292900,4.20229296875,0.12186053903996943,-0.03558576570935547,0.02033690478168428
1782814125556374800,4.222374755859375,0.12359247739911079,-0.10512297392450272,0.05856850882470607
1782814125576456700,4.242456787109375,0.03739303432703018,-0.13593677599169313,0.08112988472282887
1782814125596539100,4.2625390625,-0.0783615890532732,-0.10552512498460709,0.06970869232453406
1782814125616621000,4.28262109375,-0.12242752527296542,-0.033007366588711735,0.013856895112618802
1782814125636703000,4.302702880859375,-0.0811024121940136,-0.04378616943024099,-0.029417233142256735
1782814125656785000,4.322784912109375,0.0009352350234985351,-0.11196268375143408,-0.00832965612374246
1782814125676867000,4.3428671875,0.035548867765069006,-0.12564203034006058,0.03585829904042184
1782814125696947700,4.36294775390625,0.043214872348308564,-0.12041048636212945,-0.014511559629067777
1782814125717030000,4.38302978515625,-0.03633212709724903,-0.09809205237440764,0.037439796078205106
1782814125737111800,4.40311181640625,-0.13882219523489475,-0.04767755084559321,0.12435907785743475
1782814125757193700,4.42319384765625,-0.08269055816829204,-0.0030293577585369345,0.06626286271959543
1782814125777276000,4.44327587890625,-0.014603110370039939,-0.046181832395121455,-0.06360606460049748
1782814125797357800,4.46335791015625,0.061037529286742206,-0.06716010382026434,-0.031091230769082902
1782814125817439700,4.483439697265625,0.09251227948069572,-0.15128215609639883,0.09449395481720566
1782814125837521700,4.503521728515625,0.06134966397583484,-0.11784238943979143,0.1946821026880294
1782814125857603800,4.523603759765625,-0.006018237376213074,-0.06015256314575672,0.04469714679531753
1782814125877685800,4.543685791015625,-0.0957242272645235,-0.0007381780814379453,-0.04879208795875311
1782814125897768000,4.563767822265625,-0.07642506803274154,-0.02715235695019364,0.003414923010021448
1782814125917850000,4.58385009765625,-0.06848901433646679,-0.055269978735968464,-0.010296353086829186
1782814125937932000,4.60393212890625,-0.07404138776659965,-0.006050970602035522,-0.043461321390047665
1782814125958014000,4.624013916015625,-0.10483341639339923,0.05405008155219256,-0.0270136791318655
1782814125978096000,4.64409619140625,-0.08117956908345222,0.028848566408827898,-0.013621551986783742
1782814125998178000,4.664177978515625,0.06573065553903579,-0.008770239498093723,0.0037986616306006906
1782814126018260000,4.684260009765625,0.11778466790318488,-0.028614903783425686,-0.03084427027069032
1782814126038342000,4.704341796875,0.07260930913686751,0.05606631674543023,-0.12876425401382147
1782814126058424000,4.724424072265625,-0.05092237798571586,0.087306527531147,-0.15006839639246464
1782814126078506000,4.744506103515625,-0.042209494698047634,0.11042575650773942,-0.13889569886252284
1782814126098588000,4.764587890625,-0.007854805153608322,0.08093801541253924,-0.09538556989468634
1782814126118670000,4.784670166015625,-0.03838730606138706,0.044179844922944904,-0.048727206028997896
1782814126138752000,4.804751953125,-0.055393970441818235,0.1037071157772094,-0.0426109151057899
1782814126158834000,4.824833984375,0.021240356427431106,0.03968699048310518,0.050832142418995495
1782814126178916000,4.844916015625,0.14704700274467467,-0.030936259403079747,0.07495229206643998
1782814126198997500,4.86499755859375,0.17454992669820785,-0.07443491712883114,0.05424414281956851
1782814126219079400,4.885079345703125,0.09717267250716685,-0.0806873285870999,0.061055357204377644
1782814126239161600,4.90516162109375,0.08955693680644035,-0.08822795322500168,0.07569514632299541
1782814126259243500,4.925243408203125,0.08570026137828826,-0.12205262754596768,0.07200586335100233
1782814126279325400,4.945325439453125,0.06544950051009654,-0.10859846801534294,0.046659313713759185
1782814126299407400,4.965407470703125,-0.09233750743567944,-0.062267874799296255,0.014868264112249016
1782814126319489500,4.985489501953125,-0.3007324205905199,0.028186668433994054,0.05363324437960982
1782814126339571500,5.005571533203125,-0.32230946162641044,0.08332936752848327,0.07732369737289846
1782814126359653400,5.0256533203125,-0.11897007829546928,0.05403261896073818,0.048544323742762206
1782814126379735600,5.045735595703125,0.08670622355043887,-0.0496061808206141,0.07375036893077194
1782814126399817500,5.0658173828125,0.24272563730180263,-0.14126060136295854,0.173283267763257
1782814126419898600,5.085898681640625,0.12278466814756393,-0.08600326291285455,0.09115918437130749
1782814126439980500,5.10598046875,-0.0900251388400793,0.013585603890568017,0.08638568635918199
1782814126460062500,5.1260625,-0.14524258367121218,0.03894537833556533,0.04799874562397599
1782814126480144400,5.146144287109375,-0.01774140839576721,0.04193630377985537,0.008389642682671547
1782814126500226600,5.1662265625,0.034524200892448426,0.05292772645875811,-0.10475311769880354
1782814126520308500,5.18630859375,-0.018166355809569358,0.018729981041699647,-0.08703034093827008
1782814126540390400,5.206390380859375,0.07981412594914436,0.002658697815239429,-0.07231478316970169
1782814126560472600,5.22647265625,0.16321838534474373,-0.01530541342049837,-0.1172338290873915
1782814126580554500,5.246554443359375,0.12142974640727043,-0.017130290760099885,-0.1069542810048908
1782814126600636400,5.266636474609375,-0.018594810354709623,-0.0435134899687022,-0.00009819967746734619
1782814126620718600,5.286718505859375,-0.18464052807986736,-0.008622647720947861,0.04081891712248325
1782814126640800500,5.306800537109375,-0.2305927164375782,0.016448153714835642,0.08576828511320055
1782814126660882400,5.32688232421875,-0.12223755565881729,-0.004342120857536792,0.06800802588649094
1782814126681591600,5.347591552734375,-0.013254618370532989,-0.026540143335983157,0.07666537959463894
1782814126701673500,5.367673583984375,0.07159633270204067,-0.027308862686157225,0.08429353638552128
1782814126721755400,5.38775537109375,0.05241700045764446,-0.015757541102170942,0.0930778774742037
1782814126741837600,5.407837646484375,0.07648761187493801,0.0015792320154607296,0.12752864780426024
1782814126761919500,5.42791943359375,0.12371639603972434,-0.03418612804450095,0.06767725956216454
1782814126782001400,5.44800146484375,0.06271919876337051,-0.01625708812214434,0.0035588615253567693
1782814126802083600,5.46808349609375,-0.006740121909976005,-0.012450681576505303,0.01182458556741476
1782814126822165500,5.48816552734375,0.031712650603055954,-0.06450710509344935,0.021838906842470168
1782814126842247400,5.508247314453125,0.0038970074385404584,-0.05180317940823734,0.047006227455288166
1782814126862329600,5.52832958984375,-0.18946283366978167,0.02583557526320219,0.011309329521656036
1782814126882410500,5.548410400390625,-0.24830314517319202,0.11686492270976305,-0.014516893391311167
1782814126902492400,5.568492431640625,-0.12308978857398033,0.1424686619784683,-0.04675941308736801
1782814126922574600,5.58857470703125,0.041560675400495524,0.06394128790423273,-0.01298478845320642
1782814126942656500,5.608656494140625,0.16020575952529906,-0.058201721338927745,0.06635609396100044
1782814126962738400,5.628738525390625,0.1329027420580387,-0.11907046993002295,0.12762918556928635
1782814126982820600,5.648820556640625,0.1468891818344593,-0.08884111668728291,0.10447145121321082
1782814127002902500,5.668902587890625,-0.03732990596294403,0.006258695068582892,0.022709479131922124
1782814127022357500,5.688357421875,-0.138301386231184,0.0292542976655066,0.04630947736278176
1782814127042439400,5.708439453125,-0.17124562445580957,-0.015163082340359686,0.05609349701330065
1782814127062521300,5.728521240234375,-0.11871756483912467,-0.02894289362877607,0.115373953499645
1782814127082603500,5.748603515625,-0.052291328251361846,0.0538045823585242,0.0572569878347218
1782814127102685400,5.768685546875,0.028535774132609364,0.01985679311454296,0.08465827804468572
1782814127122767400,5.788767333984375,0.00033610008656978605,0.0006733692169189453,0.13497947526685894
1782814127142849500,5.808849609375,0.018988193586468697,0.05509096890725195,0.09738733817115426
1782814127162931500,5.828931396484375,0.031157939329743384,0.12671594318188725,0.01984232619777322
1782814127183013400,5.849013427734375,0.11698153482675552,0.05982639993131161,0.036473069937899706
1782814127203095800,5.869095703125,0.14459084176421164,0.009349427625536918,0.06181012109443545
1782814127223178000,5.889177978515625,0.07164601706266403,0.0007555676076561212,0.04052051869779825
1782814127243260000,5.909260009765625,-0.0001391162097454071,-0.016946093299612403,0.0728494745682925
1782814127263341800,5.929341796875,0.030430209577083586,-0.07010989353656769,0.025876272599771617
1782814127283424000,5.949424072265625,0.035945758128166194,-0.08182824225053191,0.016229907854273914
1782814127303506000,5.969505859375,-0.04671440490186214,-0.07355857268571853,-0.01811513707898557
1782814127323587800,5.989587890625,-0.10344809951484203,-0.07306428636275232,0.014399623687192796
1782814127343670000,6.009669921875,-0.13243103289306163,-0.07055493389032781,-0.008282309850677847
1782814127363752000,6.029751953125,-0.09195815272927284,-0.05181435838937759,-0.08062273891828954
1782814127383832800,6.049832763671875,-0.049670916619896886,-0.007514394218102097,-0.12026684010773897
1782814127403915000,6.0699150390625,-0.011444354078173636,-0.02827960741445422,-0.04683730062916874
1782814127423997000,6.089996826171875,-0.022431027516722678,-0.014016761849448084,0.005709609818458557
1782814127444078800,6.110078857421875,-0.07767360678911209,0.025360651227831838,-0.05360036502331495
1782814127464161000,6.1301611328125,-0.007529810982942581,0.003187763190641999,0.058328781784698365
1782814127484243000,6.150242919921875,0.161906718224287,-0.044051688498631114,0.012726064451783895
1782814127504324900,6.170324951171875,0.18073358376920223,-0.12426372772417962,0.15070939770974218
1782814127524406800,6.19040673828125,-0.0968663830369711,-0.13256547292768955,0.13669183214269578
1782814127544489000,6.210489013671875,-0.11226502769887446,0.03685622403658926,0.16691555936224758
1782814127564571000,6.23057080078125,-0.19363865804970262,0.03237637520879507,0.010777560732513666
1782814127584652800,6.25065283203125,-0.17482757459580897,0.0805859871044755,0.027363734678551552
1782814127604735000,6.27073486328125,-0.1445224527031183,0.08244410912655294,-0.004833484571054578
1782814127624817000,6.29081689453125,0.03346913888156414,0.03609656477570534,-0.044157121634483334
1782814127644898800,6.31089892578125,0.1015711997270584,0.04360204503498971,-0.14783786086142062
1782814127664981000,6.33098095703125,0.11809446450471878,0.08629830033667385,-0.09049692107029259
1782814127685063000,6.35106298828125,0.05437631783187389,-0.010524462754279375,-0.035225700225308534
1782814127705144800,6.371144775390625,0.059738137125968926,-0.02641710147820413,0.03578896013125777
1782814127725226800,6.391226806640625,0.030327333724498747,-0.00344882527962327,0.08221395363248885
1782814127745309000,6.411308837890625,0.016604513320326805,-0.04990889009423553,0.08012991390004753
1782814127765389800,6.431389892578125,0.057709261646866794,0.01955700645036995,-0.01761624764613807
1782814127785472000,6.451471923828125,0.13242109602093696,-0.014422054714709519,0.06402487453445792
1782814127805554000,6.471553955078125,0.2880173159241676,-0.09655877839252353,0.11621164643280207
1782814127825635800,6.4916357421875,0.19216390932202337,-0.12072853933535516,0.2297152029506862
1782814127845718000,6.511718017578125,0.07538637263476848,-0.0349081587087363,0.19503325421325862
1782814127865800000,6.531800048828125,-0.092931381675601,0.09113733786568046,0.05859685813635587
1782814127885881900,6.5518818359375,-0.011319266393780707,0.15525800092481076,-0.08791377270929515
1782814127905963800,6.5719638671875,0.07213701545000076,0.08545359314084053,-0.09402385308742522
1782814127926046000,6.5920458984375,-0.004621814581751823,-0.03249101456440985,0.09961765450648963
1782814127946128000,6.6121279296875,-0.22712533258795736,0.006986863212659955,0.08829232369810343
1782814127966209800,6.632209716796875,-0.22805004621744154,0.040603666936606164,-0.07745265751481056
1782814127986292000,6.6522919921875,-0.09726327340006828,-0.025497794676199555,-0.01851721507385373
1782814128006374000,6.672373779296875,-0.06400573144257068,-0.08957724894210696,0.06480579577907919
1782814128026455800,6.692455810546875,-0.08025076380074024,-0.07824315030537546,0.02201484793126583
1782814128046538000,6.7125380859375,-0.08775660938620566,-0.02272065811306238,0.03239646814875304
1782814128066620000,6.732619873046875,0.10065817653536796,-0.06484744296371936,0.038286914426833386
1782814128086700800,6.75270068359375,0.18213643630445003,-0.17227438298165798,-0.052302068841084834
1782814128106783000,6.772782958984375,0.14537585466206074,-0.16451923881024122,0.036039062434807416
1782814128126865000,6.792864990234375,0.045209261035919185,-0.1974912418246269,0.06284443257823587
1782814128146946800,6.81294677734375,-0.01993921070098877,-0.10159918371252714,0.06010200200229883
1782814128167029000,6.833029052734375,-0.1529313846081495,-0.029219299417361615,-0.02057765473499894
1782814128187110700,6.853110595703125,-0.1612631596237421,0.03207461578324437,0.03815232826173305
1782814128207192600,6.873192626953125,-0.031256723529100416,-0.004319616764783859,0.04931472359336912
1782814128227274800,6.893274658203125,0.11050444776713847,0.027034356593713164,0.010140504937991499
1782814128247356700,6.913356689453125,0.25328911689221856,-0.008830737513676285,0.11005133370477706
1782814128267438600,6.9334384765625,0.22844284492731093,-0.16491864992398766,0.10883538204375653
1782814128287520800,6.953520751953125,-0.07211772622764111,-0.07463486014772205,0.07651340390332043
1782814128307602700,6.973602783203125,-0.42608547792136664,0.13783201515376567,-0.04706431431807577
1782814128327684600,6.9936845703125,-0.5030430453956127,0.11257548188753426,-0.1080487251780927
1782814128347765800,7.013765869140625,-0.471563034504652,0.10392126998454332,-0.12783000537101177
1782814128367847700,7.03384765625,-0.34751579907536506,0.12246142754256725,-0.07551058353632688
1782814128387929600,7.0539296875,-0.19063655362427234,0.13483736338242888,-0.08181684407368302
1782814128408011800,7.07401171875,0.005159574720263481,0.021550701018236577,-0.036081294141337275
1782814128428093700,7.09409375,0.09303951822519302,-0.06268029152508825,0.040353053176403045
1782814128448175600,7.114175537109375,0.11781330947577953,-0.04661021387502551,0.01917798053752631
1782814128468257800,7.1342578125,0.10645195750594139,-0.003900441504642367,0.024077369951643047
1782814128488339700,7.154339599609375,0.07164893967211246,-0.1330060197694227,0.12993779130522162
1782814128508421600,7.174421630859375,0.1385316878557205,-0.1820181436870247,0.19570384695120155
1782814128528503600,7.194503662109375,0.09803075064122677,-0.1300984617596492,0.09154299605712295
1782814128548585700,7.214585693359375,-0.056712651824951166,0.022746559739299118,-0.033926417662389574
1782814128568667600,7.234667724609375,-0.18694529789090156,0.03168890440128744,0.02262950923088938
1782814128588749600,7.25474951171875,-0.11022563082575797,0.021150705382600426,0.06350823024921119
1782814128608830700,7.274830810546875,-0.006378887382149696,0.008893427486345171,0.06108695791903883
1782814128628912600,7.29491259765625,0.11986965748369693,0.05336224541850388,0.07000968456510454
1782814128648994600,7.31499462890625,0.19546411991119383,0.015849968625977633,0.0037388942673802373
1782814128669076700,7.33507666015625,0.23419395579993724,-0.0005476970106363296,-0.023948482874967158
1782814128689158700,7.35515869140625,0.14569558813571928,-0.08856383411586284,0.08819514693394302
1782814128709240600,7.375240478515625,-0.009173486536741255,-0.07421542915925383,0.1428934267291799
1782814128729322800,7.39532275390625,-0.10308452689945698,0.011710822994634508,0.07363529118373989
1782814128749404700,7.41540478515625,-0.26120295875668526,0.10895042325817048,-0.03821114577688277
1782814128769486600,7.435486572265625,-0.28393092339336873,0.10476751155033708,-0.01642396912164986
1782814128789568800,7.45556884765625,-0.16739070259332656,0.00534238394126296,-0.034987105696462094
1782814128809650700,7.475650634765625,0.029155367335677144,0.017655775938928125,-0.065675966209732
1782814128829732600,7.495732666015625,0.1291688162267208,-0.025203999361395835,-0.07071176841985434
1782814128849813800,7.515813720703125,0.028517653954029082,-0.059184156505018466,-0.04371971659790724
1782814128869895700,7.535895751953125,-0.05330547372996807,-0.024628683691471812,-0.024066081372648478
1782814128889977600,7.5559775390625,0.05855623386502266,-0.05604271667413413,-0.004877981299906969
1782814128910059800,7.576059814453125,0.11898293777704239,-0.11076258724667132,0.02972896597255021
1782814128930141700,7.5961416015625,0.12662556148469448,-0.13720475010089575,0.07201163550466298
1782814128950223600,7.6162236328125,0.03725859429240227,-0.10441029561050236,0.09821589794978498
1782814128970305800,7.636305908203125,-0.09105039023458956,-0.07953772016055881,0.0766468575572595
1782814128990387700,7.6563876953125,-0.1251215866625309,-0.07148578499965369,0.09798132200893014
1782814129010469600,7.6764697265625,-0.006877484554052352,-0.08179572822041808,0.06200516874250024
1782814129030551600,7.696551513671875,0.14819792634546755,-0.10399294698126614,0.01261032911762595
1782814129050633700,7.7166337890625,0.2542769588857889,-0.10177212912663816,0.04321567606590688
1782814129070714600,7.736714599609375,0.28144904344975946,-0.09631379065550863,0.05005253634862601
1782814129090796800,7.756796875,0.27652327748537064,-0.08168466906137764,0.03397190077193081
1782814129110878700,7.776878662109375,0.14092939664721488,-0.0443121660657227,0.0013964593270793556
1782814129130960600,7.796960693359375,-0.15501169801354409,0.027299145009741184,-0.04436937614567578
1782814129151042800,7.817042724609375,-0.3509779222279787,0.15310454921796918,-0.05637052385639399
1782814129171124700,7.837124755859375,-0.4253957420915365,0.16287556325644253,-0.05262783019673079
1782814129191206700,7.85720654296875,-0.4805868834376335,0.19677516597714273,0.0028657281620427964
1782814129211288600,7.87728857421875,-0.43468847109377384,0.1713085701568052,0.001930018214508891
1782814129231370800,7.897370849609375,-0.13089315580129623,0.06333353126943111,-0.0019511340677738189
1782814129251452700,7.91745263671875,0.14144611399769783,-0.10719393497966229,0.07304203799832612
1782814129271533800,7.937533935546875,0.22467267873883245,-0.18348047132454812,0.1355707191582769
1782814129291615700,7.95761572265625,0.2307195576876402,-0.16424546337015927,0.1511549860527739
1782814129311697700,7.97769775390625,0.18325462667942047,-0.12571860270760954,0.14358075140621512
1782814129331779800,7.99777978515625,-0.03342413069605827,-0.06194806826040149,0.08681260653436183
1782814129351861800,8.01786181640625,-0.22620587965548036,0.017583002963662147,0.02078775382172316
1782814129371943700,8.037943603515625,-0.1720072564780712,0.060291460159793496,0.0010976590435951947
1782814129392025600,8.058025634765626,0.02125321590900421,0.03523161850944161,-0.036429303861409426
1782814129412107800,8.078107666015624,0.12872750220000742,-0.0044615825187414885,-0.013095263090357183
1782814129432189700,8.098189697265624,0.02795534389615059,0.024577464960888026,0.023031550693139433
1782814129452271600,8.118271728515625,-0.013216039925813675,0.046597573589161036,-0.00974854647833854
1782814129472352800,8.138352783203125,0.045234979999065394,0.10979359608404338,-0.0485955790059641
1782814129492434700,8.1584345703125,0.05351531708836555,0.05588818369954824,0.03568944527953863
1782814129512516900,8.178516845703125,0.1415735397696495,-0.04177497573830187,0.06419266884941607
1782814129532598800,8.198598876953126,0.19721593201458454,-0.09483692303597926,0.046060178776830434
1782814129552680700,8.2186806640625,0.10019114354550838,-0.13596512530334293,0.07580386739447713
1782814129572762600,8.2387626953125,-0.12545008796453475,-0.09887998788170516,0.09570957768466323
1782814129592844800,8.2588447265625,-0.26807401356995103,-0.013355229200795292,-0.017081483182311057
1782814129612926700,8.2789267578125,-0.26954934681952,0.004631751453876495,-0.06436630838327109
1782814129633008600,8.299008544921875,-0.13728899431824684,-0.06357084715664386,0.013110533724725246
1782814129653089800,8.31908984375,0.03958616045713424,-0.11819953231438994,0.08430833209585398
1782814129673171700,8.339171630859376,0.09996551809608936,-0.09602883623428642,0.031247115450538692
1782814129693253600,8.359253662109374,0.09829261644780635,-0.0005992810674011707,-0.04076601789146662
1782814129713335800,8.379335693359375,0.03140869922041893,0.010288315910845995,0.005163666373491287
1782814129733417700,8.399417724609375,-0.027868834656476972,-0.0288397985804826,0.05750884370394051
1782814129753499600,8.419499755859375,0.072662500628829,-0.06581869914866983,0.0660978814162314
1782814129773581800,8.439581787109375,0.22893793496787546,-0.017652999459952114,-0.02211922162119299
1782814129793663700,8.459663818359376,0.22553075687289237,0.013867197310924529,-0.11419522857647388
1782814129813745700,8.47974560546875,0.12837737358808518,0.021017726652696727,-0.026878508444875476
1782814129833826800,8.499826904296874,0.24628303752243516,-0.06439582673870027,0.06541315055508166
1782814129853908700,8.51990869140625,0.08790273985862732,-0.023704919910058377,-0.004155366113781929
1782814129873990700,8.53999072265625,-0.3156546799123287,0.1690416116055101,-0.006082315588369965
1782814129894072800,8.56007275390625,-0.4088122715592384,0.1920404290728271,0.036308892352133984
1782814129914154800,8.58015478515625,-0.34905016903579233,0.09478099159765987,0.08671152078006417
1782814129934236700,8.600236572265626,-0.1827688889890909,0.055189241649955506,0.12362316479831933
1782814129954318800,8.62031884765625,-0.15962065311372278,-0.0075683894276618955,0.1642181004391983
1782814129974400800,8.64040087890625,-0.15522212589383125,-0.0087565762989223,0.27953546491339804
1782814129994482700,8.660482666015625,-0.0629810645699501,-0.05097535028196871,0.24414635428730397
1782814130014563800,8.680563720703125,0.1675420937627554,-0.09811192611865699,0.23447076344732193
1782814130034645800,8.700645751953125,0.21688275551497935,-0.14116291314214466,0.1974851043447852
1782814130054727700,8.720727783203126,0.13575345531404018,-0.14513452018685638,0.16876166215296834
1782814130074809900,8.740809814453126,0.11824234854280948,-0.09329977659657597,0.07935637224428355
1782814130094891800,8.760891845703124,0.03198737589120865,-0.056083633206412194,-0.030350276208668946
1782814130114973700,8.7809736328125,-0.02574702019691467,-0.0014544365920126437,-0.038626375514268875
1782814130135056000,8.801055908203125,0.0006663549542427063,-0.018605952803231775,-0.14564480779655276
1782814130155137800,8.8211376953125,0.0033493104279041287,0.031757987582124766,-0.11740352309849113
1782814130175219000,8.841218994140625,-0.10569558618068695,-0.002205839481204748,-0.045687071148119866
1782814130195300900,8.86130078125,-0.11296820753216742,0.00635886750742793,0.016350684689730405
1782814130215382800,8.8813828125,0.04133738803863525,-0.015510178744979201,-0.0009366232629865408
1782814130235464700,8.901464599609374,0.09691022217869757,-0.020490451375581323,0.02096811535730958
1782814130255547000,8.921546875,-0.06980769571959972,-0.024419424854964015,-0.007481989785842597
1782814130275628800,8.94162890625,-0.11947276712059975,0.04789904810916632,0.07470430865474045
1782814130295710700,8.961710693359375,-0.13668752129375933,-0.012576244184933602,0.06530826540850103
1782814130315793000,8.98179296875,-0.11764029099643229,-0.0041206601265817875,0.10864300127681344
1782814130335874800,9.001874755859374,-0.17581892372071742,0.013059168863669037,0.07658771124854684
1782814130355955700,9.021955810546874,-0.1305062023103237,0.002581796654127538,0.03883643806837499
1782814130376038000,9.042037841796875,-0.027373744615912434,-0.07066686983220279,0.0724221525343135
1782814130396119800,9.062119873046875,0.12371931864917278,-0.1492992751834914,0.12439564700815826
1782814130416201700,9.08220166015625,0.19069675937891006,-0.1143992632485926,0.09484075896088033
1782814130436284000,9.102283935546875,0.12294658071100711,-0.032431174135953186,0.019584296316094697
1782814130456365800,9.12236572265625,0.08113397637605667,-0.0009327142728492617,0.008021905348822474
1782814130476447700,9.14244775390625,-0.10443126533329486,-0.001259608139656484,0.008186959717422723
1782814130496530000,9.162530029296875,-0.24462416439950466,0.018931604561023413,-0.009351546517387031
1782814130516610800,9.18261083984375,-0.14544891989827155,0.016544599826633928,0.024013620533049104
1782814130536692700,9.202692626953125,0.027456162202358244,-0.04454546336494386,0.02903740351181477
1782814130556775000,9.22277490234375,0.07330605922937393,-0.008463438571244477,-0.008815284216217696
1782814130576856800,9.24285693359375,0.005095277312397957,0.01791340396180749,-0.027842531171441077
1782814130596938800,9.262938720703126,-0.012518120789527892,0.004527706557512283,0.02551788761615753
1782814130617021000,9.28302099609375,0.036681671187281606,0.042618367759883403,0.06221267401333898
1782814130637102800,9.303102783203125,0.0575216301202774,0.018108415077254175,0.08095485694948583
1782814130657184800,9.323184814453125,0.014009236130118369,0.037198753863945604,0.07557868033647537
1782814130677892900,9.343892822265625,0.00006897358298301697,-0.010267419253289698,0.1073101087052375
1782814130697975000,9.36397509765625,0.05413315672576427,-0.010023819755762815,0.10877674719169736
1782814130718057000,9.384056884765625,0.12601765871942042,-0.0026017069309949873,0.04642006159778684
1782814130738139000,9.404138916015626,0.11259820517599582,0.0017928017009049653,0.026449725106172262
1782814130758220800,9.424220703125,0.010400397983193397,-0.014350012391805647,0.04820500878579914
1782814130778303000,9.444302978515625,-0.08544891696572303,-0.03699497492015361,0.008000424169376493
1782814130798385000,9.464385009765625,-0.0012596446722745894,-0.04254581398032605,-0.0511987472416833
1782814130818466800,9.484466796875,-0.05307867923676967,-0.008768266736716032,-0.057751201092451805
1782814130838548000,9.5045478515625,-0.18385551518201826,0.03314071064479649,-0.014521606099046767
1782814130858630000,9.5246298828125,-0.15976152288913725,0.07339534494802355,-0.016079904924333095
1782814130878712000,9.544712158203126,0.005152560457587242,0.04599536991231143,-0.03899462430477142
1782814130898794000,9.5647939453125,0.1101069728821516,0.019338906720280647,0.008748758318647742
1782814130918876000,9.5848759765625,0.11514964322447777,-0.06689334264285862,0.09248477041926234
1782814130938957800,9.604957763671875,0.08287585160732269,-0.08259688853546976,0.12164773653950542
1782814130959040000,9.6250400390625,0.0824000507891178,-0.059260144350677724,0.04119293806664646
1782814130978495000,9.644494873046876,-0.0253536369651556,0.01795271305888891,0.0188194494234398
1782814130998577000,9.664576904296876,-0.148866619387269,0.0457379610851407,0.01238437487464398
1782814131018658800,9.684658935546874,-0.179945063740015,0.030399887504056096,-0.03692563601098955
1782814131038741000,9.704740966796875,-0.09647767598032951,0.05586662945486605,-0.021429924182780086
1782814131058822000,9.72482177734375,0.004895955348014831,-0.004649433241039514,-0.035684476843476295
1782814131078903800,9.74490380859375,0.12130115159153937,-0.05946392329446971,-0.00564947712905705
1782814131098986000,9.764986083984375,0.06724515175521373,-0.05936871929168701,-0.018701412534341214
1782814131119068000,9.78506787109375,-0.027246903365850447,0.00670950757600367,-0.04597564229853451
1782814131139149800,9.80514990234375,-0.017364391776919366,-0.04219860797785222,0.006581899140961468
1782814131159232000,9.82523193359375,0.07167875028848647,-0.10156542757339775,0.10251465458963066
1782814131179314000,9.84531396484375,0.019919336956739423,-0.08913893059007823,0.031213505441881714
1782814131199396000,9.86539599609375,-0.10611001220047474,0.021780893044918773,-0.0139817636013031
1782814131219477200,9.885477294921875,-0.12879706030488014,0.019076748652756215,0.031154614861495792
1782814131239559200,9.90555908203125,0.019274609312415123,-0.03782346163354814,0.09069847152438014
1782814131259641000,9.92564111328125,0.05253799648880958,-0.03618044366687536,0.0928969314167276
1782814131279723300,9.94572314453125,0.05907236669361591,0.010028130604699254,0.0579698488118127
1782814131299805200,9.96580517578125,0.017484218764305115,0.031242256612330672,0.032865729628317054
1782814131319887000,9.98588720703125,0.09505845683217048,-0.006028904900699854,0.050058125839196145
1782814131339969300,10.00596923828125,0.14133914649188517,-0.07256736969128251,0.08711780002601444
1782814131360051200,10.02605126953125,0.008011457020044327,0.0009239829771220683,0.070695365274325
1782814131380133000,10.046133056640626,-0.2834703201442957,0.05247917897365987,0.024258389074355364
1782814131400214300,10.06621435546875,-0.3454208726227283,0.10039740670733154,0.06384206531345844
1782814131420296200,10.086296142578124,-0.2030868698745966,0.04132876634076237,0.07949943397678434
1782814131440378000,10.106378173828125,0.14981588293612003,-0.026079320891201494,0.09081778705511241
1782814131460460300,10.126460205078125,0.36483050649166104,-0.05224398197829723,0.04673110030833631
1782814131480542200,10.146542236328125,0.34125440059304235,0.016525529799982903,-0.025553433853574097
1782814131500624100,10.1666240234375,0.5851181020140648,-0.04995375214926898,0.07551500398311764
1782814131520706300,10.186706298828126,0.5717535935282707,-0.1152214298190549,0.011487572165392338
1782814131540788200,10.206788330078124,-0.12977145829498768,-0.0418244774358347,0.031532216002233326
1782814131560870100,10.2268701171875,-0.5829407579749822,0.05115289880596101,0.27574221011027694
1782814131580951300,10.246951416015625,-0.7873077307879924,0.07136548308823257,0.03474741518907249
