time,seconds_elapsed,z,y,x
1782816157086311400,0.0643115234375,0.06601122604608535,1.5891363004900514,-3.331215676026046
1782816157106393300,0.084393310546875,0.6393816071212292,1.8548769026763736,-3.333307972130179
1782816157126474500,0.104474609375,1.2183330031991004,1.3600786846652626,-2.979871550834179
1782816157146556400,0.124556396484375,1.1566343796551226,2.3524261729612945,-2.6286478371515867
1782816157166638300,0.144638427734375,1.9726742839306592,2.555685184532404,-3.0187960325121876
1782816157186720500,0.164720458984375,4.192668547216058,2.821507912044227,-2.143540553680062
1782816157206802700,0.184802734375,5.00498621609807,-1.4034012551717459,-2.2408555572673676
1782816157226884600,0.204884521484375,8.947930060905218,-2.7482833936184643,5.382068301397561
1782816157246966500,0.224966552734375,-4.851448097768426,-3.219388747483492,5.384947071704268
1782816157267048700,0.245048583984375,-1.0522703343391417,-2.049261264526844,0.6273260623421519
1782816157287130600,0.265130615234375,0.7348615042358636,-0.5538229461707175,0.24300080098137258
1782816157307211500,0.28521142578125,0.7067693822175264,0.9123070062451064,-0.9338152928937226
1782816157327293400,0.30529345703125,0.024124387431144714,0.7926167969815433,-0.8296737312220036
1782816157347375400,0.325375244140625,-0.22495208020210264,0.2891372598648071,0.6788244866501539
1782816157367457300,0.345457275390625,0.23875030393004415,0.6730328245714307,2.185087785077095
1782816157387539500,0.36553955078125,0.1242588323533535,0.8083131094157695,2.2244968354016543
1782816157407621400,0.385621337890625,0.4498825330942869,0.035307533289864655,2.50446119325161
1782816157427703300,0.405703369140625,-0.6396311979681253,-1.1389472587298601,3.592645137014985
1782816157447785500,0.425785400390625,-1.013828083220124,-0.5011472217116505,2.229284654200077
1782816157467867400,0.445867431640625,-1.9702076015561818,0.2639083452578634,1.1446182901035993
1782816157487949600,0.465949462890625,-3.031887569275498,0.560024686887674,1.2428653869092463
1782816157508030500,0.486030517578125,-3.4683336976915595,1.1249745552178472,0.7706401621688157
1782816157528112400,0.5061123046875,-2.9779654249519107,1.0860002430487423,0.23540543221523985
1782816157548194300,0.5261943359375,-2.516066290849447,0.2428902532789856,0.4593546372514218
1782816157568276500,0.5462763671875,-0.5540794051498175,-0.06582271773666143,0.996252021453902
1782816157588358400,0.5663583984375,0.9658832597404717,-0.10724109858963637,0.4715305935397744
1782816157608440300,0.5864404296875,1.2972212464749813,-0.6138244834732264,0.5137944487735628
1782816157628522500,0.6065224609375,0.9194634538710117,-0.7728352610602974,-0.6154742965068668
1782816157648604400,0.6266044921875,0.07874678897857666,-1.0021657024770974,-0.4094227316077798
1782816157668686300,0.646686279296875,0.6883119345068931,-0.31694954202845693,-0.1150911910355091
1782816157688767500,0.666767578125,1.6697557514727115,-0.35719168217629194,0.6668091277509928
1782816157708849400,0.686849365234375,0.7287707861453294,-0.7191478753406554,0.9556339606657623
1782816157728931300,0.706931396484375,-0.11783669035136698,-0.4762339489251375,0.6884967895545065
1782816157749013500,0.727013427734375,1.2083248194038867,0.23021869549341498,0.4426201408758759
1782816157769095400,0.747095458984375,1.4134680372864008,-0.7712481379993259,0.03935761239826679
1782816157789177300,0.76717724609375,0.6540712267309426,-0.3774810945544392,-0.699725162794441
1782816157809259500,0.787259521484375,1.0073001427561044,0.4037059613961726,-0.7248072893418371
1782816157829341400,0.807341552734375,0.2795072617322206,-0.0719053438522853,0.011606924228742719
1782816157849423400,0.82742333984375,-1.316528004491329,1.1916651418302207,1.444343506412953
1782816157869504500,0.84750439453125,-1.4026602275460958,1.6531272727549076,1.7248147908717393
1782816157889586400,0.86758642578125,-1.104499118748307,0.2362997141738422,2.1089459178999066
1782816157909668400,0.88766845703125,-4.664404600200057,0.161160539499484,0.7057979068368673
1782816157929750500,0.90775048828125,-9.128081460872291,0.4638400025045499,-0.20685151963774115
1782816157949832400,0.92783251953125,-8.866236697080732,1.2845014656335114,-0.8061929023914038
1782816157969914400,0.947914306640625,-6.662980802628398,1.3895701520875094,-1.4332263384625314
1782816157989996500,0.96799658203125,-5.626746241810918,0.6119700147129595,-1.3434414381191133
1782816158010078500,0.988078369140625,-5.332530071246624,-1.5423141974300145,-1.3020254318863154
1782816158030159400,1.008159423828125,-4.908495680636167,-1.1830147293195128,-2.3841002451196314
1782816158050241500,1.028241455078125,-3.4802094289243217,-0.9376711646042764,-2.9498867469370365
1782816158070323500,1.048323486328125,-0.4829179567337036,-0.05224186308644712,-2.5171467795625326
1782816158090405400,1.0684052734375,1.6936480837136505,0.5030448720265179,-1.4567251413412392
1782816158110487600,1.088487548828125,1.7973557109475136,0.8185805286690593,0.2436374914497137
1782816158130569500,1.108569580078125,0.68296531278193,-0.32046763315200805,-0.2948384671811014
1782816158150651100,1.128651123046875,0.9767103587031364,-1.2060882925234735,0.24243644509688017
1782816158170733300,1.1487333984375,2.667663211983442,-1.892831808669865,1.0797373101964591
1782816158190815200,1.168815185546875,5.977649929758906,-1.4729909242264925,1.8095716339200734
1782816158210896100,1.188896240234375,8.06225197225809,-1.2892717487752436,1.2853057677537203
1782816158230978300,1.208978271484375,8.28032481434047,-1.435205091189593,0.10277516868934035
1782816158251060200,1.229060302734375,7.411293909111619,-1.281484748160839,-0.07160583118274808
1782816158271142100,1.24914208984375,7.556393284919857,-0.8227323145862668,0.5579694713909179
1782816158291224300,1.269224365234375,8.26333685466051,-0.44600985637940466,1.036421315561235
1782816158311306200,1.28930615234375,7.768637859240174,-0.2027893482327461,0.47041386446952815
1782816158331388200,1.30938818359375,6.0712330533415075,0.11519742788895963,0.1515596578635275
1782816158351470300,1.32947021484375,5.767883143728971,0.3716167690983042,1.081940373198688
1782816158371551200,1.34955126953125,6.523541352277994,1.2586512773230671,1.5551424070820212
1782816158391633200,1.369633056640625,7.153025834763049,0.6568259322665632,2.2973582196034488
1782816158411715300,1.38971533203125,3.4969191561847923,-0.3091339363740757,1.9229893387854098
1782816158431797200,1.40979736328125,-0.19446634104549884,1.0991527162190526,1.7514488230362533
1782816158451879200,1.429879150390625,-4.580154537630081,3.0109032334357497,1.6439049786403774
1782816158471961300,1.44996142578125,-12.569495587456226,2.909381718069315,3.8820685203447938
1782816158492043300,1.470043212890625,-12.706617408514022,0.6120832658290862,4.211953677922487
1782816158512125200,1.490125244140625,-12.412301284706592,-1.9867799661725758,2.138081265360862
1782816158532207400,1.510207275390625,-15.214761089670658,-3.506268876071274,0.1562162149650976
1782816158552288300,1.530288330078125,-19.481338338184354,-3.3425279281571507,-3.9813200449526307
1782816158572370200,1.5503701171875,-19.52025580559969,-1.5909757908768951,-6.877444222041964
1782816158592452400,1.570452392578125,-9.013024756628274,-1.6843991938531397,-6.013964521199465
1782816158612534300,1.5905341796875,-1.3500269539892673,-1.050025624152273,-3.4128961803689597
1782816158632616200,1.6106162109375,-1.9955255826860665,-0.18044366091191769,-1.127416760738194
1782816158652698400,1.630698486328125,-3.618422552350163,-1.6324518567338584,1.37396838606894
1782816158672780300,1.6507802734375,-2.591972887966037,-4.144211974821984,0.41222091095894575
1782816158692862200,1.6708623046875,0.9785603704839945,-4.8229447646006935,-0.11921338553205132
1782816158712943400,1.690943359375,5.011376209396124,-3.935632645010948,1.1571084269076586
1782816158733025300,1.711025390625,8.589792330050468,-2.5339549987614154,2.5593039595514533
1782816158753107200,1.731107177734375,10.816870998638867,-1.5915183733209968,3.2023692236214876
1782816158773189400,1.751189453125,12.484435962069034,-1.147099585525319,2.621211841931939
1782816158793271300,1.771271240234375,12.764943340754508,-0.7632606463767587,1.7344839519709347
1782816158813353200,1.791353271484375,12.064601945757865,-0.46765389823690057,1.179833322804421
1782816158833435400,1.811435302734375,11.067473068404198,0.05087707753926515,1.1479546679846941
1782816158853517300,1.831517333984375,9.898513460183143,0.750293758906424,0.8697234906028956
1782816158873598500,1.851598388671875,8.277855793878436,1.5533416412703691,0.6918988530829548
1782816158893680400,1.871680419921875,7.483157368317246,2.2778229135282335,0.7467225493561476
1782816158913762300,1.89176220703125,7.35140554986,3.138157740473747,1.2622650839060545
1782816158933844200,1.91184423828125,5.829509286558627,4.468991041432321,1.5666608493097125
1782816158953926400,1.931926513671875,3.431324109724164,6.085056996032595,1.8084367846712468
1782816158974008300,1.95200830078125,3.398988943308592,4.714640164965391,-1.0902023709136992
1782816158994090200,1.97209033203125,3.1356220845162865,0.6301535408530384,-2.950160010920465
1782816159014172400,1.99217236328125,-1.7539701582074165,-2.986531008723378,0.5884852403596044
1782816159034254300,2.01225439453125,-9.711852239930629,0.19278890935257076,3.5373403061613438
1782816159054336300,2.032336181640625,-18.207526024347544,0.11086945428778416,1.8170578980222343
1782816159074417400,2.05241748046875,-22.357497001087665,0.4830416196459904,-2.196739644426107
1782816159094499300,2.072499267578125,-18.94015991566181,1.033787459926307,-3.379611165882647
1782816159114581200,2.092581298828125,-15.222998172140121,-2.600183959211409,-4.938825936970114
1782816159134663400,2.112663330078125,-17.98805208329558,-3.679677231518924,-2.7229084216043353
1782816159154745000,2.1327451171875,-20.804071627056597,-4.623291084045172,-2.8949492880910634
1782816159174827000,2.152826904296875,-17.17517268887758,-3.600550795572996,-3.239008224710822
1782816159194909200,2.1729091796875,-7.972702049714327,-1.196994447094202,0.9910996071267872
1782816159214991000,2.1929912109375,1.1879793659895659,-0.18555442805439232,2.904191163688898
1782816159235073000,2.213072998046875,6.476443501016497,0.6806085935879498,2.571695239090919
1782816159255154200,2.233154296875,10.32605381308794,1.307896954268217,1.2869310308679938
1782816159275236000,2.253236083984375,11.727813292402029,1.9118664717465639,-0.02509494949635118
1782816159295318000,2.273318115234375,11.174169356060027,2.7264196445956825,-0.19874913293123245
1782816159315400200,2.293400146484375,11.558405989289284,3.2429157535433766,0.6759137137699872
1782816159335482000,2.313482177734375,11.588335848128795,2.8984441444694995,0.7012589482329785
1782816159355564000,2.33356396484375,9.853224704170227,3.0069220548450946,0.28425803645588454
1782816159375646200,2.353646240234375,8.608667710912227,3.670717972254753,0.4234428544580936
1782816159395728100,2.37372802734375,9.427244440189003,4.492297975000739,1.2928770797908304
1782816159415810000,2.39381005859375,8.959946661913394,5.500085024490952,2.2970799871839582
1782816159435892200,2.413892333984375,9.569108487337827,4.935163907331228,2.7596891692519185
1782816159455973000,2.43397314453125,10.498896935868263,4.7346211689814925,3.095534988799691
1782816159476055000,2.454054931640625,8.333421613755823,3.3917882181495425,2.9021014979332684
1782816159496137200,2.47413720703125,3.0670553287684914,2.223017995020747,1.439833189381659
1782816159516219100,2.49421923828125,-0.9126309775024652,0.47771629643738267,-0.2526794605612755
1782816159536301000,2.514301025390625,-5.424640784189105,-4.5173423998862505,-1.216288710955158
1782816159556383200,2.53438330078125,-11.147751304733752,-3.9402509524613616,-3.0621394996762272
1782816159576465200,2.554465087890625,-12.298646848475933,-3.734001526902616,-1.70872787168473
1782816159596547000,2.574547119140625,-11.988489012414217,-4.524228067746758,-5.032213245719671
1782816159616629200,2.594629150390625,-13.152967675828933,-3.8638554027840493,-7.842182987922429
1782816159636711200,2.614711181640625,-13.254977266973256,-0.26509689745530485,-5.15030654118061
1782816159656792000,2.6347919921875,-6.155359781792759,2.249093954911083,0.3187655054092407
1782816159676874200,2.654874267578125,-0.22159341742396355,1.6404985311977565,1.6101045619778334
1782816159696956200,2.6749560546875,-0.316543737706542,0.997117040785402,0.6982729912247508
1782816159717038000,2.6950380859375,-3.0934903312295674,0.8201020391479134,0.9263629310611635
1782816159737120300,2.715120361328125,-4.422099818658828,1.140678393371403,2.6164415587902066
1782816159757202200,2.7352021484375,0.1908995884746313,0.6019609541349112,2.77264801954627
1782816159777284000,2.7552841796875,4.369561822170019,-0.0703381493344903,1.2915835328489542
1782816159797366000,2.775365966796875,5.222234297794103,-1.1425859805583953,-0.06871566269919276
1782816159817448200,2.7954482421875,5.2748395143002265,-1.0477451850648969,0.0567412203323096
1782816159837529000,2.815529052734375,6.748772249421477,-0.8254164391037077,0.7731938652396202
1782816159857611300,2.835611328125,8.063385944724082,-0.7641183591846377,0.9728601130157708
1782816159877693200,2.855693115234375,6.680795276260375,-0.8150595880012959,0.12018281508609652
1782816159897775000,2.875775146484375,4.784107084423304,-0.16698743728836998,-0.900449979712814
1782816159917857300,2.895857177734375,3.6438831568211314,1.177385491260886,-0.10975669813975691
1782816159937939200,2.915939208984375,2.977776624381542,2.1806829742468894,0.4896446346402168
1782816159958021000,2.936021240234375,3.8297903438359495,3.014249036732316,1.4791855410829187
1782816159978103000,2.95610302734375,5.057028538024425,2.61630478066802,2.1653318219885227
1782816159998185200,2.976185302734375,6.737920016017556,2.3549358176946638,0.525632332213968
1782816160018267100,2.99626708984375,7.346569215744734,0.37115269525051114,2.9144463079825043
1782816160038348000,3.01634814453125,2.2200141370296476,-0.9148726189494133,5.212245987743139
1782816160058430000,3.036429931640625,-0.7934048786193132,-3.3990304443627593,3.96443408434242
1782816160078512000,3.05651220703125,-1.833349399870634,-4.2993893847912545,-2.582199097448587
1782816160098594300,3.07659423828125,-10.817199499940871,-1.6295383073747156,-8.05837600760758
1782816160118676200,3.09667626953125,-20.058432123696804,1.6726371521279215,-8.695330095320939
1782816160138758100,3.116758056640625,-19.79476832778454,4.430216781879961,-9.05236541789174
1782816160158840800,3.1368408203125,-10.111612605506181,3.783748139107227,-4.719459547945857
1782816160178923000,3.156923095703125,-4.015374290245771,3.3546579264119267,-2.073651609417796
1782816160199005000,3.1770048828125,-3.6671278388082977,3.364778630670905,2.2601685988940297
1782816160219086800,3.1970869140625,-2.6919033347487447,0.4098746400937438,3.6802836729794737
1782816160239168000,3.21716796875,0.30212124460041523,-1.9759189649403095,2.8147531770870087
1782816160259250000,3.23725,3.8563966112107035,-3.580470130574703,2.0960756226718424
1782816160279331800,3.257331787109375,4.5828106050968165,-4.603175639994443,1.2784902425199747
1782816160299414000,3.2774140625,4.645218253692985,-4.288424046401679,1.5445366957850752
1782816160319496000,3.297495849609375,4.575847195824981,-3.513466678620875,1.2989182596512139
1782816160339577900,3.317577880859375,5.549337423437834,-2.895203555113077,0.10045483598299323
1782816160359660000,3.337659912109375,6.382672745907306,-2.1656401572853325,0.3511790708232671
1782816160379742000,3.357741943359375,6.788306971952319,-2.733736689610779,0.8665979789935052
1782816160399824000,3.377823974609375,5.821326564624905,-1.7304437366694212,0.5046677239879965
1782816160419905800,3.39790576171875,4.361961868560314,-0.6120236445963383,0.6711505179561674
1782816160439987000,3.417987060546875,2.6109306864142416,0.8593145439870655,0.5567385413564742
1782816160460068900,3.43806884765625,4.061507680389285,0.9835800983421504,0.8691021438341587
1782816160480151000,3.458151123046875,4.357470402359962,0.575011134019494,0.5400316636402159
1782816160500233000,3.47823291015625,0.2622773099899292,1.716172634732723,0.05267857400327921
1782816160520315000,3.49831494140625,-4.722565697267651,2.707975348627567,1.1308964926127343
1782816160540397000,3.51839697265625,-4.018198700016737,1.182966287067905,1.1722478361114859
1782816160560479000,3.53847900390625,-4.996792972770333,-0.433731645292975,-0.6190844498280436
1782816160580561000,3.558560791015625,-9.091068365773559,-0.4576023867566138,-1.185275806119293
1782816160600642800,3.578642822265625,-13.304791391456126,-1.5137639563806353,-0.09866948693618177
1782816160620725000,3.59872509765625,-12.115080087107419,-3.52372357648015,-2.514685942406952
1782816160640806000,3.618805908203125,-8.747899071469902,-4.689878648674488,-5.96167670007944
1782816160660888000,3.63888818359375,-6.769515177720785,-3.482312538683414,-7.093930671715736
1782816160680970000,3.658969970703125,-1.6530641443908214,-0.18069135206267237,-0.947835269613564
1782816160701052000,3.679052001953125,3.5970489249318836,0.12129866737350821,2.3602330473199484
1782816160721133800,3.6991337890625,4.905514034476876,0.11552782888710499,2.6320669979453086
1782816160741216000,3.719216064453125,4.8331952327191825,0.19811602265946565,2.3106650065526364
1782816160761298000,3.7392978515625,2.947302575662732,0.4365780111674219,2.974387858726084
1782816160781379800,3.7593798828125,2.374697333741188,0.9964256975203752,4.119485237583517
1782816160801462000,3.7794619140625,4.4329386080592865,0.5497898912623524,3.2651392757892608
1782816160821544000,3.7995439453125,5.899491169801354,0.013940262547135353,1.2113194711752235
1782816160841625000,3.819625,7.145400746712088,-0.5673248903658241,-0.3974835066847503
1782816160861707000,3.83970703125,8.5732071059525,-1.2058834176011384,-1.062206914202869
1782816160881789000,3.859788818359375,9.544302547383309,-1.507508256986737,-0.7707495408274233
1782816160901870800,3.879870849609375,9.536716622298956,-1.5996785911619662,-0.9026024815715848
1782816160921953000,3.899953125,8.81066327841878,-0.8761874989852309,-0.5892123855903745
1782816160942035000,3.920034912109375,6.582465250411629,0.0019888357296586035,0.05220759549066424
1782816160962116900,3.940116943359375,5.985183247873187,0.42698856424093246,0.30226138372346756
1782816160982199000,3.960198974609375,4.012230147001147,0.21365327207446097,-0.2171213865764439
1782816161002281000,3.980281005859375,0.3098696667701006,0.35027291576378045,-0.27657676123827696
1782816161022363000,4.00036279296875,-5.873627829748392,1.4819843780212103,-0.5270400070548057
1782816161042445000,4.020445068359375,-9.498860062113403,1.8071940911337732,0.896654679083079
1782816161062525700,4.040525634765625,-7.577319753092527,-0.4347970460347831,-0.2566087628342211
1782816161082607900,4.06060791015625,-10.659773726522921,-1.0942932934891432,-2.342376780372858
1782816161102690000,4.08068994140625,-14.600656547147034,-2.1254972397282716,-3.421402435168624
1782816161122772000,4.10077197265625,-15.43130073083639,-1.8377809525772928,-3.655184303036332
1782816161142854000,4.12085400390625,-13.66269882068634,-0.9434778050564229,-3.867320740807056
1782816161162936000,4.14093603515625,-14.30979845483899,-0.12473974773809313,-3.656580725830793
1782816161183018000,4.16101806640625,-11.211142703670262,1.2896496421769261,-1.7891756193622945
1782816161203100000,4.181099853515625,-3.8588048413962124,0.3796262168243527,0.45663916774764657
1782816161223182000,4.20118212890625,1.8508827184736727,-1.0097098342463373,1.5822718215480447
1782816161243264000,4.221263916015625,4.625732047456503,-1.846342736956477,1.903965050972253
1782816161263345000,4.241344970703125,5.026279179495573,-2.027804050478339,2.104798004440218
1782816161283427000,4.261427001953125,4.662861462411284,-1.8615088880367576,1.8113602709025143
1782816161303509000,4.281509033203125,5.032741068986058,-1.3693028784759342,1.240344636259973
1782816161323591000,4.3015908203125,6.527255988886952,-0.816078921111673,0.7599475763060152
1782816161343673000,4.321673095703125,9.053294807696341,-0.5110457345873117,0.6241058581866323
1782816161363755000,4.341755126953125,12.13551614141464,-0.5624734317466616,0.7808662995636463
1782816161383837000,4.3618369140625,13.460981485599278,-0.8140100058831274,0.8491720662876963
1782816161403919000,4.381919189453125,12.971461938643454,-0.9559541325308382,0.2899725051125511
1782816161424001000,4.4020009765625,10.262397041213513,-0.4553177829507738,0.1151318427063059
1782816161444083000,4.4220830078125,8.44120511212647,0.672405997909978,-0.1584717388069257
1782816161464164900,4.442164794921875,8.039048206803201,1.4094089711539446,-0.7831533145222812
1782816161484246000,4.46224609375,6.441978336834907,1.8670931179098784,-0.8120503962479532
1782816161504328000,4.482327880859375,6.10185147896707,1.5441086796313523,-0.5173450904598459
1782816161524410000,4.50241015625,5.048399241366982,0.6549895106196403,-0.40415092868469654
1782816161544492000,4.522491943359375,-0.19359774151742457,-1.122545720635727,-0.3739997552447021
1782816161564574000,4.542573974609375,-9.219384949085116,-0.3233421656750142,3.334308089083433
1782816161584656100,4.56265625,-17.77017154891491,4.260263243061304,3.3617432084977623
1782816161604738000,4.582738037109375,-19.889720401632786,3.4936554782137272,0.9898755452245473
1782816161624820000,4.602820068359375,-20.716164211022853,1.3575044502630829,-4.479553059718013
1782816161644902000,4.62290185546875,-19.647889667344092,2.3595899271108207,-4.466833278876543
1782816161664984000,4.642984130859375,-14.607332956171035,1.8399390073940156,-1.8689865304410456
1782816161685066000,4.66306591796875,-8.664661400812864,0.13885302876457573,-0.8419998365707695
1782816161705147100,4.683147216796875,-6.5428627233415835,-1.1839015951566398,-1.1946794481500982
1782816161725229000,4.70322900390625,-6.83535864598453,-2.0394791445724665,0.024139511935040353
1782816161745311000,4.72331103515625,-4.2497944560170176,-2.9402491500198837,-0.2768105699941516
1782816161765393000,4.743392822265625,-0.020509119543433187,-3.3498709843963383,-0.8194178562760353
1782816161785475000,4.76347509765625,4.632716499516367,-4.089062919051945,-1.2785463566213846
1782816161805557000,4.783556884765625,8.014365600967407,-4.512831644463539,-1.7117847750373183
1782816161825639000,4.803638916015625,9.50761444645524,-3.8939989043742416,-1.7627284880720078
1782816161845721000,4.82372119140625,9.638811553639172,-2.8238287562072277,-0.9287240341693163
1782816161865803000,4.843802978515625,10.310236650753021,-2.8677456393450496,-0.3295411664456129
1782816161885885000,4.863885009765625,10.82483101773262,-2.867993476626277,-0.6041174015164374
1782816161905967000,4.883967041015625,9.995804790633917,-2.2278195500835776,-0.17267295384518802
1782816161926048000,4.904048095703125,9.460687860107422,-0.7146988600425421,0.9532299682639539
1782816161946130000,4.9241298828125,9.382346144798397,0.8371234627060592,1.872528294701129
1782816161966212000,4.944212158203125,9.600762685751915,1.7936476502098142,2.6050433819413183
1782816161986294000,4.9642939453125,9.083241033148765,2.3619454041957852,2.8325138747051355
1782816162006376000,4.9843759765625,7.837299307534098,3.3352415705412626,3.468452063374221
1782816162026458000,5.0044580078125,6.431870784318447,4.335033529624343,4.75476730043143
1782816162046540000,5.0245400390625,4.264577014607191,4.440025935971737,4.851956631812453
1782816162066622000,5.0446220703125,-1.4679390476644039,3.8220638412371275,3.9728348329409955
1782816162086704000,5.0647041015625,-6.937306862330436,0.7748192744843662,6.290266849410534
1782816162106786000,5.0847861328125,-8.05098823544383,1.2732519034750758,2.3812359417296944
1782816162126868000,5.104867919921875,-17.725298972487447,1.3925044519737362,2.6360119361788032
1782816162146949600,5.12494970703125,-23.067169703531263,2.9093823025912044,-1.0930848675474525
1782816162167030500,5.145030517578125,-18.920194985997675,3.4589959605038163,-2.0984049424022433
1782816162187112400,5.165112548828125,-9.837126971328258,1.4652942322440445,-3.333106896600127
1782816162207194600,5.185194580078125,-3.488706623634696,-0.8786796080619096,-4.743018118187785
1782816162227276500,5.205276611328125,0.35484161191880703,-2.7706273273736235,-3.1410341726928945
1782816162247358500,5.2253583984375,-0.09200608352422714,-2.14389886559844,-1.4843847171612083
1782816162267440600,5.245440673828125,-3.066514061498642,-0.9231506179511546,0.07345876557305454
1782816162287522600,5.2655224609375,-4.018316188916564,-3.2829484887242315,-0.13034940431341527
1782816162307604500,5.2856044921875,-1.714927018585801,-4.530884310765564,-1.433819482050091
1782816162327686700,5.305686767578125,3.786811033809185,-4.189240326333046,-0.6433996105909348
1782816162347768600,5.3257685546875,6.374247447389364,-3.1436937472909685,0.9182717598684131
1782816162367850500,5.3458505859375,7.776259440159797,-2.1002885641917586,1.7482378981657325
1782816162387931600,5.365931640625,8.801342492365837,-2.2827815588489173,1.6162953794419765
1782816162408013600,5.386013671875,8.812122829577326,-2.510788058185577,1.5452733394965528
1782816162428095500,5.406095458984375,7.836240153869986,-2.509621060232818,1.4911333146385848
1782816162448177700,5.426177734375,6.722249568676948,-1.7340619271665811,1.4230943821571767
1782816162468259600,5.446259521484375,5.633376473605632,-0.4492877820715308,1.3916592333212494
1782816162488341500,5.466341552734375,4.524526758432388,0.8646404151849448,0.369840187879838
1782816162508423700,5.486423583984375,3.1287013453423973,2.2853151689797637,-1.7979850948922336
1782816162528505600,5.506505615234375,2.4091028766900298,1.8512958293192088,-4.269711454886198
1782816162548587500,5.52658740234375,-3.4269191527634857,0.6858353152602911,-4.3726890142798425
1782816162568669400,5.54666943359375,-11.934835748159884,1.800670826844871,-1.942986271023005
1782816162588751600,5.566751708984375,-15.538525426280497,4.640415529586375,-1.866095923566073
1782816162608833500,5.58683349609375,-13.600201740241049,2.0546936648391187,-2.2508917981132863
1782816162628914700,5.606914794921875,-11.994274610078334,-1.3455629603177308,-2.522580787310004
1782816162648996600,5.62699658203125,-12.553259907448291,-0.800855048494786,-2.1562585809558628
1782816162669078500,5.64707861328125,-14.186350938868522,1.4802435257032514,0.016703224454447625
1782816162689160700,5.66716064453125,-13.632272118240595,2.9358319180995225,4.5742435600206255
1782816162709242600,5.68724267578125,-6.634062166658043,1.4497703537672757,6.740930303749442
1782816162729324500,5.707324462890625,0.3802221368908882,-1.057580569576472,6.09017565422058
1782816162749406500,5.727406494140625,5.694133432385325,-2.5840371265307067,4.723706683996319
1782816162769488600,5.747488525390625,8.577011758932471,-2.694770122356713,3.5568712283223864
1782816162789570600,5.767570556640625,9.240740456324815,-1.826851562283933,2.8418779153779146
1782816162809652500,5.787652587890625,9.819603005075454,-1.390956930270791,2.3064552799031137
1782816162829734700,5.807734619140625,11.390012247133255,-1.4034122149571775,1.865702832595259
1782816162849816600,5.827816650390625,12.826233968019485,-1.4902242369696497,1.1297163429174573
1782816162869898500,5.8478984375,12.454504934185742,-0.8796431923970579,0.44741687363311644
1782816162889980700,5.867980712890625,10.001377622330189,0.6287189049400389,0.6660721917785704
1782816162910062600,5.8880625,8.067825388476253,1.6633054062895476,0.7116938330076634
1782816162930143500,5.9081435546875,7.959942521384358,1.8829802767410873,0.4049041582047939
1782816162950225700,5.9282255859375,8.09573221705556,2.153586146876216,0.06367696984566282
1782816162970307600,5.9483076171875,6.891005129882693,2.9861686051517724,-0.20054577055703848
1782816162990389500,5.968389404296875,5.112912337809801,3.7121664194524286,0.08918656912408769
1782816163010471700,5.9884716796875,2.9549107125788927,3.574288811591267,-0.4452417946163565
1782816163030553600,6.0085537109375,-0.09413315868079662,2.304869764277339,-0.21684885324537753
1782816163050635500,6.028635498046875,-5.116541049700975,1.1405351124431937,0.5030976981922984
1782816163070717700,6.0487177734375,-8.77205736117065,-0.4485553761437535,2.0285963698998093
1782816163090799600,6.068799560546875,-11.804693118464947,-1.064986461918801,1.2657599402844906
1782816163110881500,6.088881591796875,-15.776063431811332,-1.8573256110027432,1.2528284163884817
1782816163130963500,6.10896337890625,-15.88062036935091,-4.5285026763260365,-0.5753493529979139
1782816163151046000,6.1290458984375,-13.86973179783821,-5.512096949324011,-5.902460541000962
1782816163171127800,6.1491279296875,-10.548408278012275,-4.571669033357501,-8.944425267654657
1782816163191209000,6.169208984375,-4.237324850544333,-0.9998160706110298,-7.342893742102384
1782816163211291000,6.189290771484375,-2.643791338008642,2.238471292479336,-5.239918423044681
1782816163231372800,6.209372802734375,-5.2615129997372625,2.5322940798118707,-3.2687758787259455
1782816163251454700,6.229454833984375,-8.742933558017015,0.27503537701517344,-0.005008183550834655
1782816163271537000,6.249536865234375,-7.3052978786796325,-1.0915642338514326,2.427292321114242
1782816163291618800,6.269618896484375,-0.6926561011910438,-0.8379749649688601,3.018331337609887
1782816163311700700,6.28970068359375,5.835205452373623,-0.14766571916490792,2.384150806263089
1782816163331783000,6.309782958984375,10.223954205572605,0.3249396639995277,2.4507737344667313
1782816163351864800,6.32986474609375,13.56501118439436,0.8141179232370108,3.1526164739370346
1782816163371946800,6.34994677734375,15.694277129006386,0.41628911024592813,2.605621766351163
1782816163392029000,6.37002880859375,16.35871251336336,0.413454106015712,1.0598888465188443
1782816163412110800,6.39011083984375,13.78526487764716,-0.3727385762024671,-0.15045286566540597
1782816163432192800,6.41019287109375,11.624454624736309,-0.4267364891760051,-1.0507109760679303
1782816163452274700,6.430274658203125,9.372266649332643,-0.2096677826348692,-1.1306691866628824
1782816163472356900,6.45035693359375,7.181286299085617,1.0107538634065538,-0.7730982959106564
1782816163492437800,6.470437744140625,5.948402792486548,2.1363751920953393,-0.43093514644224196
1782816163512520000,6.49052001953125,3.2582109378308055,2.233074694132805,-0.1783219560502097
1782816163532601900,6.510601806640625,-1.3423264626145361,1.6221861910462378,0.18974815341718493
1782816163552683800,6.530683837890625,-6.287119783556461,1.5182853793278335,0.15734109080918132
1782816163572766000,6.550765869140625,-8.849355120384693,0.2251954605039209,0.42977739124186337
1782816163592848000,6.570847900390625,-6.660977061590552,-1.469944396137446,-0.26656441272459924
1782816163612929800,6.5909296875,-6.954527461722493,-2.2612821130938827,-0.5997158786218613
1782816163633011700,6.61101171875,-10.497994434070586,-3.226439835038781,-0.8338636571925133
1782816163653094000,6.631093994140625,-12.60951195602417,-3.9499043314695355,-3.344688613322377
1782816163673175800,6.65117578125,-14.767088633841276,-1.666246574307978,-6.305128902977705
1782816163693257700,6.6712578125,-8.735882470461725,-0.4968713710233569,-4.667396767753362
1782816163713340000,6.69133984375,-1.7549410490661859,-1.5261913301467895,-2.290186282147467
1782816163733421800,6.711421875,1.4938596708625553,-3.5086759372130034,-2.0533212074421345
1782816163753502700,6.731502685546875,0.39525019467473027,-3.359315981350839,-1.8818346138373017
1782816163773585000,6.7515849609375,-2.2022505168020725,-1.868629679827392,-0.1721820285230875
1782816163793666800,6.771666748046875,-2.0220441717773676,-0.7056121750064194,2.2995671278245746
1782816163813748700,6.791748779296875,0.11295827066004276,-0.016618687976151705,3.840910288265347
1782816163833831000,6.811830810546875,3.171356245720386,-0.5227164447672665,3.8513720610469577
1782816163853912800,6.831912841796875,4.8013650932163,-1.2251891527041792,2.824032754346728
1782816163873994800,6.851994873046875,6.858786867845058,-1.3941753077954053,2.0811793745741247
1782816163894077000,6.872076904296875,8.15487005020082,-1.1984568477969615,1.8621582918561994
1782816163914158800,6.892158935546875,9.0451699534297,-0.7804927900761366,1.7886241229593753
1782816163934240800,6.91224072265625,9.20870982581377,-0.17450663554575294,1.5578357378192245
1782816163954322700,6.93232275390625,8.660828106260299,0.2564716193858534,1.278002751263976
1782816163974404900,6.95240478515625,7.295217798691987,0.7454631238795817,1.0512876069121062
1782816163994486800,6.97248681640625,6.1349056073069566,0.9087488023068755,0.7274544428497552
1782816164014568700,6.992568603515625,5.01768670771718,0.43365635156705973,0.06708937667161226
1782816164034649900,7.01264990234375,3.207932702967524,0.2082358866682276,0.7209361469969153
1782816164054731800,7.032731689453125,-0.2019657568901777,0.20593473358638584,1.869519322143495
1782816164074814000,7.05281396484375,-9.013602848777174,1.1402684973962605,2.165300696197897
1782816164094895900,7.072895751953125,-17.220442740190027,4.040590856827795,1.751913517938554
1782816164114977800,7.092977783203125,-16.428346606081725,4.615279334764183,0.4877617069704458
1782816164135059700,7.113059814453125,-12.807512900936603,0.7573783834051341,0.18346797716915605
1782816164155141000,7.13314111328125,-13.065420325279234,-0.37858423349075015,-2.3877789336323736
1782816164175223000,7.15322314453125,-13.952364488339423,1.2063887367747723,-4.883316815716028
1782816164195305200,7.17330517578125,-7.941355894336104,1.558057710006833,-3.1265061733856796
1782816164215387100,7.19338720703125,-1.214362930524349,0.26383590107616034,-1.2800950473681092
1782816164235469000,7.213468994140625,3.0537077714174985,-0.7538161608789116,0.33421792608499523
1782816164255551000,7.233551025390625,4.161537495893239,-1.2012380760133266,1.2403145333826542
1782816164275632000,7.253632080078125,3.999387616562843,-1.2946465736813841,1.9402166601791977
1782816164295714000,7.273714111328125,3.611576047456264,-1.4650582315310834,2.1710136670172213
1782816164315796200,7.293796142578125,4.005965241387487,-1.929478262413293,1.460309283438325
1782816164335878100,7.313878173828125,5.209195368000865,-2.062828894369304,1.0687010985277592
1782816164355960000,7.3339599609375,7.239219432616234,-2.0866852785140275,0.5329712967999279
1782816164376042200,7.354042236328125,9.073780546364187,-2.098339914342016,0.3091049660079181
1782816164396124200,7.374124267578125,10.211146161925791,-1.8195394857048988,0.31752858402542766
1782816164416206000,7.3942060546875,10.469482625335454,-1.675596001933515,-0.0550993714094162
1782816164436288000,7.4142880859375,10.166318009161948,-1.3127186753362416,-0.380956807840988
1782816164456370200,7.4343701171875,8.76267695388496,-0.4741682485669851,-0.2305292958125472
1782816164476452000,7.4544521484375,6.205225928723812,0.46415896879322827,-0.08569551213793455
1782816164496534000,7.474533935546875,3.6364457002967594,1.2106643682673572,-0.25235994628332553
1782816164516616200,7.4946162109375,-0.9295324279427528,1.409337367222458,-0.28903639330621805
1782816164536698000,7.514697998046875,-8.009581873822212,2.7633105746194717,-0.2900004890980199
1782816164556779300,7.534779296875,-8.439325874251127,2.2880580379471183,0.5665476589156314
1782816164576861200,7.554861083984375,-5.3999546712219715,-0.40527459895238277,0.2122946240071207
1782816164596943000,7.574943115234375,-6.791621795588731,-0.9906873730640858,-0.26028255597613753
1782816164617025000,7.59502490234375,-8.729559697180985,-2.90161342215538,0.3348501595739275
1782816164637107200,7.615107177734375,-10.01608886924982,-2.838423391009867,-1.2497548541620374
1782816164657189000,7.635189208984375,-7.876864425203204,-2.115781609138846,-3.8345781626343727
1782816164677271000,7.65527099609375,-3.038676206502318,-0.3057242009958252,-5.068373523381352
1782816164697353200,7.675353271484375,-3.3416794946342705,3.1592090040698646,-7.030493680071831
1782816164717435100,7.69543505859375,-8.461071842113137,4.355912943784892,-7.609795789283513
1782816164737517000,7.71551708984375,-10.828419982135296,3.706240828795731,-2.0428797467961908
1782816164757599200,7.73559912109375,-10.099415971755981,2.192232396134734,4.442233090627194
1782816164777681200,7.75568115234375,-5.476901717302203,0.4689300556525588,6.80376465332508
1782816164797763000,7.77576318359375,0.9160124366343021,-0.5931634613037109,5.703603271520137
1782816164817845000,7.795844970703125,5.0068151850908995,-1.5678385147869587,3.689636315475404
1782816164837926100,7.815926025390625,6.678536099156737,-1.392233379947394,1.696783312999457
1782816164858008000,7.836008056640625,8.286253619867562,-0.5393013766042888,1.1291726644948124
1782816164878090200,7.85609033203125,10.091787961095571,0.22212697631139308,1.1909797899145633
1782816164898172200,7.876172119140625,11.404550475573538,0.4708313592292368,1.3230083064213394
1782816164918254000,7.896254150390625,12.058424718427657,0.4134778156848624,1.2735273594155907
1782816164938336300,7.916336181640625,11.959310848724842,0.39101540664918716,1.2035567282192408
1782816164958418200,7.936418212890625,11.015551157987117,0.6790769270412623,1.1561206579793244
1782816164978500000,7.9565,9.790025612935423,1.1958575520187615,0.9190075267970561
1782816164998582000,7.97658203125,8.457105276569724,1.8450094425261019,0.6858703865736723
1782816165018664200,7.996664306640625,6.990082174706458,2.6957643940910696,0.5586388950850815
1782816165038746000,8.01674609375,6.347746393954753,2.6803017442822457,1.073269210160896
1782816165058828000,8.036828125,3.4164772537261245,0.9277340002186596,1.630960741393268
1782816165078910200,8.05691015625,-4.407957311537862,-3.3017443746089934,1.5680341834895313
1782816165098992000,8.0769921875,-13.932728059977292,-3.7917426449924707,0.002381342178583145
1782816165119073300,8.0970732421875,-20.084349824285507,-1.52780797156319,-1.7753217199243605
1782816165139155200,8.1171552734375,-22.236622550475595,0.16535700480863452,-2.944241434526443
1782816165159238100,8.137238037109375,-20.882018790090083,0.5628391232538968,-4.960536248996854
1782816165179320000,8.157320068359375,-14.914391657173633,-0.5543154058627784,-5.279130489492416
1782816165199402000,8.177402099609376,-9.077726069119572,-2.7338667457312344,-4.244344958439469
1782816165219484200,8.197484130859374,-5.6160091592192645,-4.354299078847467,-3.396858361020684
1782816165239566000,8.217566162109375,-4.270702219489216,-4.795176467709243,-3.502140105703473
1782816165259648000,8.23764794921875,-3.9393560494482514,-3.1933743085220456,-2.841290178617835
1782816165279730200,8.257730224609375,-1.6965052267104386,-1.8434601672574877,-1.452585703448951
1782816165299812400,8.277812255859375,1.5704507431119679,-1.1142725439395755,-0.8333750699579715
1782816165319894300,8.297894287109376,4.576396061879396,-0.3680664927382022,-0.1380516492538154
1782816165339976200,8.31797607421875,6.938673474508524,0.4544751215815544,0.49640419190302487
1782816165360058400,8.338058349609375,8.483411099693178,1.0614962817154825,0.8696762173950672
1782816165380140300,8.358140380859375,9.361689141216873,1.316873456928134,0.7168530424017459
1782816165400221200,8.37822119140625,9.868969385790825,1.6186689767055213,0.6763130152858793
1782816165420303000,8.39830322265625,10.02899394353032,2.2710776770517227,0.7065741519063711
1782816165440385000,8.418385009765625,9.895707755112648,2.516291624037921,0.19495668184570966
1782816165460467200,8.43846728515625,9.783085584539174,2.825556895174086,-0.26095311218146233
1782816165480549000,8.458549072265624,9.096149614560604,3.3935841616556046,-0.47523182267788794
1782816165500631000,8.478631103515625,7.310722826337814,4.2795507118552925,-0.21915804350320248
1782816165520713200,8.498713134765625,5.406183336478471,4.100530361744761,1.0239220456026494
1782816165540795100,8.518795166015625,2.521705758041143,2.9816026124104855,-0.003293123261258006
1782816165560877000,8.538876953125,-4.956873050314187,0.8602063782602548,-1.607470852473378
1782816165580959000,8.558958984375,-9.607674657097458,2.109661080431938,-0.43613764698877927
1782816165601041400,8.57904150390625,-6.173960437366366,2.222372390593588,1.6717952944763004
1782816165621123300,8.599123291015625,-5.282882535502314,-0.3901818053692579,0.8939895515270531
1782816165641205200,8.619205322265625,-9.33675986714363,-0.9269812821552157,-0.8585017662994563
1782816165661287400,8.639287353515625,-13.72261932864189,1.743243597009778,-2.892188006684184
1782816165681368000,8.6593681640625,-11.73922432873249,3.310130217899382,-0.27478384993951765
1782816165701450000,8.679449951171875,-5.438650020319223,2.969092090405524,1.8475223021298646
1782816165721532200,8.6995322265625,0.07114449728131293,0.22444160992931572,1.1128006447561085
1782816165741614000,8.719614013671874,-0.16048516098856924,-1.581082904024422,-0.38846952155865727
1782816165761696000,8.739696044921875,-1.2414724712461231,-0.9274500687107443,1.495390679822117
1782816165781778200,8.759778076171875,-0.30506080518364903,-0.35751919709760693,3.0343668188706037
1782816165801860000,8.779860107421875,1.3254285193055868,-0.7671202444143593,2.5110814881742
1782816165821942000,8.79994189453125,3.2227649459183216,-1.2804118582323192,1.6794272506594656
1782816165842024200,8.820024169921876,5.301927427712083,-1.5530702769830822,0.8065422272857278
1782816165862106000,8.840106201171874,6.67000734026432,-1.7200491839051246,0.08656067759990692
1782816165882188000,8.86018798828125,7.708490556791424,-1.6793793198645115,-0.5766558324865997
1782816165902270200,8.880270263671875,8.457693890112639,-1.1036452053327113,-0.6141882752843201
1782816165922352400,8.900352294921875,8.505729314485192,-0.3629594519227743,-0.5613764668228104
1782816165942434300,8.920434326171875,8.288223458635807,0.6357271762669086,-0.37775318949408826
1782816165962516200,8.94051611328125,7.89203276824057,1.1339504002906382,-0.1584282101924531
1782816165982597000,8.96059716796875,7.480711728730797,0.5813643024384975,-0.6748497378002852
1782816166002679000,8.980678955078124,6.658367755874991,-1.2680534580491483,-1.2340645330771802
1782816166022761200,9.00076123046875,2.503466336995363,-2.3744357601955532,-1.0012959339052439
1782816166042843100,9.020843017578125,-5.566531134822965,-2.3452827309474347,-0.8028764713197946
1782816166062925000,9.040925048828125,-13.950938254928587,-1.585037632999569,-0.8151881097517907
1782816166083007000,9.061007080078125,-16.130799245268104,-0.4959887429699301,-1.6263927028253673
1782816166103089200,9.081089111328126,-12.61422904767394,-1.425208890093118,-1.4595017664477228
1782816166123171000,9.101171142578124,-11.925505609756707,-2.6684593307971953,-1.9422110488668083
1782816166143252700,9.121252685546875,-12.569870850509405,-1.1968940554596483,-1.5977635513208805
1782816166163334700,9.141334716796875,-11.337792230552434,0.47645124493762847,-0.6084791038572788
1782816166183416600,9.16141650390625,-7.418152104443311,0.3634478199616074,0.6569327536419034
1782816166203498500,9.18149853515625,-2.0176257708132264,-0.32835838640183207,1.1880724511004983
1782816166223580700,9.20158056640625,2.5385779823869465,-0.6230979963183403,1.4949607639722524
1782816166243662600,9.22166259765625,4.0870916189789765,-0.2669596225872636,1.292088413631171
1782816166263743700,9.24174365234375,3.740844232404232,-0.05333353078067302,0.7599518140897155
1782816166283825700,9.26182568359375,3.6690526693910357,0.9511591533392667,1.6227596070200203
1782816166303907600,9.281907470703125,4.08822442240119,1.734504117976129,2.4210119256705043
1782816166323989500,9.301989501953125,7.267510876598954,1.2702011376023292,2.999286153139174
1782816166344698600,9.32269873046875,9.454912199315428,-0.3688488022223115,2.8459067325025793
1782816166364780500,9.342780517578126,9.761171858894825,-0.11505977298393845,2.206116252319515
1782816166384862700,9.36286279296875,5.990850187593698,1.1409627632707358,1.8241707987673579
1782816166404944600,9.382944580078124,6.616475656563043,0.48447994535341854,3.404971524849534
1782816166425026600,9.403026611328125,7.553993238040804,0.8078843626096844,3.508686166346073
1782816166445108700,9.423108642578125,8.310171086549758,1.5952455771505831,2.2460168855533
1782816166465189600,9.443189697265625,0.0413572617828846,2.9463655870735646,-0.8227639518335461
1782816166485271800,9.463271728515625,-8.219879405727982,-0.45225992975011464,3.4083950695574283
1782816166505353700,9.483353759765626,-11.087699863874912,-1.162642972420156,4.832861178459226
1782816166525435600,9.503435546875,-11.867220594048499,-1.7137696652442216,3.5208278550386427
1782816166545517600,9.523517578125,-6.977687388035655,1.234561084422469,-0.20584935685787348
1782816166565599700,9.543599853515625,-0.7117430789768695,6.725127754461765,-6.4292018573701375
1782816166585681700,9.563681640625,-1.1446616177886724,4.953086517512798,-6.110594757393002
1782816166605763600,9.583763671875,-4.329329765024781,0.996597546955943,-3.1391119724586605
1782816166625845800,9.603845703125,-8.399487784859538,2.100144333415478,-2.4796885710448024
1782816166645927700,9.623927734375,-5.283884406021237,1.7582403828725217,-0.4201164865143597
1782816166666637600,9.644637451171874,0.14327800559997558,0.9286547683253884,-0.2012926799342036
1782816166686719700,9.6647197265625,5.319450224921107,-0.19281988901272415,0.3684432901613414
1782816166706801700,9.6848017578125,4.466628111693263,-1.6033973194241522,0.3725158002972603
1782816166726883600,9.704883544921875,2.0618787540376187,-1.4188355556689203,-0.8257423100572079
1782816166746965800,9.7249658203125,1.1960083586663006,-0.8810613886319101,-0.9018550242051482
1782816166767047700,9.745047607421874,2.3635867416620253,-1.4402037762597202,-1.0621033807631581
1782816166787129600,9.765129638671874,3.641607613104582,-1.2970089188985525,-0.6765449974108487
1782816166807211500,9.78521142578125,4.062579109013081,0.1826750732257962,-0.05875555582940578
1782816166827293700,9.805293701171875,2.4639351215958594,0.6695233551457523,-0.36537440411001443
1782816166847375600,9.825375732421875,0.2088245367437601,0.515347815695405,-1.08465474672392
1782816166867457500,9.84545751953125,-0.42631694858968255,0.2644505623757839,-0.7056237193137407
1782816166887539700,9.865539794921874,-0.6080868896692991,0.4676213842067867,-0.7664607575923204
1782816166907621600,9.88562158203125,-0.6243214006334543,0.8083721461266279,-0.10607075790232047
1782816166927703600,9.90570361328125,0.05702303294837475,0.6731136347226798,0.5304814527455717
1782816166947784700,9.92578466796875,1.12010409963727,0.3676706983536482,0.8366383095376193
1782816166967866600,9.94586669921875,1.1504618285000323,0.24020656715296207,0.657701984448731
1782816166987948500,9.965948486328125,0.40998832960128784,0.016047756220400333,-0.132066912288405
1782816167008030700,9.98603076171875,-0.38977497813403605,-0.001594721845537424,-0.464010902092047
1782816167028112600,10.006112548828124,-0.8061024476289749,0.0657914458155632,-0.12530432281829415
1782816167048194600,10.026194580078124,-0.8024088538080454,0.17505166567526756,0.266679746199958
1782816167068276700,10.04627685546875,-0.03942717050313949,-0.30752617238387464,0.25740745719755065
1782816167088358700,10.066358642578125,0.17262684968113898,-0.56324361240156,-0.0008319538871815893
1782816167108440600,10.086440673828125,-0.11527531543076038,-0.5383045475866646,-0.30500836261035874
1782816167128522800,10.106522705078126,-0.45915655739605427,-0.24692834968864916,-0.24427831010390072
1782816167148604400,10.1266044921875,-0.1863075845092535,-0.10401318605169653,-0.0647620936346706
1782816167168686300,10.146686279296874,0.18584698126018045,-0.19607297252453862,-0.054489322352828454
1782816167188768500,10.1667685546875,0.25732231793105603,-0.38011239290609955,-0.11132268708115443
1782816167208850400,10.186850341796875,0.15587795945405958,-0.4556923153515905,-0.08289691266166045
1782816167228932400,10.206932373046875,0.17426409549415112,-0.4685002128679305,-0.12043291738964616
1782816167249014300,10.22701416015625,-0.15542670855522156,-0.3901237185064703,-0.271070802499447
1782816167269096400,10.247096435546876,-0.5952303307056427,-0.026520634917914867,0.015430907530267723
1782816167289177300,10.26717724609375,-0.6993997302323579,0.3075861589428037,0.2598298620388843
1782816167309259500,10.287259521484375,-0.384745167273283,0.27131730634011325,0.3167288850151002
1782816167329341400,10.307341552734375,-0.11268939059078693,0.10279182756319641,0.12647046225452796
1782816167349423400,10.32742333984375,-0.12133680742681026,-0.001016264370456338,0.06105054859851952
1782816167369505300,10.34750537109375,-0.33200843334197994,0.018680223615840076,-0.03209243913430255
1782816167389587500,10.36758740234375,-0.15557517711520194,-0.08223631159476935,-0.20590300500756128
1782816167409669400,10.38766943359375,-0.0671375997275114,-0.20218831359967587,-0.2723604952501133
1782816167429751300,10.407751220703124,-0.09839783038794994,-0.20371128538325428,-0.2813371805731207
1782816167449833500,10.42783349609375,-0.26353344753086566,0.041751448732241986,-0.02214150651823729
1782816167469915400,10.447915283203125,0.03787935653924942,0.22512641385570167,0.2209972598954104
1782816167489997300,10.467997314453125,0.4776023146688938,0.15514854920096693,0.1850251434832811
1782816167510079500,10.48807958984375,0.342262116330862,0.008057561184093356,0.14943486599558964
1782816167530161400,10.508161376953124,-0.10565408512651919,0.008282163720205425,-0.03253742240584688
1782816167550243300,10.528243408203124,-0.05745557914674282,-0.0582716447699815,-0.1657291077903472
1782816167570325200,10.5483251953125,0.1343716455668211,-0.16445333396717904,-0.22066607344597577
1782816167590407400,10.568407470703125,0.14701660760641097,-0.16682810027450323,-0.23362695130063219
1782816167610489300,10.5884892578125,-0.25416531520485874,0.024078648593276738,-0.22883062040219082
1782816167630571300,10.6085712890625,-1.0128349805295467,0.15169892020374537,-0.47303500675335525
1782816167650652400,10.62865234375,-0.6508247921556234,-0.18977949840351938,-1.041982749080658
1782816167670734300,10.648734375,0.6612129151791334,-0.07379355048537253,-0.1594602018550038
1782816167690816500,10.66881640625,0.14868074142634868,0.4049441979542374,0.42688411748576904
1782816167710898400,10.6888984375,-0.22835925829708575,0.3831339326843619,0.49269445066489276
1782816167730980400,10.70898046875,-0.07621171754300594,0.1232017245158553,0.05392042729053646
