time,seconds_elapsed,z,y,x
1782816371752215800,0.0682158203125,0.20762042165100572,-0.026332418869435787,0.5001763673854992
1782816371772298000,0.088298095703125,0.7167886719286441,-0.24359072969853876,0.3462010266823694
1782816371792380000,0.1083798828125,1.1414356414794922,-0.4584299966871738,0.21304617302678525
1782816371812461800,0.1284619140625,1.1693109058767557,-0.010835282269120216,0.06800499367918819
1782816371832543700,0.148543701171875,0.6935340530693531,-0.5824798624649643,0.14493406571131198
1782816371852626000,0.1686259765625,-0.23132746045291422,-0.780935857668519,0.1460305191785097
1782816371872706800,0.188706787109375,-1.4886334606468676,-0.19552520244866609,0.25842209586650133
1782816371892789000,0.2087890625,-1.0495119755417108,-0.03617211422994732,0.6726175217688083
1782816371912871000,0.228870849609375,-0.9070464553683996,0.16871639823913573,0.6238453806195408
1782816371932952800,0.248952880859375,-1.0755775601685047,0.5655277047507464,0.9386312418080865
1782816371953034800,0.26903466796875,-0.02567395496070385,0.9749714060813188,1.3291007780775428
1782816371973117000,0.289116943359375,0.7169283726602792,1.327488958966732,0.7802369156189263
1782816371993198800,0.30919873046875,1.0901105279117822,2.0174830013416707,-0.40113760874550786
1782816372013280000,0.329280029296875,3.1307629540473223,2.0589448925428093,-1.0729758532375098
1782816372033362000,0.34936181640625,4.805054010862111,0.9106012252405286,0.4882457641603425
1782816372053443800,0.36944384765625,3.1878748343229293,1.3914580116607247,0.36452341330386695
1782816372073526000,0.389526123046875,2.6962778965711593,0.9853039995253086,0.2159165956302546
1782816372093608000,0.40960791015625,2.9995477266848085,-0.5863844686880707,0.8784867889035493
1782816372113689900,0.42968994140625,3.1350276257544754,-1.8822138224132359,3.2803082033485174
1782816372133771800,0.449771728515625,3.6494501432985067,1.3537114877209067,1.7847241929113864
1782816372153854000,0.46985400390625,2.672318344312906,1.0032413688845931,1.4614014625892042
1782816372173934800,0.489934814453125,-5.50810817194879,-0.11050927007272839,1.952956460895389
1782816372194017000,0.51001708984375,-12.289713015913962,2.6543466342926023,-0.7605411582849919
1782816372214099000,0.530098876953125,-14.590686941796541,4.016702908501029,-4.846010290628671
1782816372234180900,0.550180908203125,-10.297321055078505,1.0555373733110724,-4.974594000443816
1782816372254263000,0.570262939453125,-6.872437207534909,-0.8562197928421199,-3.9306230001553892
1782816372274345000,0.590344970703125,-4.979423320296407,-2.4577614013969895,-4.711895250171422
1782816372294427000,0.610427001953125,-2.8767262336581942,-4.160547315812111,-4.968056123107671
1782816372314508000,0.630508056640625,0.4317617699921131,-4.433188783428073,-3.1549902173310516
1782816372334590000,0.65058984375,1.0555530092716217,-2.7722707106664775,-0.862600872181356
1782816372354673000,0.6706728515625,1.9257932902902364,-1.577430372866243,0.05688683934807777
1782816372374754800,0.6907548828125,3.439215155234933,-0.6049308733237907,-0.27985505225658414
1782816372394837000,0.7108369140625,1.3274457043468952,0.09648728405889123,-0.42017172383293505
1782816372414919000,0.7309189453125,-0.1745125172972679,-0.10131430235654115,-0.9099472913764417
1782816372435000800,0.751000732421875,1.0039484942406416,-2.060116274409741,0.590264086600393
1782816372455082000,0.77108203125,4.098260663247109,-2.1840565423332152,2.4135052033022046
1782816372475164000,0.791163818359375,5.981129004046321,-2.0850360500022767,2.5866426328539847
1782816372495245800,0.811245849609375,6.466678478327393,-1.6292304104693234,1.9969069540418682
1782816372515328000,0.831327880859375,6.422944550541043,-1.6790360593847928,1.489201908184588
1782816372535410000,0.851409912109375,5.856895890656113,-1.6113769200012087,1.1242884726498275
1782816372555491800,0.871491943359375,4.8284950922042125,-0.7945781601823866,0.6105986898271366
1782816372575574000,0.891573974609375,4.671850824552775,-0.3550155071809888,0.45256505017653104
1782816372595655000,0.911655029296875,4.318404466384649,0.23009587283134458,0.0866024709150195
1782816372615737000,0.931737060546875,3.438949782297015,0.9357597780250012,0.38105800319314
1782816372635819000,0.951819091796875,0.9471680378764867,1.936680010485649,0.8451127078942954
1782816372655901000,0.97190087890625,-2.5536212377399203,3.7901387169271707,0.5911661500066518
1782816372675982800,0.99198291015625,-4.0527831066638225,4.349720518885553,0.8835544475566596
1782816372696065000,1.01206494140625,-5.597813577315211,2.4352142001546917,1.8272317937731741
1782816372716147000,1.03214697265625,-5.740978185668587,2.249130341398716,-0.6475600182060152
1782816372736227800,1.052227783203125,-7.080685990217328,0.9580465747654437,-1.6135180236831306
1782816372756309800,1.072309814453125,-6.129633804383873,-2.025269271303713,-1.8985700600609183
1782816372776391700,1.0923916015625,-6.708080173549056,-3.0257863297909497,-4.105961446882784
1782816372796473900,1.112473876953125,-8.63005361329019,-1.0175229922153055,-4.892324882557988
1782816372816555800,1.1325556640625,-6.005227672514319,0.18198387609124184,-3.541784426088631
1782816372836637700,1.1526376953125,-1.7848861054748295,-1.1332770310737192,-1.3148552489735186
1782816372856719600,1.1727197265625,1.428777250099182,-2.330659016180783,1.0830068333864211
1782816372876800800,1.19280078125,2.4555384646505116,-3.24777780662179,2.412283990944177
1782816372896882700,1.212882568359375,2.7835236338257787,-2.874574316321313,2.5734964432939886
1782816372916964900,1.23296484375,2.3540280551999806,-2.596070094151795,1.4840382418110967
1782816372937046800,1.253046875,2.9304812047213313,-1.8437236404992638,1.42991399904415
1782816372957128700,1.273128662109375,4.638895480412245,-1.2024538815438748,1.4877517093762755
1782816372977211000,1.2932109375,5.954934824603796,-0.7398704184390604,1.1281648026265203
1782816372997291800,1.313291748046875,6.9263353864610195,-0.756289784450829,0.5096801453225315
1782816373017373700,1.333373779296875,7.174592938926816,-1.2799864724271,-0.31699791121482845
1782816373037456000,1.353455810546875,7.336628251966833,-1.8952344858974217,-0.6980445162311196
1782816373057537800,1.373537841796875,5.221342901912331,-2.1945424266427755,0.13160744155049323
1782816373077619700,1.39361962890625,3.0571839230954647,-1.1335768908031285,0.948060895062983
1782816373097702000,1.413701904296875,-0.8545715872436761,0.7856517802745103,1.6100762126661836
1782816373117783800,1.43378369140625,-7.137373507601023,2.0632705006569623,1.213733108188212
1782816373137864700,1.45386474609375,-10.322517455655335,5.324101265597343,1.1775551487393676
1782816373157947000,1.47394677734375,-8.5873987129122,5.2575703995913265,0.999338223966211
1782816373178028800,1.49402880859375,-8.632156723049283,3.0347479271426794,-0.7674363246262073
1782816373198110700,1.51411083984375,-7.190788286924362,-0.6667905691809952,-2.268316249514371
1782816373218193000,1.53419287109375,-5.062349440786242,-4.004719625240564,-2.6972961337029933
1782816373238274800,1.55427490234375,-5.3156718754261725,-2.4081416304424406,-0.7641082031168043
1782816373258356700,1.574356689453125,-5.263361257952451,1.8943489352345466,1.8717115714907646
1782816373278438000,1.59443798828125,-3.6080841136872768,2.9426041887134313,3.2809900481328365
1782816373298519800,1.614519775390625,-0.8107651787430048,0.579246579632163,2.2885906835190952
1782816373318601700,1.634601806640625,2.869298714005947,-1.632456532908976,0.6009986119087786
1782816373338684000,1.654683837890625,5.453525517889857,-3.077851448071003,-0.7026162080608308
1782816373358765000,1.67476513671875,7.1174740443885325,-3.719108493675291,-1.4581168879605828
1782816373378847200,1.69484716796875,7.529201326611638,-3.5684605438292025,-2.2232250619001683
1782816373398929200,1.71492919921875,7.423863467827439,-3.27692791326046,-2.4295363006487487
1782816373419010000,1.735010009765625,7.001938616716862,-3.375517174567282,-2.3983709086649116
1782816373439092200,1.75509228515625,6.931254138162732,-3.638836979347467,-2.228345473653823
1782816373459174100,1.775174072265625,5.6361547061473125,-3.064040949383378,-2.4905250223577022
1782816373479256000,1.795256103515625,5.014067348176241,-2.333568035495281,-2.962303453178704
1782816373499338200,1.815338134765625,4.648317388752103,-1.3786112434387205,-2.178775387059897
1782816373519420200,1.835420166015625,3.7298517137467857,0.25661022413894535,-1.071202559954673
1782816373539501300,1.855501220703125,1.7417834613293408,2.2780917935974894,-0.022875264152884482
1782816373559583200,1.875583251953125,-0.774717713806033,3.861099382074177,-0.010229133069515228
1782816373579665200,1.8956650390625,-2.7788223242670296,4.13031584367752,1.812393997864425
1782816373599747000,1.9157470703125,-5.35881485158205,2.2918726277992127,6.4750774733603
1782816373619829200,1.935829345703125,-7.040504201954603,0.34691417992040513,7.650145919850468
1782816373639911200,1.9559111328125,-6.762572226715087,1.295869539605081,4.659514782331883
1782816373659993000,1.9759931640625,-9.259080415135621,0.8352771041870116,3.060495824122429
1782816373680074200,1.99607421875,-12.866929551023244,-0.11697817382588982,2.1758584766998887
1782816373700156200,2.01615625,-13.962134187203645,0.7984136466920375,0.3781099670425057
1782816373720238300,2.03623828125,-9.00078077660501,2.03396637250036,0.24135931738466024
1782816373740320300,2.0563203125,-2.6319272972136734,0.22124394639916717,-0.09105141314789653
1782816373760402200,2.076402099609375,0.5019260240644217,-1.8653934743851421,-0.9445509872458875
1782816373780484000,2.096484130859375,2.7636913906306027,-2.0599583073690533,-1.5149429370321332
1782816373800565200,2.116565185546875,5.271076362374425,-1.766665973651409,-0.7360979141630232
1782816373820647200,2.136647216796875,8.555892398536205,-1.1487206108558923,0.4425215028069913
1782816373840729300,2.156729248046875,10.16307040554285,-0.5498209074551239,0.4551967138543725
1782816373860811300,2.176811279296875,9.469578438049554,-0.020142039796710014,-0.5544479462012648
1782816373880893200,2.19689306640625,7.6224851749867195,-0.6987845209434628,0.8379448620915413
1782816373900975000,2.21697509765625,6.107791974931955,-1.7392011897511779,2.550615626183152
1782816373921057300,2.237057373046875,5.534930712422728,-1.5633670684613286,2.387327828864008
1782816373941138200,2.25713818359375,5.100204831928014,-0.7398779441583901,2.1241081234574315
1782816373961220400,2.277220458984375,4.6274657393813134,1.1125229237932712,1.3403133692264557
1782816373981302300,2.29730224609375,7.007735904818773,2.8265105426371098,2.1805233997710047
1782816374001384200,2.31738427734375,3.5306191812127827,2.9387787852063774,2.4214850961402057
1782816374021466400,2.33746630859375,-1.1780278808176516,2.910069700333476,-0.11757234032675623
1782816374041548300,2.35754833984375,-5.847165939280391,1.088374790160358,-0.7371790604632348
1782816374061629200,2.377629150390625,-7.773445551782846,-0.5854403197057545,-1.1063468655068427
1782816374081711400,2.39771142578125,-8.269395424047111,0.22352014770284293,-4.3066760346680875
1782816374101793300,2.417793212890625,-8.943043457907438,-0.2989987286657095,-5.1966000903218985
1782816374121875200,2.437875244140625,-7.794902181309461,-1.6864708855606614,-6.505043572556972
1782816374141957400,2.457957275390625,-3.9941269195556637,-2.238067095592618,-6.277514919865131
1782816374162039300,2.478039306640625,0.574610152003169,-1.3316826112642883,-6.267055485171079
1782816374182120200,2.4981201171875,2.286350357246399,0.9313931803133338,-5.280103133916855
1782816374202202000,2.5182021484375,-3.1374966462165115,2.200816684606671,-2.0934569646060464
1782816374222284000,2.538283935546875,-8.700525325876473,1.5572083997011184,0.7618091323941946
1782816374242366000,2.558365966796875,-7.940520028033852,0.608553338137269,3.238614549218118
1782816374262448000,2.5784482421875,-2.95554959500432,-0.877507641673088,3.656036535951495
1782816374282530000,2.598530029296875,2.2696061431944368,-1.6754136311039327,2.3332076777502895
1782816374302612000,2.618612060546875,4.60634053376615,-2.537433780787885,1.9406033214092253
1782816374322693000,2.638693115234375,5.150719798156619,-2.6466750767514107,1.033736168130487
1782816374342775000,2.658775146484375,5.4061944423943755,-2.205950686494261,0.1541160643480718
1782816374362856700,2.678856689453125,5.653177152618765,-1.6577634081229566,-0.33286329660564656
1782816374382938600,2.698938720703125,5.528964497494697,-0.30391660358458755,-0.2092177555787377
1782816374403020500,2.7190205078125,4.157767329704761,1.401085087183863,0.5160578636609018
1782816374423102700,2.739102783203125,3.0798627878934144,2.4827532193124293,0.8450555708795785
1782816374443183600,2.75918359375,3.779081900861859,3.388976960121095,-0.8672893953237683
1782816374463265500,2.779265625,3.6948160562008616,2.7317928620666265,-1.1403960692986845
1782816374483347700,2.79934765625,0.37809330816864967,1.9310151165917515,-0.07083353163599967
1782816374503429600,2.8194296875,-2.6149855147629975,1.2852562295235692,1.5848947173975407
1782816374523511600,2.839511474609375,-4.309877461057901,0.9052576722554861,1.0924436470344663
1782816374543593700,2.85959375,-4.697438854795694,1.1341583439528942,-0.10997150993421673
1782816374563674400,2.87967431640625,-6.217955646437407,-1.3736501139000057,0.8143931599818169
1782816374583756500,2.899756591796875,-6.72316025378108,-2.7319179497510193,-0.383357512307167
1782816374603838500,2.91983837890625,-7.2463815793305635,-2.6768875519245863,-1.0260704558081923
1782816374623920400,2.93992041015625,-6.656805913385749,0.30199338043704627,-2.5774273530021308
1782816374644002600,2.96000244140625,-3.565138121408224,2.1537471826568244,-2.2221580171905457
1782816374664084700,2.980084716796875,1.136089019754529,0.7419730898067355,-1.0583186745926738
1782816374684165400,3.000165283203125,2.2711662321180106,-0.3803869720637798,1.4461042324751614
1782816374704247600,3.02024755859375,1.1527525697857142,-1.5213161253258585,5.505141723358631
1782816374724329500,3.04032958984375,0.1791623889297247,-0.7180176292017102,5.401833324575424
1782816374744411400,3.060411376953125,1.6899147424042225,-0.32846871490851043,4.8798535235196345
1782816374764493600,3.08049365234375,3.2845056550383567,-1.1098100846379995,3.3507842998489736
1782816374784575500,3.100575439453125,4.627534128442407,-1.797645926065743,1.5730786073975265
1782816374804656400,3.120656494140625,5.649813813665509,-2.318852550791949,0.8523378368422388
1782816374824738600,3.140738525390625,5.936542258822918,-2.27333071667552,0.16536942589879036
1782816374844820500,3.160820556640625,5.348868042585253,-1.9688300295926628,-0.24863223099708556
1782816374864902400,3.18090234375,5.005870013195276,-1.3889680945411325,-0.5973682195171713
1782816374884984600,3.200984619140625,4.064329752072692,-0.8978626666333526,-1.0319881554193795
1782816374905065500,3.2210654296875,1.6188117461770772,-0.2132260961709544,-0.7983607474610209
1782816374925147600,3.241147705078125,-1.920146808835864,1.8461111201576887,0.9284094152621925
1782816374945229600,3.2612294921875,-6.189741359344125,3.570222585065663,1.4567276255592703
1782816374965311500,3.2813115234375,-8.044054052266478,2.3558149386167524,0.16320523360222577
1782816374985393400,3.301393310546875,-7.756364068600535,0.8100611951921135,-1.9139409399330616
1782816375005474600,3.321474609375,-6.630997518390417,0.48659693750739097,-2.383829903745651
1782816375025556500,3.341556396484375,-6.413917778998613,-1.3499470206208526,-1.8887771264515816
1782816375045638700,3.361638671875,-5.686057093435526,-2.123858971001953,-3.4126083033382892
1782816375065720600,3.381720458984375,-4.456566736406088,-1.6020907668702304,-2.646668939271569
1782816375085802500,3.401802490234375,-3.629950493058562,2.592901108726859,-0.5935547987088561
1782816375105884700,3.421884765625,-1.118548686888814,3.6680297560840844,1.6502504021443425
1782816375125965600,3.441965576171875,0.6371621775060892,1.4713343891911208,0.4154300822637975
1782816375146047500,3.462047607421875,2.56449568297565,-0.42968890924081204,-0.24304361720979212
1782816375166129700,3.482129638671875,4.491303703266382,-1.1993811961002647,-0.1766194264486432
1782816375186211600,3.502211669921875,5.42160828462541,-2.333909250148386,-0.3019172464609146
1782816375206293500,3.52229345703125,6.020461482003331,-2.7697084589630365,-0.2417883564516902
1782816375226374700,3.542374755859375,6.3338108075827355,-2.51964239577055,-0.22292057437449692
1782816375246456600,3.56245654296875,5.857428974619507,-2.623298292817175,-0.4829942368403077
1782816375266538500,3.58253857421875,5.664689311236143,-2.3361972149550914,-1.6142518909156323
1782816375286620700,3.60262060546875,5.900276767221093,-1.9801915276929736,-2.0778338635385034
1782816375306702600,3.62270263671875,6.852772722122073,-1.5680751000218092,-1.4198165295302867
1782816375326783700,3.64278369140625,7.289600543332099,-1.2081008013896644,-0.4073572504453361
1782816375346866000,3.662865966796875,4.166775981068611,0.1752655458879657,0.42110410931222136
1782816375366947800,3.68294775390625,2.711241072425246,1.9042093811221419,0.8627490484803915
1782816375387029800,3.70302978515625,-0.4446013778209686,2.9383909549325704,1.665743300960958
1782816375407112000,3.72311181640625,-4.7569729937821625,1.7319287145301698,0.3598249898219481
1782816375427192800,3.74319287109375,-9.584292612466216,1.1417375470355153,-0.12475943881925194
1782816375447275000,3.76327490234375,-6.893749460154772,2.4200706992976366,-2.039856015060842
1782816375467357000,3.78335693359375,-7.171244797542691,-0.6007212562721223,-2.624411807017028
1782816375487438800,3.80343896484375,-8.001343037787079,-1.8258387319795786,-3.8869419716000553
1782816375507521000,3.82352099609375,-7.619711034098267,1.3190671675801275,-3.987229853518307
1782816375527602000,3.843601806640625,-7.356555187708139,2.8223087070330974,-2.670524446633458
1782816375547683800,3.863683837890625,-7.085100884050131,1.7229985352300106,-1.7525946320705115
1782816375567766000,3.88376611328125,-4.821167525795102,-0.10761444368036463,-0.764651516213268
1782816375587848000,3.903847900390625,-1.4666735577732324,-1.8347825014136732,-0.17987214463427662
1782816375607929900,3.923929931640625,1.6338298670887945,-2.9858088319286704,0.6269152165189386
1782816375628011000,3.944010986328125,2.5327275027930733,-2.4877134720683096,0.9680556353434919
1782816375648093000,3.964093017578125,4.090784043756127,-1.8660070762388408,0.9648223525106906
1782816375668175000,3.984175048828125,6.500761365193128,-1.9462486338198184,1.6153360328905284
1782816375688257000,4.004257080078125,7.8365441052526235,-2.424920623546839,1.2609873190551995
1782816375708339000,4.0243388671875,6.9316609653979535,-2.7316996308252213,0.25291425569783893
1782816375728420900,4.0444208984375,4.754059152162075,-1.9777961569890379,0.1250716831061989
1782816375748502000,4.064501953125,3.4588428157687185,-0.40280280201137064,0.7342944449376314
1782816375768584000,4.084583984375,3.287188610512018,1.1618041835084556,0.6099773065257817
1782816375788666000,4.104666015625,3.65714654302001,1.50870565007776,0.7953287593539804
1782816375808748000,4.124748046875,2.779664620310068,1.6724276010304688,1.2355926194272935
1782816375828830000,4.144829833984375,1.4205799151182175,1.464388515575975,1.5705961429320274
1782816375848911000,4.1649111328125,-3.8806343958884475,1.8396629669316111,0.8735404185425489
1782816375868993000,4.184992919921875,-5.734453167814016,2.753002531094849,-0.29043796719983217
1782816375889075000,4.205074951171875,-4.6890702549010514,1.7040173559062182,-2.1494358953289687
1782816375909157000,4.2251572265625,-4.889004213702679,-0.5729596083171665,-3.3578155136600136
1782816375929239000,4.245239013671875,-4.668264782759547,-2.658202140676975,-4.827258536146581
1782816375949320200,4.2653203125,-3.5194279251128435,-4.597914066204428,-5.624334504494071
1782816375969402000,4.285402099609375,-8.764992829611897,-0.8285029338769614,-5.966723462074994
1782816375989484000,4.305484130859375,-9.203590583103894,1.5593720074757933,-5.533392835330963
1782816376009566000,4.32556591796875,-6.401925727909803,-0.37590946132354436,-5.074773453551531
1782816376029648100,4.345648193359375,-4.218108693420887,-2.4431698353342712,-4.207387392920255
1782816376049728800,4.365728759765625,0.7116846267879009,-1.7964368425369261,0.30484277851879593
1782816376069811000,4.38581103515625,3.180150377550721,-0.5918098547376692,4.004625809477269
1782816376089892900,4.405892822265625,4.005316422089934,-0.5358867458552122,5.252166494721174
1782816376109974800,4.425974853515625,4.95563854008317,-0.8001734229061752,5.091383227568865
1782816376130057000,4.446056884765625,6.631925739151239,-1.1721093044236301,4.819744799515605
1782816376150137900,4.466137939453125,8.21915401406288,-1.121357022307813,4.878628657899797
1782816376170219800,4.4862197265625,9.015847997355461,-1.0013038249507547,4.338950995329022
1782816376190302000,4.506302001953125,8.60401783927977,-0.6557898672170936,3.8366096684619784
1782816376210384000,4.5263837890625,6.676344142070413,-0.06748568251281976,3.0949598192602394
1782816376230465800,4.5464658203125,4.266539254590869,1.0090447944663465,2.3759943878144023
1782816376250547000,4.566546875,2.4042472533524033,1.8856914353959262,1.6386422358065842
1782816376270628900,4.58662890625,-0.5754319897800684,3.266011382448673,1.3201289515927432
1782816376290711000,4.6067109375,-2.7755758896917104,3.803151635496318,0.34629239476025103
1782816376310793000,4.62679296875,-5.801785997852683,3.8062671371683474,-1.2033233578547835
1782816376330875000,4.646875,-5.166564433020353,2.385074350848794,-2.737090383952856
1782816376350956300,4.666956298828125,-2.1758260357350108,1.0122998507395387,-4.920150462594628
1782816376371038200,4.6870380859375,-1.4085937092483043,-0.6182017487093806,-3.9726609376788136
1782816376391120100,4.7071201171875,-3.53122065423727,-1.4953274053275585,-2.384805763040483
1782816376411202300,4.727202392578125,-6.0539896575957535,-0.6233534323841333,-1.7233952794626355
1782816376431284200,4.7472841796875,-8.657141526702047,-0.8797171344161033,-2.4681924867793916
1782816376451365000,4.767365234375,-9.72289152033925,-0.22065803626999259,-2.5597908662855624
1782816376471447300,4.787447265625,-5.08725065780878,-0.9173086139246821,-1.497413271690905
1782816376491529200,4.807529296875,0.06322188758850097,-2.0463959382236,-0.7332832951337098
1782816376511611100,4.827611083984375,2.305615614208579,-2.2692625904537738,0.14486235218197108
1782816376531693300,4.847693359375,2.1252707374960185,-1.4365642507135867,1.6893397189952433
1782816376551774200,4.867774169921875,3.2609459157526492,-1.114638673838228,2.5612293746560812
1782816376571856400,4.8878564453125,4.443048498663306,-1.8911662135452032,2.4280748497940596
1782816376591938300,4.907938232421875,5.674791603055596,-2.502435240381956,2.4609391546502706
1782816376612020200,4.928020263671875,6.094702776256203,-2.5146464871793985,1.8021907298885285
1782816376632102100,4.94810205078125,5.477604897135496,-1.9488811742804943,1.6321666100516914
1782816376652183300,4.968183349609375,5.678745309117436,-1.4336939559742807,1.8700988755971193
1782816376672265200,4.98826513671875,6.196579680931568,-1.273208648855239,1.9687480503976345
1782816376692347400,5.008347412109375,4.767117955699563,-0.656844271640852,1.7383339053973554
1782816376712429300,5.02842919921875,2.0039222396314145,-0.19659085891880093,1.5946547716505826
1782816376732511200,5.04851123046875,0.255248434266448,0.683755878637731,1.579160119268298
1782816376752593200,5.06859326171875,-0.4979419228643179,-0.16543883787319064,2.33049286583364
1782816376772674000,5.088674072265625,-3.9622950264871117,-0.9366710476510226,2.004992353080958
1782816376792756000,5.108755859375,-6.191807644224166,-0.2872773112118244,1.4671632409863173
1782816376812838100,5.128838134765625,-7.487610256072879,0.6821604261398315,-0.1868898596429266
1782816376832920000,5.148920166015625,-8.968037029388546,1.41368401812464,-2.060443752798438
1782816376853002000,5.169001953125,-9.288243381255864,0.620961276550591,-3.7583196833401917
1782816376873083100,5.189083251953125,-8.15703336571455,-0.7283261111177504,-4.94675965257883
1782816376893165000,5.2091650390625,-8.436226154670118,-1.5405569784991442,-5.2228620743036265
1782816376913247200,5.229247314453125,-6.3391018997281785,-0.6068729838348925,-3.2367671677857635
1782816376933329200,5.2493291015625,-2.896999206358194,0.18639723555408416,0.13887553285732865
1782816376953411000,5.2694111328125,-0.06481237165033817,0.14960406681634486,1.6500437736563383
1782816376973492200,5.2894921875,1.8090759593576191,-0.6932596931073814,1.4451682667993009
1782816376993574100,5.30957421875,3.596473755392432,-1.6932511933505534,1.144207152019441
1782816377013656000,5.329656005859375,4.954187756752968,-1.6329044228069483,1.5991031293615698
1782816377033738200,5.34973828125,5.911649809628725,-0.7290743722017854,2.5154987200945613
1782816377053819100,5.369819091796875,6.867032133620977,-0.4102657217705622,2.4936162663713097
1782816377073901000,5.389901123046875,7.67636464921236,-0.41658692414872345,1.8806082869127392
1782816377093983200,5.409983154296875,8.399128303897381,-0.7177015489898622,1.3656781121075152
1782816377114065200,5.430065185546875,9.329660848793386,-0.3441905636427924,0.2753655770839192
1782816377134147000,5.45014697265625,9.959695366376637,-0.18884214448817074,-0.3678859485395253
1782816377154228200,5.470228271484375,9.71129168343842,0.0641847412712872,-0.9237637083481997
1782816377174310100,5.49031005859375,7.167036239936947,-0.4514790450381115,-0.02261946276091039
1782816377194392300,5.510392333984375,-0.8424293140292167,-0.3833460045324638,1.4306540037564932
1782816377214474200,5.53047412109375,-8.79874253900051,4.569155296970903,1.0470422974925488
1782816377234556200,5.55055615234375,-12.539037320828436,3.678265318894386,0.22853333622235802
1782816377254637300,5.57063720703125,-11.025141993153095,2.1862525910727677,-3.490108599387109
1782816377274719200,5.59071923828125,-8.79499458464384,0.8766665146738291,-3.5148096176624297
1782816377294801200,5.61080126953125,-5.760211878448724,-1.4630688112795351,-2.2468622503362594
1782816377314883300,5.63088330078125,-4.496050605532527,-2.8420868819534775,-1.9322202545978129
1782816377334965200,5.65096533203125,-7.978632608807087,-0.21229743701871484,-2.4151719674706458
1782816377355047200,5.671047119140625,-8.258266127267479,1.3557783571228383,-1.7171572618559001
1782816377375128300,5.69112841796875,-5.208191159394383,0.9319307212561369,-0.8924148495562374
1782816377395210200,5.711210205078125,-0.300980257871747,-0.4186299742836505,0.5302767970189451
1782816377415292200,5.731292236328125,3.4836195296287533,-1.7105211848422883,0.9918503524288534
1782816377435374300,5.751374267578125,5.270238157984614,-1.4341836391873657,2.1708615451954305
1782816377455456300,5.771456298828125,5.2693917702883475,-1.4234014022797346,2.123355843785405
1782816377475537200,5.791537109375,6.26207477414906,-1.0790884178336708,2.291761860901117
1782816377495619300,5.811619384765625,6.992629521101713,-1.0056851087749004,1.9877125708475707
1782816377515701200,5.831701171875,7.368952896988391,-1.0211625908266753,1.1762740228876472
1782816377535783200,5.851783203125,7.758062689211964,-1.0799433541625738,0.5518631173398345
1782816377555865300,5.871865234375,9.005079350581765,-0.4724618099752813,-0.1822855624515563
1782816377575946000,5.891946044921875,9.190660958904028,-0.5622163151804357,-0.47812334286831315
1782816377596028200,5.912028076171875,7.7026178653657436,-1.0901125006731598,-1.067126834948361
1782816377616110000,5.932110107421875,3.748444186013937,-1.4428309098929166,-1.3053626134850085
1782816377636192000,5.95219189453125,-1.4695745399117468,0.2771133705993183,-0.9251657571658491
1782816377656274200,5.972274169921875,-5.085149301615357,2.807190048356354,0.6156571057278662
1782816377676356000,5.992356201171875,-7.30269149557352,3.9008620681419965,1.1296817099954932
1782816377696437200,6.012437255859375,-8.968566606220602,4.362015644574165,-1.0813166152771563
1782816377716519200,6.032519287109375,-8.965663285994529,3.1612405098974703,-2.7893150767087933
1782816377736601000,6.05260107421875,-3.5385195790737867,0.9986549909424036,-2.419858371721208
1782816377756683000,6.07268310546875,-2.167847896462679,1.8848082228206098,-2.0596049638867377
1782816377776765200,6.09276513671875,-5.917246022200584,2.44529807953462,-2.2260167384453116
1782816377796846000,6.11284619140625,-6.136557466167211,0.7756183159075677,-1.8768086023688315
1782816377816928300,6.13292822265625,-5.109117037180066,-0.4579753847874701,-0.5518181822195649
1782816377837010200,6.15301025390625,-4.157230154088139,-1.1244934206373989,0.6013508594125508
1782816377857092000,6.173092041015625,-1.3900140964627266,-1.525540318892151,1.666402495522052
1782816377877174000,6.193174072265625,1.8511743948966264,-2.1267066155180334,2.129474180535227
1782816377897256200,6.213256103515625,4.385575968381763,-2.4566283057138323,2.4005809859298166
1782816377917337000,6.233337158203125,4.867503160512447,-2.1113551709987224,2.0393869362443686
1782816377937419300,6.253419189453125,5.035251005980372,-2.9343454789340493,2.638520704129338
1782816377957501200,6.273501220703125,5.846060023865103,-2.450727557237446,2.4684967304229737
1782816377977583000,6.2935830078125,6.517201043340563,-2.465347911003232,1.7597937497943639
1782816377997665300,6.313665283203125,6.262293385335803,-2.989145575135946,1.2714578596651553
1782816378017746200,6.33374609375,5.05537843272984,-2.637271580851078,1.3946362033054231
1782816378037828000,6.353828125,1.7935545650988816,-0.7711855941571295,1.8893191243737935
1782816378057910300,6.37391015625,-2.4218787716329095,1.1646632262013852,1.790860795970261
1782816378077992200,6.3939921875,-7.427412100219726,2.112749109575152,1.9608385924473404
1782816378098074000,6.41407421875,-10.004426488506793,3.613331366690993,0.21709727504849433
1782816378118156300,6.43415625,-9.215406693103908,4.620574226301908,-2.322220273659378
1782816378138237200,6.4542373046875,-8.43786398500502,5.292692566376925,-4.233026276567578
1782816378158319400,6.4743193359375,-7.068795645937323,3.3527345571339127,-3.291401552031934
1782816378178401300,6.4944013671875,-4.512163535943627,0.34909159702472387,-1.5267337664604186
1782816378198483200,6.514483154296875,-3.348299205034971,-0.9486150218144058,-0.2527241764858365
1782816378218565000,6.534565185546875,-5.192552276235818,0.45186895767115054,-0.9363416695661843
1782816378238646300,6.554646240234375,-5.396978870281576,0.810372964555025,-1.1084368965886533
1782816378258728200,6.574728271484375,-2.4777888749033212,-0.22674564908798783,-0.36631446143910285
1782816378278810400,6.594810302734375,1.1386387042373418,-1.3787874767884611,-0.7219481005184352
1782816378298892300,6.614892333984375,3.5191070225954055,-2.6984242609500884,-0.9760016259118914
1782816378318974200,6.63497412109375,4.636411846902966,-3.7250747086033225,-0.6561962560608983
1782816378339055000,6.65505517578125,5.735418797975778,-3.24955796803683,0.5130125046156346
1782816378359137300,6.67513720703125,6.410271531450748,-2.376180996427685,1.415723999519646
1782816378379219200,6.69521923828125,7.260888828110694,-1.595499844172597,1.0596719888977706
1782816378399301400,6.71530126953125,7.3885022315889595,-1.2232951556511222,0.6443657522093504
1782816378419383300,6.73538330078125,5.642939251720905,-1.2754171186849474,0.4330910093018785
1782816378439465200,6.75546533203125,5.261278021937608,-0.9080037560932338,-0.1364893318405375
1782816378459546400,6.77554638671875,6.3358864448130126,0.472591646900028,0.06814805541168897
1782816378479628300,6.795628173828125,4.495136997818946,4.35094713807106,1.1476216366380452
1782816378499710200,6.815710205078125,4.84084603973329,5.061649768084287,-2.4317390713900324
1782816378519792400,6.83579248046875,1.401932497793436,2.425931992546469,0.5352230943147093
1782816378539874300,6.855874267578125,-2.495482937026024,0.5175321739971638,-2.346590306414664
1782816378559955500,6.87595556640625,-6.170107853591442,-2.30124923569262,-5.535044109669327
1782816378580037400,6.896037353515625,-7.1476160846740004,-1.8827849002994597,-5.843968604543805
1782816378600119300,6.916119384765625,-7.497165435403585,-1.109038077352196,-2.3768282082900405
1782816378620201500,6.936201416015625,-8.755515976214408,-0.5993324322622269,-1.26750020808056
1782816378640283400,6.956283447265625,-11.866088959670066,0.06327237566672266,-2.2140540595814584
1782816378660364300,6.9763642578125,-10.741173075836896,-0.3455996267231181,-2.8141309535354373
1782816378680446500,6.996446533203125,-5.610507054671645,-0.31117117782272397,-1.719255695439875
1782816378700528400,7.0165283203125,-3.599621990290284,-0.3317635917354375,-1.1046116392120717
1782816378720610300,7.0366103515625,-1.8282091143727301,0.10533015953493303,-0.175215404869616
1782816378740692500,7.0566923828125,0.8049626299440861,1.298861853288859,2.184131215004623
1782816378760773400,7.0767734375,3.3290362861603495,1.4319997192770242,3.637999944001436
1782816378780855300,7.096855224609375,5.567645818066596,2.760410177002847,4.431324158599972
1782816378800937500,7.1169375,7.467648833540082,1.519450331453979,4.7414416626513
1782816378821019400,7.137019287109375,8.686494462436437,2.806643812650442,4.6060734072625635
1782816378841101300,7.157101318359375,8.857880372145772,2.864298713761568,3.6266298242032526
1782816378861182200,7.17718212890625,7.4711641481846565,3.1882460057228803,4.9947828019917
1782816378881264000,7.19726416015625,5.586451056301594,2.863263817755878,3.65056190393269
1782816378901346300,7.21734619140625,4.481381444188952,2.3933646248102187,2.1628568101771175
1782816378921428200,7.23742822265625,3.133743431162834,2.0261213580884037,1.183862870581448
1782816378941510100,7.25751025390625,-0.6381885979443788,1.9937929136745631,0.10092851790934801
1782816378961592300,7.27759228515625,-2.2110680295079943,1.5634217212580144,-0.22289843560792505
1782816378981673200,7.297673095703125,-1.2788649210512637,-0.4589125195071101,0.9579204641677439
1782816379001755100,7.317755126953125,-1.4913994182288646,-1.9580853482164442,0.4374074842615053
1782816379021837300,7.33783740234375,-3.843454712051153,-2.3935418810732663,-1.9854589467018842
1782816379041919200,7.357919189453125,-7.685181577396392,-2.3769484736688433,-3.4737504620432853
1782816379062001200,7.378001220703125,-10.926313370132446,-1.9303757957749068,-4.271969755207002
1782816379082082300,7.398082275390625,-11.271548364794254,-1.477768513891846,-4.906322428250313
1782816379102164200,7.418164306640625,-7.260116674694419,-1.8874954160779713,-3.7581501719921824
1782816379122246100,7.43824609375,-1.4055220467180012,-2.4252064547508954,-2.1275918739199637
1782816379142328300,7.458328369140625,2.1164935568004846,-2.4092943076089024,-0.7557057740177959
1782816379162410200,7.47841015625,2.2199024933487177,-0.7829263738986104,0.4044306589415297
1782816379182491400,7.498491455078125,1.5965706882745028,1.405708070809394,1.999517867192626
1782816379202573300,7.5185732421875,1.8014263213872908,1.8004184595189987,2.3571863731004297
1782816379222655200,7.5386552734375,3.3438498244106767,1.0375875097963958,1.6165215894132852
1782816379242737400,7.5587373046875,5.65462325977385,-0.020989377341046927,0.7394050659496336
1782816379262819300,7.5788193359375,7.147624267980456,-0.6750093853414059,0.012043963939137757
1782816379282900200,7.598900146484375,7.886200408825278,-0.17017859801249577,-0.5881449755545706
1782816379302982400,7.618982421875,8.015079886716604,0.22261552701331674,-0.905454802262783
1782816379323064300,7.639064208984375,7.516586759710312,0.16114333263635636,-1.001454412402585
1782816379343146200,7.659146240234375,5.754995605105162,0.20180852050185202,-0.07343260821849107
1782816379363228200,7.679228271484375,4.9952322993248695,-0.24390783282369374,2.241198379355669
1782816379383309000,7.69930908203125,0.40685003157556054,-0.6165094117082655,2.388051028572023
1782816379403391200,7.71939111328125,-5.615542710751295,-1.3249515494436024,0.9508836973987519
1782816379423473200,7.73947314453125,-9.01765767712593,-0.45507425651848316,-0.716675640008226
1782816379443555000,7.75955517578125,-9.693701666212082,0.5855608773455023,-1.5390557801559566
1782816379463637000,7.779636962890625,-8.881330805838108,-0.1032271502405405,-2.007041979087144
1782816379483718100,7.79971826171875,-7.916421359565853,-2.160766413769126,-2.0273400862284006
1782816379503800000,7.819800048828125,-8.598632054588197,-1.6501994026094675,-3.2210204403385516
1782816379523882200,7.83988232421875,-8.043027047306298,0.03394508583024144,-3.037729281041026
1782816379543964200,7.859964111328125,-4.023756334143877,-0.11316592206135391,-1.6046721616655588
1782816379564046000,7.880046142578125,0.542543281134963,-1.1794649278834461,-0.5755489672232419
1782816379584127200,7.900127197265625,3.634848201972246,-1.5817083424463867,0.2749230026818812
1782816379604209200,7.920209228515625,5.0577942616999145,-1.4439318568721413,0.7842858987487852
1782816379624291000,7.940291015625,5.546427673470974,-1.1202412430856377,0.7705997570931911
1782816379644373200,7.960373291015625,5.938026944422721,-0.7403098327696322,0.5901106130717322
1782816379664455200,7.980455078125,6.437934029880165,-0.3421802102010697,0.5943492370221763
1782816379684536300,8.000536376953125,7.266131989461183,-0.2472667878627777,0.33930845415703953
1782816379704618200,8.0206181640625,8.427238546094298,-0.7966170455988496,0.07067351876869797
1782816379724700200,8.0407001953125,8.31242675652206,-0.9893535671770572,0.0801459151867777
1782816379744782300,8.0607822265625,6.602179420185089,-0.8422720776408911,0.5454195672236383
1782816379764864300,8.0808642578125,4.543237888643145,-0.8420188335321843,1.0486669030196965
1782816379784945200,8.100945068359374,0.385263638189435,-0.45259690661951896,2.2422278685338792
1782816379805027300,8.12102734375,-6.977175931382179,0.17131664386540651,1.63212247864902
1782816379825109200,8.141109130859375,-12.946692239046095,0.5282980442918837,0.2099634045805782
1782816379845191200,8.161191162109375,-12.653185093533992,1.096503297688812,-1.5591038580588996
1782816379865273300,8.1812734375,-8.360293838590383,0.2499814536489546,-0.19580148037308825
1782816379885354200,8.201354248046876,-5.83838115980029,-1.4248779045730828,0.9043925067935138
1782816379905436200,8.221436279296874,-4.474454275274277,-2.383949000080675,0.1647114734467119
1782816379925518300,8.241518310546875,-4.846607671999931,-2.104349822281301,-0.905896335485205
1782816379945600300,8.261600341796875,-3.610930150768161,0.03815729669779539,-2.1249968889907
1782816379965682200,8.28168212890625,0.2850520363777876,0.6854268075246364,-0.9225320476613939
1782816379985763000,8.30176318359375,3.5415351275026796,-0.062144321484863756,-0.8637585177838801
1782816380005845000,8.321844970703125,5.783030443978309,-1.019017614687234,-0.6737061937883496
1782816380025927200,8.34192724609375,7.034003734019398,-1.714131338163465,0.07049523959234356
1782816380046009000,8.362009033203124,7.216486207282543,-2.1193445623174307,0.6852941210556774
1782816380066091000,8.382091064453125,6.495173335927724,-2.496197222775221,1.7136936773985623
1782816380086172200,8.402172119140625,5.7911915386021136,-2.3697061013251544,1.667874467770755
1782816380106254000,8.422254150390625,5.351279195380211,-2.342226265986264,1.1887912668943403
1782816380126336000,8.4423359375,5.516708827033638,-1.9211542323127389,1.105461168713495
1782816380146418200,8.462418212890626,5.215055199944973,-1.3506816185057162,0.919148542702943
1782816380166500000,8.4825,4.429264303460717,-1.0370977535180748,0.6851459447566419
1782816380186581200,8.502581298828124,2.5520354298532006,-0.0009953677129000424,0.4892192488349974
1782816380206663200,8.5226630859375,-0.549274050694704,1.435664963786304,-0.17953633680865166
1782816380226745000,8.5427451171875,-3.074227996876836,1.8238913973040878,0.26870529721081254
1782816380246827000,8.562826904296875,-3.5233640955179926,2.395809387613833,2.9785683592811223
1782816380266909200,8.5829091796875,-6.686887747916579,2.888414625625312,2.8476819254815577
1782816380286990000,8.602989990234375,-9.12858941039443,2.910885108369589,-1.8561402006104588
1782816380307072300,8.623072265625,-9.893061039996146,1.3665886510811744,-4.122421291035414
1782816380327154200,8.643154296875,-11.634073516952991,-0.29748434204738583,-5.982761573684215
1782816380347236000,8.663236083984375,-12.755190008503197,0.16567608069516718,-6.863783360958099
1782816380367318300,8.683318359375,-10.45638115170002,1.479350668516755,-3.606356266981363
1782816380387399400,8.7033994140625,-6.227191676816344,1.5432890338115393,-0.6440707878507673
1782816380407481300,8.7234814453125,-1.6770967618852852,0.8357672257915139,1.0611511215396225
1782816380427563500,8.7435634765625,2.718639950504899,-0.10145765634998678,1.4560761759132146
1782816380447645400,8.7636455078125,6.511116754990816,-0.5325540212359279,0.9191943546060473
1782816380467727400,8.783727294921874,7.877662882104516,-1.306761228236556,1.20455596838966
1782816380487808500,8.80380859375,8.76798791977465,-1.2599684974014758,0.9762683140240609
1782816380507890400,8.823890380859375,8.745710621514917,-1.2184002962816507,0.6821107417792082
1782816380527972400,8.843972412109375,8.902797372236847,-1.086756687439233,0.5226484575649724
1782816380548054500,8.864054443359375,8.415362814861535,-0.6774227300934493,0.49736310006305573
1782816380568136400,8.884136474609376,8.38975023469925,-0.28590996838137506,0.02720538404537365
1782816380588217600,8.904217529296876,8.60847540321052,-0.032084114263951774,-0.39219668885562564
1782816380608299500,8.924299560546874,7.758185438808798,0.36374227286353705,-0.7125464312490075
1782816380628381400,8.94438134765625,5.445971741509437,0.5212697530902922,-0.6830039642918855
1782816380648463400,8.96446337890625,2.539682728758454,-0.47878860184401273,-0.7173582154449075
1782816380668545500,8.984545654296875,-2.1712404615104197,-2.195960330616683,-0.21907354355752467
1782816380688626400,9.00462646484375,-9.128833156022429,-1.657418394077569,1.4499894033454357
1782816380708708600,9.02470849609375,-13.655768729162215,1.910847942353785,0.051526116032525895
1782816380728790500,9.04479052734375,-14.755387674653528,2.4476553101852536,0.46781380150634794
1782816380748872400,9.06487255859375,-14.138409622520207,1.360663498815894,-0.6552017651308327
1782816380768954600,9.08495458984375,-12.147508192503452,0.22390724732428788,-2.343793661433458
1782816380789035300,9.10503515625,-9.94702877702713,-0.23324936842620372,-2.042104963031411
1782816380809117400,9.125117431640625,-7.560047715774178,0.880218508066982,-1.5430696919724345
1782816380829199400,9.145199462890625,-4.3745852032899855,1.6520067442923783,-0.40655243686847387
1782816380849281300,9.16528125,-0.10488017814457416,1.0434132933404296,0.14606135270819068
1782816380869363500,9.185363525390626,3.5611423297703264,-0.09757091457713395,0.24377532901782542
1782816380889444400,9.2054443359375,5.893574054712057,-0.8588925191827118,0.011492284873127936
1782816380909526300,9.2255263671875,7.004531555819511,-1.0003411173984407,-0.4202455927867442
1782816380929608400,9.2456083984375,7.753036385482549,-0.6444371369451284,-0.7673143056817352
1782816380949690400,9.2656904296875,8.392737141555548,-0.30508579349443316,-1.3039527466870844
1782816380969772300,9.285772216796875,8.945472730880976,-0.30187311505824327,-1.4989391660839317
1782816380989853400,9.305853515625,9.236607302042842,-0.5469236881762742,-1.2111517133928835
1782816381009935400,9.325935302734376,9.264745016768574,-0.6917759573556482,-1.5228924347318709
1782816381030017300,9.346017333984374,9.204970639285445,-0.30799291311278937,-1.4291513441085815
1782816381050099500,9.366099365234374,9.206177676987647,0.5373597410172224,-1.6488210999935864
1782816381070181400,9.386181396484375,8.383931319287418,0.8035439953178167,-0.8884269489638507
1782816381090262500,9.406262451171875,4.854164370989799,0.542356818652153,0.695081136380881
1782816381110344400,9.426344482421875,-3.5291654752731323,0.6709151017650962,-1.2307367038287222
1782816381130426400,9.44642626953125,-12.613755584943293,-0.5300174154303967,-0.5314250902712345
1782816381150508300,9.46650830078125,-14.60665140364766,-1.1751765830397605,1.817313187957555
1782816381170590500,9.486590576171874,-11.562841341388225,0.14901055790260434,-0.581741209459491
1782816381190671400,9.50667138671875,-12.430082440590859,0.41324294748306273,0.24165113993808626
1782816381210753500,9.52675341796875,-13.52701959965229,1.2901163829058409,0.07728599571101367
1782816381230835500,9.54683544921875,-8.974386106154322,0.5329876634128391,-1.3817803749941289
1782816381250917400,9.56691748046875,-3.035336832946539,-0.8314518468104303,-0.34620968491286036
1782816381270999600,9.58699951171875,0.6971499054789543,-1.4986102263905108,0.23012378375157713
1782816381291080400,9.60708056640625,1.3679051405072211,-1.2837678906619547,-0.4240367286980152
1782816381311162400,9.627162353515626,0.9901292277246713,-0.3811348678216338,-0.4496237360276282
1782816381331244500,9.64724462890625,1.8428455424904822,0.6531644871495663,0.38028175812363624
1782816381351326500,9.667326416015625,3.426810431692004,0.5477678108502179,1.7631820770584046
1782816381371408000,9.687407958984375,5.403917145112157,0.11068857216238975,2.1223935746245086
1782816381391489000,9.707489013671875,6.774049314019083,-0.18888970995694399,1.559092898273468
1782816381411571000,9.727571044921875,6.896189254522323,-0.5539512487255036,0.7492663155548274
1782816381431653000,9.747653076171876,5.819250927394628,-0.9149545981444418,0.1117542286325246
1782816381451735000,9.767735107421874,4.987387431043386,-0.9581167173922062,0.006163418000563979
1782816381471817000,9.78781689453125,4.365262079149485,-1.0084174563482404,0.7126194964852184
1782816381491897900,9.80789794921875,2.2818863635748623,-0.5596392312340438,0.5707737887106835
1782816381511979800,9.827979736328125,-0.7169751344114541,1.1933614974193274,0.19710823385640977
1782816381532061700,9.848061767578125,-2.138997649553418,1.2842051130354404,0.06826265823468565
1782816381552144000,9.868143798828125,-2.14979259981215,0.17283844660520553,-0.2878174094378948
1782816381572226000,9.88822607421875,-0.699548783314228,-0.6904001389577984,-1.1318021362155675
1782816381592307000,9.908306884765626,0.5499661246120929,-1.115419156691432,-2.1731367966510353
1782816381612388900,9.928388916015624,-2.52326000174582,-0.9142012955591082,-0.7636002535946667
1782816381632470800,9.948470703125,-6.077846334001421,0.8185843280613422,-0.39419001809731125
1782816381652553000,9.968552978515625,-6.510279719644784,1.5390014196202157,-0.4256782122947275
1782816381672635000,9.988634765625,-3.539325634759664,1.183515956839919,-0.7427743231870234
1782816381692716800,10.008716796875,-0.8209247537076473,0.1687377332881093,-0.1530290728289634
1782816381712798000,10.0287978515625,0.39604046826958655,-0.3331678325101733,0.20918138735741376
1782816381732880000,10.0488798828125,1.2462275568187235,-0.28000074433758854,0.33120646930932995
1782816381752961800,10.0689619140625,2.0841630665600297,-0.2901690871305764,0.32066279039792717
1782816381773044000,10.0890439453125,1.6932272279530762,-0.11634265240132809,0.1870502926353365
1782816381793126000,10.1091259765625,1.3736100741505621,-0.14104542424231767,0.06255018973886035
1782816381813206800,10.129206787109375,1.439931681320071,-0.1992822168946266,-0.18920968089262022
1782816381833289000,10.1492890625,1.2550012303829192,-0.32532471779435873,-0.03577748888917267
1782816381853371000,10.169370849609376,0.876597541090846,-0.0017938976794481276,0.027914874888444317
1782816381873452800,10.189452880859376,0.23451485831737517,0.6028872751995921,-0.03698944479508791
1782816381893535000,10.209534912109374,0.34493688849806786,0.4658671609506011,-0.5780301895797252
1782816381913616000,10.229615966796874,1.0411164876401424,-0.12312427536547184,-1.0297698948480187
1782816381933698000,10.249697998046875,0.7264543258965015,0.20063947672247887,-0.4138018234748393
1782816381953780000,10.269780029296875,0.07886369335651397,0.707255119907856,0.21428318574214353
1782816381973862000,10.28986181640625,0.32078502853810786,0.9193182001814245,0.25743260990511624
1782816381993943800,10.30994384765625,1.058560374394059,0.4824146833866834,-0.14607656854363157
