time,seconds_elapsed,z,y,x
1782816044825877000,0.064876953125,-0.019200904294848442,0.9093949794769287,-1.2822071313858032
1782816044845959000,0.084958984375,0.28596800565719604,0.6353529691696167,-1.7803261280059814
1782816044866041900,0.105041748046875,0.4642196595668793,0.9033172130584717,-2.3573341369628906
1782816044886123800,0.125123779296875,1.1938769817352295,1.5115092992782593,-3.0291519165039062
1782816044906206000,0.1452060546875,2.0731966495513916,1.3527934551239014,-3.2861015796661377
1782816044926288000,0.165287841796875,2.195167303085327,0.5453013777732849,-2.5233163833618164
1782816044946371000,0.18537109375,2.2477645874023438,-0.7683089375495911,-0.955102264881134
1782816044966453000,0.205452880859375,2.1124327182769775,-0.8163578510284424,0.8828392028808594
1782816044986535200,0.22553515625,0.6249534487724304,-1.5246062278747559,2.131779193878174
1782816045006617000,0.2456171875,-0.8630006909370422,-4.1280364990234375,2.3939077854156494
1782816045026700000,0.265699951171875,-1.8600647449493408,-6.219309329986572,2.430708169937134
1782816045046782200,0.2857822265625,-2.719003438949585,-0.9160826802253723,0.708423376083374
1782816045066864000,0.305864013671875,-2.2026021480560303,-1.024202823638916,-0.9415560960769653
1782816045086946300,0.3259462890625,-1.7992098331451416,0.31767213344573975,-1.8846954107284546
1782816045107028200,0.3460283203125,-1.6311509609222412,0.8798864483833313,-2.4747772216796875
1782816045127111200,0.366111083984375,-1.2870217561721802,0.9751731157302856,-2.733389139175415
1782816045147193000,0.386193115234375,-0.13245831429958344,0.8059316277503967,-2.428713798522949
1782816045167275300,0.406275146484375,0.511164128780365,0.3717527389526367,-2.0098531246185303
1782816045187357200,0.426357177734375,0.5549576282501221,0.3506848216056824,-1.545583963394165
1782816045207440100,0.446440185546875,0.16935032606124878,0.10707388073205948,-0.9828977584838867
1782816045227522000,0.46652197265625,-0.31261974573135376,-0.21396714448928833,-0.8849920630455017
1782816045247604200,0.486604248046875,-0.3833238184452057,-0.6428230404853821,-0.716452956199646
1782816045267686100,0.50668603515625,-0.1347336322069168,-1.084648609161377,-0.3938404619693756
1782816045287769300,0.526769287109375,0.014264492318034172,-0.8982741832733154,-0.012620648369193077
1782816045307851300,0.546851318359375,-0.06505752354860306,-0.6832679510116577,0.035083550959825516
1782816045327933200,0.56693310546875,-0.2745330035686493,-0.24546100199222565,0.11189247667789459
1782816045348015400,0.587015380859375,-0.3381347358226776,0.06393732875585556,0.4179946780204773
1782816045368098300,0.607098388671875,-0.3396373987197876,0.21376629173755646,0.6924129128456116
1782816045388180200,0.62718017578125,-0.4197198152542114,0.321227490901947,0.9650223851203918
1782816045408262100,0.64726220703125,-0.584070086479187,-0.03311243653297424,0.8265902996063232
1782816045428344300,0.66734423828125,-0.6722977161407471,-0.7787548899650574,0.5635251998901367
1782816045448427300,0.68742724609375,-0.6304442286491394,-1.1735492944717407,0.854777455329895
1782816045468509200,0.70750927734375,-0.5339933037757874,-1.2466000318527222,1.0045692920684814
1782816045488591000,0.727591064453125,-0.5237836241722107,-0.9836318492889404,0.608781635761261
1782816045508673300,0.74767333984375,-0.3060867190361023,-0.8640168905258179,0.21493428945541382
1782816045528756200,0.767756103515625,0.2380336970090866,-1.1387406587600708,0.14351750910282135
1782816045548838100,0.787838134765625,0.5054525136947632,-1.3808908462524414,0.6283406615257263
1782816045568920000,0.807920166015625,0.5566017627716064,-1.4681676626205444,1.3334561586380005
1782816045589003300,0.828003173828125,0.9157998561859131,-1.5307506322860718,1.2594647407531738
1782816045609085400,0.84808544921875,1.2775440216064453,-1.2182073593139648,0.3375016450881958
1782816045629167400,0.86816748046875,1.2990480661392212,-0.28887027502059937,-0.7017560601234436
1782816045649249300,0.888249267578125,1.1209640502929688,0.901831328868866,-1.3130203485488892
1782816045669332200,0.908332275390625,0.8312343955039978,1.747555136680603,-1.361998438835144
1782816045689414100,0.9284140625,0.5371447205543518,1.9802653789520264,-0.9311046600341797
1782816045709496300,0.948496337890625,0.34374338388442993,1.5187783241271973,-0.3421435058116913
1782816045729578200,0.968578125,0.2500593066215515,0.7293602228164673,0.16209787130355835
1782816045749661200,0.9886611328125,0.14201703667640686,0.29205140471458435,0.5140334963798523
1782816045769743000,1.0087431640625,0.0016682427376508713,0.3545576333999634,0.693565309047699
1782816045789825300,1.0288251953125,-0.14822959899902344,0.5547701716423035,0.6437098979949951
1782816045809907200,1.0489072265625,-0.2935309410095215,0.7057870030403137,0.4524565041065216
1782816045829990100,1.068990234375,-0.3490090072154999,0.9275658130645752,0.431548535823822
1782816045850072000,1.089072021484375,-0.30074578523635864,1.1649430990219116,0.5463765859603882
1782816045870154200,1.109154296875,-0.34343433380126953,1.051430583000183,0.587064266204834
1782816045890236200,1.129236083984375,-0.4006247818470001,0.7952749729156494,0.5317554473876953
1782816045910319400,1.1493193359375,-0.35451841354370117,0.6193856596946716,0.5398306250572205
1782816045930401300,1.1694013671875,-0.5041598677635193,0.48425084352493286,0.44397082924842834
1782816045950483200,1.189483154296875,-0.6844756603240967,0.37413355708122253,0.1481267362833023
1782816045970565400,1.2095654296875,-0.6765299439430237,0.425383061170578,-0.3528493642807007
1782816045990648300,1.2296484375,-0.6354345083236694,0.11152467131614685,-0.2814321517944336
1782816046010730200,1.249730224609375,-0.48669323325157166,-0.29186466336250305,0.23190155625343323
1782816046030812200,1.269812255859375,-0.1930876076221466,-0.7509034872055054,0.8471949696540833
1782816046050893600,1.2898935546875,-0.33796626329421997,-1.3867074251174927,1.1566585302352905
1782816046070976800,1.309976806640625,-0.4505557715892792,-1.4174350500106812,1.01742422580719
1782816046091058700,1.33005859375,-0.11882762610912323,-0.5946375131607056,0.6251221895217896
1782816046111140600,1.350140625,0.397593230009079,0.0962873324751854,0.13161268830299377
1782816046131223600,1.3702236328125,0.59251868724823,-0.1380685269832611,-0.34821709990501404
1782816046151305700,1.3903056640625,0.4347003996372223,-0.5073943138122559,-0.5626262426376343
1782816046171387600,1.4103876953125,0.22751322388648987,-0.35408633947372437,-0.5112851858139038
1782816046191469600,1.430469482421875,0.17218029499053955,-0.04791567474603653,-0.5180473923683167
1782816046211552500,1.450552490234375,0.10914136469364166,0.01595173589885235,-0.7031465768814087
1782816046231634700,1.470634765625,0.26633480191230774,-0.01971815899014473,-0.5728915929794312
1782816046251716600,1.490716552734375,0.47647354006767273,-0.24085086584091187,-0.46277445554733276
1782816046271798500,1.510798583984375,0.49205830693244934,-0.21079576015472412,-0.4428969621658325
1782816046291881500,1.530881591796875,0.2931450605392456,0.01987016201019287,-0.4803849160671234
1782816046311963600,1.550963623046875,0.10319264233112335,0.3600735068321228,-0.5125953555107117
1782816046332045600,1.571045654296875,0.08950114250183105,0.6202846765518188,-0.41365188360214233
1782816046352127500,1.59112744140625,0.12868377566337585,0.721729040145874,-0.1316431760787964
1782816046372210400,1.61121044921875,0.14901353418827057,0.7044715285301208,0.26407602429389954
1782816046392292600,1.631292724609375,0.16505511105060577,0.8017597794532776,0.749446451663971
1782816046412374800,1.651374755859375,0.04114794358611107,0.9651123285293579,0.9213917851448059
1782816046432457700,1.671457763671875,-0.17978744208812714,0.9985920786857605,0.7255245447158813
1782816046452539600,1.69153955078125,-0.3108792006969452,0.43226373195648193,0.5427979826927185
1782816046472621600,1.71162158203125,-0.37921085953712463,-0.05356568098068237,0.12048275768756866
1782816046492703700,1.731703857421875,-0.5698390007019043,0.84890216588974,-0.523317813873291
1782816046512786700,1.75178662109375,-0.7472378015518188,1.2883849143981934,-1.0025627613067627
1782816046532868600,1.77186865234375,-0.4862622916698456,-0.17728307843208313,-1.066978096961975
1782816046552950500,1.791950439453125,-0.14072279632091522,-1.8207933902740479,-0.4742087125778198
1782816046573032700,1.81203271484375,0.029882676899433136,-2.5225508213043213,0.4849590063095093
1782816046593115600,1.83211572265625,0.2429628223180771,-2.354297637939453,0.043926697224378586
1782816046613197600,1.852197509765625,0.2562267482280731,-1.574460744857788,-1.4910258054733276
1782816046633279500,1.872279541015625,-0.32864129543304443,-0.8607507944107056,-2.2571113109588623
1782816046653361700,1.892361572265625,-0.4768621623516083,-0.5493071675300598,-1.1009942293167114
1782816046673444600,1.912444580078125,-0.04019271954894066,-0.8702825903892517,0.18487992882728577
1782816046693526500,1.932526611328125,0.06030600517988205,-1.3074723482131958,0.6329889893531799
1782816046713608400,1.9526083984375,-0.4661997854709625,-1.1976935863494873,0.19096064567565918
1782816046733691600,1.972691650390625,-0.6112489700317383,-0.036953154951334,-0.16284021735191345
1782816046753773600,1.992773681640625,-0.3146054446697235,1.0143895149230957,-0.1479155272245407
1782816046773855700,2.012855712890625,-0.01534039806574583,1.284578561782837,0.017322158440947533
1782816046793937700,2.032937744140625,0.047978512942790985,0.7918620705604553,0.07965373992919922
1782816046814020600,2.0530205078125,-0.06111046299338341,0.11347141861915588,0.06679030507802963
1782816046834102500,2.0731025390625,-0.14172270894050598,-0.17100967466831207,0.21537268161773682
1782816046854184700,2.093184814453125,-0.08709153532981873,-0.09034866094589233,0.46709102392196655
1782816046874267600,2.113267578125,0.10323908925056458,0.17961660027503967,0.7399511337280273
1782816046894349600,2.133349609375,0.24751229584217072,0.5027809143066406,0.9005174040794373
1782816046914431500,2.153431396484375,0.1438957154750824,0.7708815932273865,0.7872003316879272
1782816046934513700,2.173513671875,0.03694206103682518,1.0211622714996338,0.5704692602157593
1782816046954596600,2.1935966796875,0.008868411183357239,1.2284393310546875,0.30925682187080383
1782816046974678500,2.213678466796875,0.10249370336532593,1.2237650156021118,0.11599666625261307
1782816046994760400,2.233760498046875,0.20478227734565735,0.6554411053657532,0.30095458030700684
1782816047014843600,2.25384375,0.3452770411968231,0.08357075601816177,0.8563421964645386
1782816047034926300,2.27392626953125,0.1278674304485321,-0.07436147332191467,0.4411911070346832
1782816047055008500,2.294008544921875,-0.186806321144104,0.1655271351337433,-0.2613771855831146
1782816047075090400,2.31409033203125,0.2696177661418915,0.3708307147026062,-0.6652700304985046
1782816047095173600,2.334173583984375,0.7475615739822388,0.5358080267906189,-0.6381233930587769
1782816047115255600,2.354255615234375,0.7918412685394287,-0.3596418797969818,-0.3054499626159668
1782816047135337500,2.37433740234375,0.5202023983001709,-1.3866567611694336,-0.8812618255615234
1782816047155419600,2.394419677734375,0.26189854741096497,-0.9746510982513428,-1.884905457496643
1782816047175502600,2.414502685546875,0.08532580733299255,0.22618159651756287,-0.9223537445068359
1782816047195584500,2.43458447265625,0.4624793827533722,0.5549392104148865,0.9221739172935486
1782816047215666400,2.45466650390625,0.802898645401001,-0.3016877770423889,1.8886948823928833
1782816047235749400,2.474749267578125,0.46321141719818115,-1.2906646728515625,1.765102744102478
1782816047255831600,2.49483154296875,0.07024022936820984,-0.7930079102516174,1.0281134843826294
1782816047275913500,2.51491357421875,0.03088703751564026,0.6385460495948792,0.06729582697153091
1782816047295995400,2.534995361328125,0.07913894206285477,1.5976094007492065,-0.5526382923126221
1782816047316078300,2.555078369140625,-0.03645077347755432,1.4835056066513062,-0.6846538186073303
1782816047336160500,2.575160400390625,-0.2545510232448578,0.6262879371643066,-0.48379582166671753
1782816047356242400,2.595242431640625,-0.42795756459236145,-0.21363328397274017,-0.276561439037323
1782816047376325600,2.61532568359375,-0.49743348360061646,-0.3773002326488495,-0.11836814880371094
1782816047396407600,2.635407470703125,-0.33464428782463074,-0.21368254721164703,-0.0022844206541776657
1782816047416489700,2.65548974609375,-0.06289096921682358,-0.004398283548653126,0.1210494190454483
1782816047436572700,2.67557275390625,0.09972600638866425,0.24695876240730286,0.2771582007408142
1782816047456654600,2.695654541015625,0.09621687233448029,0.591239333152771,0.4379907548427582
1782816047476736500,2.715736572265625,0.09621421992778778,0.7383027076721191,0.3787066340446472
1782816047496818400,2.735818359375,0.20619063079357147,0.5732598900794983,0.1310085654258728
1782816047516901400,2.7559013671875,0.30089071393013,0.15118007361888885,-0.004807997494935989
1782816047536983600,2.775983642578125,0.17621822655200958,-0.14613141119480133,-0.10131348669528961
1782816047557065500,2.7960654296875,-0.43236464262008667,-0.2656521201133728,-0.725960910320282
1782816047577148400,2.8161484375,-0.8723037242889404,-0.15293532609939575,-0.5497236847877502
1782816047597230300,2.836230224609375,-0.7220092415809631,-0.04375113174319267,-0.32905590534210205
1782816047617312500,2.8563125,-0.7797550559043884,-0.11565670371055603,-0.5446062684059143
1782816047637394400,2.87639453125,-1.027103304862976,-0.2501279413700104,-0.6751063466072083
1782816047657477400,2.896477294921875,-0.7978813648223877,-0.06449756026268005,-0.8749066591262817
1782816047677559300,2.916559326171875,-0.2909334599971771,0.14382220804691315,-1.0681312084197998
1782816047697641500,2.936641357421875,0.09699225425720215,0.12320718169212341,-1.2139225006103516
1782816047717724700,2.956724609375,-0.009485561400651932,-0.14008592069149017,-1.1042112112045288
1782816047737806600,2.976806640625,-0.3458029329776764,-0.45798006653785706,-0.8514409065246582
1782816047757888500,2.996888427734375,-0.4703119099140167,-0.6045366525650024,-0.6421360373497009
1782816047777970400,3.016970458984375,-0.37027958035469055,-0.3814370930194855,-0.3836168646812439
1782816047798053400,3.037053466796875,-0.2676774561405182,0.006486814469099045,-0.010059639811515808
1782816047818135600,3.057135498046875,-0.09788639098405838,0.26083654165267944,0.5240411162376404
1782816047838217500,3.077217529296875,-0.0029366554226726294,-0.012758083641529083,0.9137499928474426
1782816047858300400,3.097300537109375,-0.11748962104320526,-0.7107377648353577,0.877128541469574
1782816047878382300,3.11738232421875,-0.30950382351875305,-1.2425816059112549,0.5691490173339844
1782816047898464500,3.137464599609375,-0.4353885054588318,-1.1821595430374146,0.2506011724472046
1782816047918546400,3.15754638671875,-0.4797745943069458,-0.6148203611373901,0.03005807101726532
1782816047938629400,3.17762939453125,-0.3809973895549774,0.13573209941387177,-0.05397387593984604
1782816047958711300,3.197711181640625,-0.18637101352214813,0.6884493231773376,0.08543601632118225
1782816047978793500,3.21779345703125,-0.06060829013586044,0.9653773307800293,0.3962399661540985
1782816047998876700,3.237876708984375,0.06150459870696068,1.0413060188293457,0.7403126955032349
1782816048018958600,3.25795849609375,0.2181282490491867,0.9913439750671387,0.9610668420791626
1782816048039039500,3.27803955078125,0.3664313852787018,0.8917560577392578,1.2111072540283203
1782816048059122700,3.298122802734375,0.38144737482070923,0.7851163744926453,1.393327236175537
1782816048079204600,3.31820458984375,0.5676253437995911,0.9809947609901428,0.9231746792793274
1782816048099286500,3.33828662109375,0.45014867186546326,1.2128843069076538,-0.31244736909866333
1782816048119368400,3.358368408203125,-0.1878538578748703,0.9730927348136902,-0.7685163617134094
1782816048139451400,3.378451416015625,-0.1775616705417633,0.4655446410179138,-0.5092421770095825
1782816048159533600,3.398533447265625,-0.03850848972797394,-0.008251160383224487,-0.29972293972969055
1782816048179615500,3.418615478515625,-0.08989759534597397,-0.9438754916191101,0.26488950848579407
1782816048199698700,3.43869873046875,0.08728672564029694,-1.9159739017486572,0.5927934646606445
1782816048219780600,3.458780517578125,0.5803667306900024,-2.2319955825805664,0.8993522524833679
1782816048239862800,3.47886279296875,0.8898406624794006,-2.018036127090454,1.2301747798919678
1782816048259944700,3.49894482421875,0.9536144733428955,-1.6165244579315186,0.9816357493400574
1782816048280027600,3.519027587890625,0.7648614048957825,-0.7717639803886414,-0.16891179978847504
1782816048300109600,3.539109619140625,0.3532668948173523,0.18378138542175293,-1.0756771564483643
1782816048320191700,3.559191650390625,-0.01493110228329897,1.0534353256225586,-1.0519657135009766
1782816048340274700,3.579274658203125,-0.16786335408687592,1.5797947645187378,-0.5378587245941162
1782816048360356600,3.599356689453125,-0.11036596447229385,1.5408707857131958,-0.00009519094601273537
1782816048380438500,3.6194384765625,-0.007194587495177984,1.0195738077163696,0.3135186433792114
1782816048400521500,3.639521484375,-0.05224458873271942,0.10767938941717148,0.26285916566848755
1782816048420603400,3.659603271484375,-0.19277264177799225,-0.6663224697113037,-0.015561609528958797
1782816048440685600,3.679685546875,-0.3637618124485016,-0.9894520044326782,-0.22149285674095154
1782816048460768800,3.699768798828125,-0.5376449227333069,-0.9693582057952881,-0.43259257078170776
1782816048480850700,3.7198505859375,-0.6523865461349487,-0.7684535384178162,-0.7323866486549377
1782816048500932600,3.7399326171875,-0.7628617882728577,-0.3956715762615204,-1.0920803546905518
1782816048521014800,3.760014892578125,-0.8129715323448181,0.08476604521274567,-1.1801187992095947
1782816048541097700,3.78009765625,-0.5863766074180603,0.4182717800140381,-0.9399329423904419
1782816048561179600,3.8001796875,-0.2573331892490387,0.23885206878185272,-0.832361102104187
1782816048581261600,3.820261474609375,-0.09217152744531631,-0.10027342289686203,-0.6592630743980408
1782816048601344500,3.840344482421875,0.24425938725471497,-0.3180563449859619,-0.14774081110954285
1782816048621426700,3.8604267578125,0.593621015548706,-0.7913996577262878,0.10565590113401413
1782816048641508600,3.880508544921875,0.5629146695137024,-1.1499172449111938,-0.3656575381755829
1782816048661591600,3.900591552734375,0.3235040009021759,-0.8378273248672485,-0.4161197245121002
1782816048681673500,3.920673583984375,0.3336579203605652,-0.7945510149002075,0.028790852054953575
1782816048701755600,3.940755615234375,0.26555392146110535,-0.7467376589775085,0.25436094403266907
1782816048721837600,3.960837646484375,-0.03844660148024559,-0.6027629971504211,0.15481753647327423
1782816048741920800,3.980920654296875,-0.10847108066082001,-0.34829527139663696,-0.2923789322376251
1782816048762002700,4.001002685546875,0.11413943767547607,-0.015996456146240234,-0.8646945953369141
1782816048782084600,4.021084716796875,0.3242986798286438,0.05625405162572861,-1.2763396501541138
1782816048802167600,4.04116748046875,0.12105416506528854,0.0805400088429451,-1.024583101272583
1782816048822249700,4.061249755859375,-0.07326867431402206,0.3484380543231964,0.07226572930812836
1782816048842331600,4.08133154296875,0.08241432160139084,0.519808828830719,0.9886049032211304
1782816048862414600,4.10141455078125,0.2690904140472412,0.5502287745475769,1.4034247398376465
1782816048882496500,4.12149658203125,0.11908921599388123,0.6343217492103577,1.4864051342010498
1782816048902578700,4.14157861328125,-0.05363348498940468,0.9714019894599915,1.502089023590088
1782816048922661600,4.16166162109375,-0.06482730805873871,1.3204373121261597,1.4417905807495117
1782816048942743600,4.18174365234375,0.016415154561400414,1.3071346282958984,1.2376052141189575
1782816048962825500,4.201825439453125,0.10216739028692245,0.8010276556015015,0.9701594710350037
1782816048982907600,4.22190771484375,-0.05735653638839722,0.21661417186260223,0.6726195812225342
1782816049002990800,4.241990966796875,-0.3104574680328369,-0.10133280605077744,0.3009636700153351
1782816049023072800,4.26207275390625,-0.23101100325584412,-0.18441572785377502,-0.051884863525629044
1782816049043155200,4.2821552734375,0.25522580742836,-0.33069634437561035,-0.17784416675567627
1782816049063238100,4.302238037109375,0.4912780821323395,-0.21285559237003326,-0.2845010757446289
1782816049083320000,4.322320068359375,-0.05418635904788971,0.3268187344074249,-0.30240410566329956
1782816049103402200,4.34240234375,-0.7492442727088928,0.1266629993915558,-0.2908523976802826
1782816049123485200,4.362485107421875,-0.954901933670044,-0.35086894035339355,-0.616832971572876
1782816049143567000,4.382567138671875,-0.43149876594543457,-0.5921550989151001,-1.0413403511047363
1782816049163649000,4.40264892578125,-0.1522926390171051,-0.23137719929218292,-0.45353326201438904
1782816049183732200,4.422732177734375,-0.403857558965683,-0.0653391033411026,0.3626127541065216
1782816049203814100,4.442814208984375,-0.5954787731170654,-0.43223172426223755,-0.17628277838230133
1782816049223896300,4.462896240234375,-0.5426005721092224,-0.3536551594734192,0.2897753417491913
1782816049243979300,4.482979248046875,-0.10352902859449387,-0.5816424489021301,1.1321220397949219
1782816049264061200,4.503061279296875,0.22796396911144257,-0.8305414319038391,0.8780192136764526
1782816049284143000,4.52314306640625,-0.024434873834252357,-0.9176011681556702,0.09458503127098083
1782816049304225300,4.543225341796875,-0.23093165457248688,-0.542969286441803,-0.37457647919654846
1782816049324308200,4.56330810546875,0.20737449824810028,0.39612942934036255,-0.104451023042202
1782816049344390100,4.58339013671875,1.0967942476272583,-0.12100928276777267,0.2885931134223938
1782816049364472000,4.60347216796875,1.253607988357544,-1.1706280708312988,0.23341113328933716
1782816049384555000,4.623554931640625,0.8997179269790649,-1.0206208229064941,-0.13951171934604645
1782816049404637200,4.64363720703125,0.4117436707019806,-0.012586119584739208,-0.5976769328117371
1782816049424719000,4.663718994140625,-0.006368085741996765,1.1872773170471191,-0.9675726294517517
1782816049444802000,4.683802001953125,0.19206321239471436,0.8170309662818909,-1.2334483861923218
1782816049464884000,4.703884033203125,0.25171536207199097,0.011293107643723488,-1.1365907192230225
1782816049484966100,4.723966064453125,0.046688809990882874,-0.1579788476228714,-0.46204012632369995
1782816049505049300,4.74404931640625,-0.15065431594848633,0.057100992649793625,0.1339833289384842
1782816049525131300,4.76413134765625,-0.10439882427453995,0.3856404423713684,0.17537690699100494
1782816049545213200,4.784213134765625,0.07410897314548492,0.7119626402854919,-0.2403220534324646
1782816049565296000,4.804296142578125,0.080146424472332,1.08120596408844,-0.392168253660202
1782816049585378000,4.8243779296875,-0.02182544209063053,1.2194879055023193,-0.06421291828155518
1782816049605460200,4.844460205078125,0.07317319512367249,1.0790826082229614,0.8076664209365845
1782816049625543200,4.864543212890625,0.253172904253006,0.9021133184432983,1.3269782066345215
1782816049645625000,4.884625,0.2912222146987915,0.7609800100326538,0.9390400052070618
1782816049665707000,4.90470703125,0.16870608925819397,0.9394880533218384,0.8484530448913574
1782816049685790000,4.9247900390625,0.1581002175807953,1.1278800964355469,1.183461308479309
1782816049705872100,4.9448720703125,0.3121463358402252,1.2436617612838745,1.1234453916549683
1782816049725954000,4.9649541015625,0.2606567442417145,0.6029090285301208,0.6698535084724426
1782816049746037200,4.985037353515625,-0.07925649732351303,-0.4290236830711365,0.9008846282958984
1782816049766119200,5.005119140625,-0.3007916212081909,-0.8882421255111694,1.6443878412246704
1782816049786201300,5.025201416015625,-0.2125774770975113,-0.8268382549285889,1.2414644956588745
1782816049806283300,5.045283203125,-0.1333843171596527,-0.29504039883613586,0.3510642647743225
1782816049826366200,5.0653662109375,-0.2193022221326828,0.010013023391366005,-0.2871277630329132
1782816049846448000,5.0854482421875,-0.15362390875816345,0.14475420117378235,-0.5804921388626099
1782816049866530300,5.1055302734375,-0.1322985291481018,-0.07433314621448517,-0.8641685247421265
1782816049886613200,5.12561328125,-0.2589237689971924,-0.515942394733429,-1.3220642805099487
1782816049906695200,5.145695068359375,-0.18846829235553741,-0.7736212015151978,-1.5930463075637817
1782816049926777000,5.165777099609375,0.021551739424467087,-0.5488131046295166,-1.4467461109161377
1782816049946860000,5.185860107421875,0.17274458706378937,-0.1503385305404663,-1.0318301916122437
1782816049966942000,5.20594189453125,0.1886022835969925,0.25926801562309265,-0.475630521774292
1782816049987024100,5.226024169921875,0.17023782432079315,0.5745415091514587,-0.0391169935464859
1782816050007107300,5.246107421875,0.14584980905056,0.6901164650917053,0.08379802107810974
1782816050027189200,5.266189208984375,0.07533968985080719,0.6441177725791931,0.017210740596055984
1782816050047271000,5.28627099609375,0.03791220486164093,0.30653876066207886,-0.14564712345600128
1782816050067353900,5.306353759765625,0.04207805544137955,-0.1810859739780426,-0.18713349103927612
1782816050087436000,5.32643603515625,0.10777438431978226,-0.4596115052700043,0.1422787606716156
1782816050107518000,5.34651806640625,0.09555870294570923,-0.5335682034492493,0.3237569034099579
1782816050127601000,5.366600830078125,-0.04358085244894028,-0.3339059352874756,0.15440765023231506
1782816050147682800,5.386682861328125,-0.15712681412696838,0.17526520788669586,-0.034645602107048035
1782816050167765000,5.406764892578125,-0.11112875491380692,0.7625913619995117,0.029593709856271744
1782816050187848000,5.426847900390625,-0.014932384714484215,1.2258007526397705,0.2810439169406891
1782816050207929900,5.446929931640625,0.0617993026971817,1.4302663803100586,0.4305232763290405
1782816050228011800,5.46701171875,0.11393558233976364,1.3288140296936035,0.2983054518699646
1782816050248094700,5.4870947265625,0.27472203969955444,0.9657530188560486,0.05980084091424942
1782816050268177000,5.507177001953125,0.24065342545509338,0.2513410449028015,-0.5722082853317261
1782816050288258800,5.5272587890625,-0.1578231155872345,-0.5665527582168579,-1.5469356775283813
1782816050308342000,5.547342041015625,-0.4457569420337677,-0.810052216053009,-1.395552158355713
1782816050328424000,5.567423828125,-0.3354201018810272,-1.0023995637893677,-0.799702525138855
1782816050348505900,5.587505859375,-0.04682973399758339,-1.2081705331802368,-0.6272349953651428
1782816050368588800,5.6075888671875,-0.13547003269195557,-1.4442800283432007,-0.9703776836395264
1782816050389298000,5.6282978515625,-0.28776511549949646,-1.5538235902786255,-1.7738137245178223
1782816050408754000,5.64775390625,0.23379391431808472,-0.7763777375221252,-1.5052986145019531
1782816050428835800,5.6678359375,0.8491312861442566,-0.14700981974601746,-0.7865460515022278
1782816050448917800,5.687917724609375,0.6774696707725525,-0.4786508083343506,-0.40044769644737244
1782816050469000700,5.708000732421875,0.11118361353874207,-1.0637075901031494,-0.08987901359796524
1782816050489083000,5.728082763671875,-0.3585905432701111,-1.1065512895584106,0.38483068346977234
1782816050509164800,5.748164794921875,-0.30200234055519104,-0.48851248621940613,0.8853626847267151
1782816050529248000,5.768248046875,-0.18242189288139343,0.3235425651073456,1.0854616165161133
1782816050549330000,5.788329833984375,-0.06643636524677277,0.86674565076828,0.9719727039337158
1782816050569412000,5.808412109375,0.05396055430173874,0.8594960570335388,0.7971760630607605
1782816050589495000,5.8284951171875,0.1426660269498825,0.3066684901714325,0.6681423783302307
1782816050609577000,5.848576904296875,0.0055019124411046505,-0.23563586175441742,0.5531243681907654
1782816050629659000,5.868658935546875,-0.21526378393173218,-0.423880934715271,0.432446151971817
1782816050649741800,5.888741943359375,-0.3556464612483978,-0.20753906667232513,0.23198308050632477
1782816050669824000,5.908823974609375,-0.37393102049827576,0.2906424403190613,0.007669828366488218
1782816050689906000,5.928906005859375,-0.2652898132801056,0.6695619821548462,-0.13843700289726257
1782816050709988900,5.94898876953125,-0.12398961931467056,0.9069489240646362,-0.1675923615694046
1782816050730070800,5.96907080078125,0.004581414628773928,0.9175437688827515,-0.02516498602926731
1782816050750152700,5.989152587890625,0.0856989175081253,0.6817253232002258,0.24752062559127808
1782816050770236000,6.00923583984375,0.24951446056365967,-0.008443675003945827,0.4798962473869324
1782816050790318000,6.029318115234375,0.5678778290748596,-0.7231335043907166,0.647907555103302
1782816050810400000,6.04939990234375,0.1811670958995819,-1.0102418661117554,0.41121211647987366
1782816050830483000,6.06948291015625,-0.130558043718338,-1.4354900121688843,-0.5708782076835632
1782816050850564900,6.08956494140625,-0.18243998289108276,-0.9407338500022888,-1.867202877998352
1782816050870647800,6.109647705078125,-0.3484323024749756,0.5078263878822327,-2.4058752059936523
1782816050890730000,6.12972998046875,-0.3849475383758545,0.9091617465019226,-1.6038830280303955
1782816050910812000,6.14981201171875,-0.38229089975357056,-0.25698116421699524,-0.8571505546569824
1782816050930894800,6.169894775390625,-0.2420717030763626,-0.7918070554733276,-0.14653626084327698
1782816050950976800,6.189976806640625,0.2431456446647644,-0.46594902873039246,0.7590290307998657
1782816050971059000,6.210058837890625,0.5591605305671692,-0.3660793900489807,1.3508883714675903
1782816050991142000,6.230141845703125,0.3029511868953705,-0.8115213513374329,1.354628562927246
1782816051011223800,6.250223876953125,0.03229234367609024,-1.3331577777862549,0.679741382598877
1782816051031305700,6.2703056640625,0.005883653648197651,-0.8855827450752258,-0.14343705773353577
1782816051051389200,6.29038916015625,0.024500591680407524,0.2904878258705139,-0.42433062195777893
1782816051071471000,6.31047119140625,-0.09255827218294144,1.2368724346160889,-0.1462152898311615
1782816051091553300,6.33055322265625,-0.1708116978406906,1.5510542392730713,0.3390238881111145
1782816051111636500,6.350636474609375,-0.17276981472969055,1.2840938568115234,0.7667367458343506
1782816051131718400,6.370718505859375,-0.13415691256523132,0.660911500453949,0.9271199703216553
1782816051151800300,6.39080029296875,-0.14459924399852753,0.0748840793967247,0.819675624370575
1782816051171883300,6.41088330078125,-0.16969925165176392,-0.17598184943199158,0.5201258063316345
1782816051191965400,6.43096533203125,-0.18015769124031067,-0.09424151480197906,0.2161218523979187
1782816051212047400,6.45104736328125,-0.1813259720802307,0.22189784049987793,0.08285409957170486
1782816051232130300,6.47113037109375,-0.13470368087291718,0.520580530166626,0.13953347504138947
1782816051252212200,6.491212158203125,-0.06088414415717125,0.7083002924919128,0.26993510127067566
1782816051272295200,6.511295166015625,0.04723506420850754,0.8145336508750916,0.4284217655658722
1782816051292377300,6.53137744140625,0.09884470701217651,0.8572455644607544,0.5493925213813782
1782816051312459300,6.551459228515625,0.09752734750509262,0.8294362425804138,0.4542098939418793
1782816051332542200,6.571542236328125,0.15272046625614166,1.0184236764907837,0.004056795500218868
1782816051352624000,6.5916240234375,0.3728882372379303,1.1849421262741089,-0.7514612674713135
1782816051372706000,6.6117060546875,0.46277111768722534,1.0577985048294067,-1.268968939781189
1782816051392789200,6.631789306640625,0.2750813663005829,0.6103816628456116,-1.3808164596557617
1782816051412871400,6.651871337890625,0.29893502593040466,0.2159901261329651,-0.8466321229934692
1782816051432953300,6.671953369140625,0.41980618238449097,-0.1506691873073578,0.006416990887373686
1782816051453036300,6.692036376953125,0.301591694355011,-0.7898895144462585,0.4842159152030945
1782816051473118200,6.7121181640625,0.09536053985357285,-1.5225871801376343,0.5130438804626465
1782816051493200400,6.732200439453125,-0.1601547747850418,-2.0437662601470947,-0.02231440879404545
1782816051513283300,6.752283447265625,0.07535137236118317,-0.7815645337104797,-0.05956106260418892
1782816051533365200,6.772365234375,0.5588797926902771,0.5385497808456421,-0.011505065485835075
1782816051553448200,6.7924482421875,0.8548592329025269,0.381272554397583,0.15775424242019653
1782816051573530000,6.812530029296875,0.8236545920372009,-0.88117516040802,0.1343187838792801
1782816051593612300,6.8326123046875,0.5685529708862305,-0.8462076783180237,-0.481003999710083
1782816051613695500,6.852695556640625,0.6033273339271545,0.6505182981491089,-0.9337983727455139
1782816051633777400,6.87277734375,0.890265166759491,2.1665894985198975,-0.7643718719482422
1782816051653859300,6.892859375,1.0493035316467285,2.119826078414917,0.08951646089553833
1782816051673942300,6.9129423828125,0.8423130512237549,0.4205334484577179,1.247622013092041
1782816051694024400,6.9330244140625,0.2607909142971039,-1.2846428155899048,1.833379864692688
1782816051714106400,6.9531064453125,-0.31440624594688416,-1.660110354423523,1.5370004177093506
1782816051734189300,6.973189208984375,-0.5063857436180115,-0.6929513812065125,0.6665947437286377
1782816051754271200,6.993271240234375,-0.3875166177749634,0.7553990483283997,-0.21208296716213226
1782816051774353200,7.013353271484375,-0.2681131064891815,1.4627794027328491,-0.43497347831726074
1782816051794436000,7.03343603515625,-0.3063243627548218,1.1014072895050049,-0.21157722175121307
1782816051814518300,7.053518310546875,-0.38427481055259705,0.4997076094150543,-0.029154453426599503
1782816051834601200,7.073601318359375,-0.3047400712966919,0.33733564615249634,-0.004359555896371603
1782816051854683400,7.093683349609375,0.008570687845349312,0.40583541989326477,0.1444854736328125
1782816051874765300,7.113765380859375,0.4726358652114868,0.3095139265060425,0.22927260398864746
1782816051894848300,7.13384814453125,0.9042180180549622,0.0939522311091423,0.347214937210083
1782816051914930400,7.153930419921875,0.9996805787086487,-0.361381858587265,0.046965938061475754
1782816051935012400,7.174012451171875,0.4519379734992981,-1.2442508935928345,-1.2477800846099854
1782816051955095300,7.19409521484375,0.329001784324646,-1.1436686515808105,-2.198211431503296
1782816051975177200,7.21417724609375,0.44119736552238464,-0.6684285998344421,-1.4805220365524292
1782816051995259400,7.23425927734375,0.2567015588283539,-1.1030539274215698,-0.7338905930519104
1782816052015342300,7.25434228515625,0.07481008023023605,-1.6404391527175903,-0.8789105415344238
1782816052035424300,7.27442431640625,0.024932606145739555,-0.9216872453689575,-0.9244086146354675
1782816052055505700,7.294505615234375,0.2810177505016327,0.3241254389286041,-0.67371666431427
1782816052075588900,7.3145888671875,0.7039310336112976,0.019857339560985565,-0.3270977735519409
1782816052095671000,7.334671142578125,0.3178465664386749,-1.2621301412582397,0.0598612055182457
1782816052115754000,7.35475390625,-0.18190805613994598,-1.5024168491363525,0.22537653148174286
1782816052135836000,7.3748359375,-0.4544733762741089,-0.42794257402420044,0.4295157194137573
1782816052155917800,7.394917724609375,-0.5725337862968445,0.8583423495292664,0.6349526047706604
1782816052176000800,7.415000732421875,-0.6075647473335266,1.3564451932907104,0.850381076335907
1782816052196083000,7.4350830078125,-0.4328290820121765,1.1821826696395874,1.1996017694473267
1782816052216164900,7.455164794921875,-0.2562510073184967,0.6953556537628174,1.4156614542007446
1782816052236247800,7.475247802734375,-0.2737649083137512,0.13694347441196442,1.2942988872528076
1782816052256329700,7.495329833984375,-0.3767927885055542,-0.33389604091644287,0.7785442471504211
1782816052276411600,7.51541162109375,-0.3924121856689453,-0.4823623299598694,0.09449601918458939
1782816052296494800,7.535494873046875,-0.3206682503223419,-0.18560612201690674,-0.42556145787239075
1782816052316577000,7.555576904296875,-0.26795512437820435,0.2873767912387848,-0.5502430200576782
1782816052336660000,7.575659912109375,-0.15700696408748627,0.49504902958869934,-0.36620840430259705
1782816052356742000,7.595741943359375,-0.08735106140375137,0.2933962643146515,-0.18719211220741272
1782816052376823800,7.61582373046875,-0.0018494885880500078,0.2997269332408905,-0.05335904657840729
1782816052396906800,7.63590673828125,-0.12533925473690033,-0.0007466333918273449,-0.21728196740150452
1782816052416989000,7.655989013671875,-0.3217516243457794,-0.13537198305130005,-0.5711637139320374
1782816052437070800,7.67607080078125,-0.26112550497055054,-0.2441110908985138,-0.913820207118988
1782816052457153800,7.69615380859375,-0.1349511444568634,-0.5824253559112549,-1.3502334356307983
1782816052477235700,7.716235595703125,-0.5289074182510376,-0.7044821977615356,-1.146946668624878
1782816052497319000,7.73631884765625,-0.9733707904815674,-1.1818645000457764,-0.925360918045044
1782816052517401000,7.756401123046875,-0.9226555228233337,-1.3184016942977905,-0.6758300065994263
1782816052537483000,7.77648291015625,-0.7156319618225098,-1.333818793296814,-0.8645482063293457
1782816052557566000,7.79656591796875,-0.5312496423721313,-0.9768884181976318,-1.012549638748169
1782816052577647900,7.81664794921875,-0.2898375689983368,-0.24935738742351532,-0.588695228099823
1782816052597730000,7.83672998046875,0.4334520697593689,0.5848215818405151,0.46858707070350647
1782816052617813000,7.85681298828125,0.4629543721675873,0.007079099304974079,1.284530520439148
1782816052637895000,7.87689501953125,-0.2321826070547104,-1.2421133518218994,1.7714641094207764
1782816052657976800,7.896976806640625,-0.1523708552122116,-1.0859861373901367,1.8912588357925415
1782816052678059800,7.917059814453125,0.04915392026305199,0.047407153993844986,1.5219488143920898
1782816052698141700,7.9371416015625,-0.08435626327991486,1.1467597484588623,1.1925756931304932
1782816052718224600,7.957224609375,-0.11642622947692871,1.558825969696045,1.137582540512085
1782816052738306800,7.977306884765625,-0.13442109525203705,1.4410946369171143,1.1802364587783813
1782816052758388700,7.997388671875,-0.21036650240421295,1.0558496713638306,1.145157814025879
1782816052778472000,8.017471923828126,-0.34323039650917053,0.5027489066123962,0.7701550126075745
1782816052798553900,8.037553955078126,-0.3373335003852844,0.22686080634593964,0.20375999808311462
1782816052818636000,8.057635986328124,-0.2081681191921234,0.23405224084854126,-0.37639808654785156
1782816052838719000,8.077718994140625,-0.03566073253750801,0.34267500042915344,-0.717339038848877
1782816052858801000,8.09780078125,-0.013136181980371475,0.5671870708465576,-0.6815672516822815
1782816052878883800,8.1178837890625,-0.04693435877561569,0.6495547294616699,-0.4686949849128723
1782816052898965800,8.1379658203125,0.018601935356855392,0.2573281228542328,-0.3644125759601593
1782816052919048000,8.1580478515625,-0.010590801015496254,-0.41582340002059937,-0.4284304678440094
1782816052939131000,8.178130859375,-0.36464905738830566,-1.0944466590881348,-0.5584609508514404
1782816052959212800,8.198212890625,-1.132649540901184,-1.7788498401641846,-0.7165542244911194
1782816052979294700,8.218294677734375,-1.2110424041748047,-1.3513288497924805,-0.45252031087875366
1782816052999378000,8.2383779296875,-0.6604787707328796,-0.6788772344589233,-0.49481865763664246
1782816053019459800,8.2584599609375,-0.7211465239524841,-0.754658043384552,-1.3535739183425903
1782816053039543000,8.27854296875,-0.7208726406097412,0.22041869163513184,-1.3173199892044067
1782816053059625200,8.298625244140625,-0.3766191005706787,0.6182226538658142,-0.5385830402374268
1782816053079707100,8.31870703125,-0.3711099624633789,-0.0787019357085228,-0.10617253929376602
1782816053099790300,8.338790283203124,-0.23276235163211823,-0.5840845108032227,-0.014961956068873405
1782816053119872300,8.358872314453125,-0.17621144652366638,-0.7215636372566223,-0.4546523988246918
1782816053139954400,8.378954345703125,0.029239486902952194,0.31303778290748596,-0.731549859046936
1782816053160037400,8.399037353515626,0.2157883197069168,0.46501195430755615,-0.8266596794128418
1782816053180119300,8.419119384765626,0.24585358798503876,-0.23334822058677673,-0.7909014225006104
1782816053200202200,8.4392021484375,0.34222546219825745,-0.5479764938354492,-0.6498765349388123
1782816053220284200,8.4592841796875,0.4937115013599396,-0.24301154911518097,-0.3169887661933899
1782816053240366300,8.479366455078125,0.5110198259353638,0.14382287859916687,0.19220319390296936
1782816053260449300,8.49944921875,0.45771193504333496,0.23709261417388916,0.690915048122406
1782816053280531200,8.51953125,0.3493845760822296,-0.08840223401784897,0.8538157939910889
1782816053300613000,8.539613037109374,0.18892386555671692,-0.45397430658340454,0.5892385244369507
1782816053320696300,8.5596962890625,0.10785560309886932,-0.5343356728553772,0.21848063170909882
1782816053340778200,8.5797783203125,0.021950149908661842,-0.2903359830379486,-0.12547750771045685
1782816053360861200,8.599861083984376,-0.24998581409454346,-0.18978723883628845,-0.5387493371963501
1782816053380943400,8.619943359375,-0.5254571437835693,-0.08971511572599411,-0.711758553981781
1782816053401025300,8.640025390625,-0.690901517868042,-0.07064694166183472,-0.5479620695114136
1782816053421108200,8.660108154296875,-0.756921112537384,-0.34139037132263184,-0.11734236776828766
1782816053441190100,8.680190185546875,-0.7412840127944946,-0.3819132149219513,0.4536510705947876
1782816053461272300,8.700272216796876,-1.028928518295288,0.5806365609169006,1.2375997304916382
1782816053481355300,8.720355224609374,-1.028710961341858,1.4228161573410034,1.970805048942566
1782816053501437200,8.740437255859375,-0.46188274025917053,1.1912002563476562,1.8286247253417969
1782816053521520000,8.76052001953125,-0.20790179073810577,0.23995666205883026,1.9369808435440063
1782816053541602000,8.78060205078125,0.0934777706861496,-1.1122080087661743,0.42084336280822754
1782816053561684200,8.800684326171876,0.2938994765281677,0.5400369167327881,-0.2772901654243469
1782816053581767400,8.820767333984374,0.4556135833263397,1.4013586044311523,1.0514863729476929
1782816053601849300,8.840849365234375,0.41532623767852783,0.8431815505027771,1.8933812379837036
1782816053621931300,8.86093115234375,0.28570669889450073,-0.7903765439987183,0.8242524266242981
1782816053642014200,8.88101416015625,0.5134438276290894,-0.4435690939426422,-0.3974176049232483
1782816053662096400,8.901096435546876,0.9471418857574463,1.2402855157852173,-1.3619273900985718
1782816053682179300,8.921179443359375,0.704751193523407,1.60361647605896,-2.2495198249816895
1782816053702261200,8.94126123046875,0.33863288164138794,-0.21237576007843018,-1.9503908157348633
1782816053722343200,8.96134326171875,0.43414780497550964,-2.033351182937622,-0.967979907989502
1782816053742426000,8.981426025390626,0.5471104979515076,-1.5427473783493042,-0.6400127410888672
1782816053762508000,9.001508056640626,0.7071666717529297,0.2934279441833496,-0.6524625420570374
1782816053782591200,9.02159130859375,0.8070540428161621,1.7389252185821533,-0.41802290081977844
1782816053802673400,9.04167333984375,0.8677356839179993,1.119105577468872,-0.02077280543744564
1782816053822755300,9.06175537109375,0.6027123928070068,0.1487831026315689,0.791566014289856
1782816053842838300,9.08183837890625,0.241231769323349,-0.4592314064502716,1.778044581413269
1782816053862920200,9.101920166015624,0.20198385417461395,0.32386156916618347,2.5408356189727783
1782816053883002400,9.12200244140625,0.16940928995609283,0.6639101505279541,2.488798141479492
1782816053903085300,9.142085205078125,0.2837137281894684,0.6821545958518982,2.0352842807769775
1782816053923167200,9.162167236328125,0.507744312286377,0.9814978837966919,1.3796199560165405
1782816053943250200,9.182250244140626,0.5956641435623169,1.135162115097046,0.7501552104949951
1782816053963332000,9.20233203125,0.43950313329696655,0.7568160891532898,0.550611138343811
1782816053983414300,9.222414306640625,0.12469344586133957,0.35163241624832153,0.5754371881484985
1782816054003497200,9.242497314453125,0.15145844221115112,0.9139641523361206,0.7275556325912476
1782816054023579400,9.262579345703125,0.308258056640625,1.2761240005493164,0.7192450761795044
1782816054043661600,9.28266162109375,0.3903278112411499,0.45248672366142273,0.7233775854110718
1782816054063743500,9.302743408203124,0.2579480707645416,1.1912317276000977,0.9237743616104126
1782816054084452600,9.32345263671875,-0.14443232119083405,0.10299904644489288,0.46498697996139526
1782816054104535600,9.34353564453125,-0.539959728717804,-1.2532708644866943,-0.07974688708782196
1782816054124617500,9.363617431640625,-0.5621517300605774,-2.3561995029449463,0.09487003087997437
1782816054144699600,9.38369970703125,-0.6862390637397766,-1.5411773920059204,0.8436133861541748
1782816054164782800,9.403782958984374,-0.9152215719223022,-0.7047983407974243,0.7447938919067383
1782816054184864800,9.42386474609375,-0.9830599427223206,-0.1799597293138504,0.25373995304107666
1782816054204946700,9.44394677734375,-0.7191445827484131,-0.44977280497550964,-0.8270082473754883
1782816054225029600,9.464029541015625,-0.16962940990924835,-0.7867382168769836,-2.151982069015503
1782816054245111800,9.48411181640625,0.10103454440832138,-0.977557361125946,-2.279599905014038
1782816054265194800,9.50419482421875,-0.29035794734954834,-0.9666562676429749,-1.3422050476074219
1782816054285276700,9.524276611328125,-0.8996793627738953,-1.9402847290039062,-0.8652780055999756
1782816054305358600,9.544358642578125,-1.414729118347168,-2.697782516479492,-1.1507827043533325
1782816054325441500,9.564441650390625,-1.2953441143035889,-1.2494961023330688,-1.4752376079559326
1782816054345523700,9.584523681640626,-0.7316794991493225,0.7354455590248108,-1.3343117237091064
1782816054365606700,9.604606689453124,-0.37244629859924316,1.8064196109771729,-0.6802547574043274
1782816054385688600,9.6246884765625,-0.283023864030838,1.7456928491592407,-0.23831020295619965
1782816054405144600,9.64414453125,-0.12156035006046295,1.519568920135498,-0.37580594420433044
1782816054425226800,9.664226806640626,-0.10162890702486038,0.29378828406333923,-0.5060016512870789
1782816054445308700,9.68430859375,0.1008254736661911,-0.5325100421905518,-0.025743193924427032
1782816054465391600,9.7043916015625,0.5059565305709839,0.04422883316874504,0.5854641199111938
1782816054485473500,9.7244736328125,0.7671631574630737,1.2478985786437988,0.8639328479766846
1782816054505556500,9.744556396484375,0.6417742371559143,2.1737191677093506,0.6007739901542664
1782816054525638700,9.764638671875,0.6570826768875122,1.9753667116165161,0.14631034433841705
1782816054545720600,9.784720458984374,0.5358323454856873,1.4614437818527222,0.1750853806734085
1782816054565803800,9.8048037109375,0.4178614318370819,2.0246942043304443,0.5152471661567688
1782816054585885700,9.8248857421875,0.41887563467025757,1.4475276470184326,0.489408940076828
1782816054605968600,9.84496875,0.3524872362613678,0.6021066904067993,0.546262264251709
1782816054626050800,9.86505078125,0.12374372035264969,0.3258788287639618,0.6392415165901184
1782816054646133800,9.8851337890625,-0.16406305134296417,-0.6444649696350098,0.3056102693080902
1782816054666215700,9.905215576171875,0.11830131709575653,-1.0974791049957275,0.21993054449558258
1782816054686297600,9.925297607421875,0.4268196225166321,-0.7468224167823792,0.2725685238838196
1782816054706380500,9.945380615234376,0.08484141528606415,-0.7538588047027588,0.034868523478507996
1782816054726462700,9.965462646484376,-0.49911847710609436,-0.39772775769233704,-0.2401340901851654
1782816054746544600,9.985544677734374,-0.7221800684928894,-0.0418897308409214,-0.7612577676773071
1782816054766627600,10.005627685546875,-0.4487552344799042,0.08550990372896194,-1.4853475093841553
1782816054786709500,10.02570947265625,0.10231079906225204,-0.5161325931549072,-1.684436559677124
1782816054806792700,10.045792724609376,0.47178032994270325,-0.694591760635376,-0.9335322380065918
1782816054826874600,10.06587451171875,0.40521788597106934,-0.6212136149406433,-0.012321030721068382
1782816054846956800,10.085956787109374,0.1299196183681488,-0.3812406659126282,0.5200045108795166
1782816054867039700,10.106039794921875,-0.19017520546913147,0.43771612644195557,0.21670660376548767
1782816054887121700,10.12612158203125,-0.05295436456799507,1.3123078346252441,-0.5851908326148987
1782816054907204600,10.14620458984375,0.6181135177612305,1.5037943124771118,-0.7836771011352539
1782816054927286500,10.16628662109375,1.0727274417877197,1.1614431142807007,-0.18366864323616028
1782816054947368700,10.18636865234375,0.9590499401092529,0.7104800939559937,0.6180377006530762
1782816054967451600,10.20645166015625,0.7018935680389404,0.5643811225891113,0.9957266449928284
