time,seconds_elapsed,z,y,x
1782816348481282300,0.0692822265625,-0.17792250216007233,-0.0118394885212183,0.5353594422340393
1782816348501364200,0.0893642578125,-0.38370978832244873,-0.0651915892958641,0.773572564125061
1782816348521446100,0.109446044921875,-0.879642128944397,0.10512778162956238,1.0937139987945557
1782816348541527300,0.12952734375,-1.2366552352905273,-0.3783046305179596,1.2504215240478516
1782816348561609200,0.149609130859375,-1.3154209852218628,-1.5378590822219849,1.1281712055206299
1782816348581691400,0.16969140625,-1.2147705554962158,-2.3636772632598877,0.5832409262657166
1782816348601773300,0.189773193359375,-1.2790559530258179,-1.7974848747253418,0.15219153463840485
1782816348621855200,0.209855224609375,-0.728108823299408,0.524794340133667,-0.08970478177070618
1782816348641937200,0.229937255859375,0.16744065284729004,1.3330081701278687,-0.9308754801750183
1782816348662019300,0.250019287109375,0.025053175166249275,-0.11202293634414673,-2.1421005725860596
1782816348682101200,0.270101318359375,0.45575523376464844,-0.18726739287376404,-2.7410929203033447
1782816348702183200,0.29018310546875,0.8884275555610657,-0.650394856929779,-2.8026838302612305
1782816348722265300,0.310265380859375,1.0759778022766113,-0.192402645945549,-1.9620243310928345
1782816348742347300,0.33034716796875,1.155687928199768,-0.021056905388832092,-0.8810490965843201
1782816348762428200,0.35042822265625,0.9629944562911987,0.013837283477187157,-0.27786579728126526
1782816348782510300,0.37051025390625,0.7166635990142822,0.30228397250175476,0.1963057667016983
1782816348802592300,0.39059228515625,0.5161430835723877,0.5971030592918396,0.6340352296829224
1782816348822674200,0.410674072265625,0.3133224546909332,1.0392990112304688,1.1286543607711792
1782816348842756400,0.43075634765625,0.12902319431304932,0.4905400574207306,1.4109013080596924
1782816348862838300,0.45083837890625,-0.41794896125793457,-0.8209297060966492,1.1638554334640503
1782816348882920200,0.470920166015625,-0.8897199630737305,-2.1309616565704346,0.4539598226547241
1782816348903002400,0.49100244140625,-1.104831576347351,-2.7596521377563477,-0.5895112156867981
1782816348923084300,0.511084228515625,-1.1502065658569336,-0.9572869539260864,-1.2912797927856445
1782816348943166200,0.531166259765625,-0.9466668367385864,0.8944356441497803,-1.3276348114013672
1782816348963248000,0.551248046875,-0.08194713294506073,0.7992266416549683,-1.6534571647644043
1782816348983330300,0.571330322265625,0.2855977714061737,1.1772133111953735,-1.8898965120315552
1782816349003411200,0.5914111328125,1.083420753479004,0.7871910333633423,-1.7766717672348022
1782816349023493400,0.611493408203125,2.152902841567993,0.5572903752326965,-1.1302648782730103
1782816349043575300,0.6315751953125,2.634185314178467,0.5551753044128418,-0.48339736461639404
1782816349063657200,0.6516572265625,2.384648323059082,-0.6448872089385986,-0.28616514801979065
1782816349083739400,0.671739501953125,1.6513797044754028,-1.4486736059188843,-0.2045159935951233
1782816349103821300,0.6918212890625,0.6107540726661682,-1.3238686323165894,0.012260458432137966
1782816349123903200,0.7119033203125,-0.25021257996559143,-1.5457062721252441,0.2049856185913086
1782816349143985200,0.731985107421875,-0.21205925941467285,-2.0562565326690674,0.09253628551959991
1782816349164067300,0.7520673828125,0.9038310647010803,-0.5821501016616821,-1.0139367580413818
1782816349184149200,0.772149169921875,1.590925693511963,-0.4997607171535492,-1.328203797340393
1782816349204231200,0.792231201171875,1.9558494091033936,-2.086196184158325,-0.9801167845726013
1782816349224312300,0.812312255859375,1.7163302898406982,-3.0825657844543457,0.355132132768631
1782816349244394200,0.832394287109375,0.5271226763725281,-2.502981662750244,1.1034635305404663
1782816349264476400,0.852476318359375,-0.38265106081962585,-0.6637930274009705,0.2088138312101364
1782816349284558300,0.872558349609375,-0.8801799416542053,1.0402498245239258,-0.7571149468421936
1782816349304640300,0.89264013671875,-1.391474723815918,0.5561187267303467,-0.5139802694320679
1782816349324722400,0.912722412109375,-1.7497572898864746,-0.2472975254058838,0.09463624656200409
1782816349344804600,0.9328046875,-1.5358242988586426,-0.6727268099784851,1.4326828718185425
1782816349364886500,0.952886474609375,-0.9668248891830444,-0.6876481175422668,2.579493284225464
1782816349384968400,0.972968505859375,-0.6725860834121704,-0.3662073314189911,2.8398916721343994
1782816349405050600,0.993050537109375,-0.6932561993598938,-0.09518924355506897,2.5197222232818604
1782816349425132500,1.013132568359375,-0.7248817086219788,0.37945470213890076,2.094820022583008
1782816349445214500,1.03321435546875,-0.5324019193649292,1.0094481706619263,1.775083303451538
1782816349465295600,1.053295654296875,-0.31974342465400696,0.8420615792274475,1.3762658834457397
1782816349485377500,1.07337744140625,-0.27717724442481995,0.7222875952720642,0.9892169833183289
1782816349505459500,1.09345947265625,-0.28542014956474304,0.722818911075592,0.8033594489097595
1782816349525541600,1.113541748046875,-0.5819833278656006,0.8955411314964294,0.9211238622665405
1782816349545623600,1.13362353515625,-0.919465184211731,0.23421896994113922,1.1874984502792358
1782816349565705500,1.15370556640625,-1.2951909303665161,-0.9660058617591858,1.2870289087295532
1782816349585787600,1.17378759765625,-1.1560252904891968,-0.8513764142990112,0.8666800260543823
1782816349605869600,1.19386962890625,-0.24230912327766418,-1.101661205291748,0.2898009121417999
1782816349625951500,1.213951416015625,0.12961484491825104,-0.8175382614135742,-0.5284247994422913
1782816349646033400,1.234033447265625,0.5018630623817444,-0.061006054282188416,-1.076629400253296
1782816349666115600,1.254115478515625,0.9199516177177429,-0.05342111736536026,-0.1734350025653839
1782816349686196500,1.274196533203125,0.6833521723747253,-1.5807334184646606,-0.05800006538629532
1782816349706278700,1.294278564453125,0.43794119358062744,-2.5751543045043945,-1.1209847927093506
1782816349726360600,1.314360595703125,-0.11244123429059982,-2.1261842250823975,-2.432985544204712
1782816349746442500,1.3344423828125,0.3467542827129364,-0.20346564054489136,-3.142587900161743
1782816349766524700,1.354524658203125,0.21670493483543396,1.4645609855651855,-3.8213229179382324
1782816349786606600,1.374606689453125,-0.5601299405097961,1.2865338325500488,-4.135159969329834
1782816349806688500,1.3946884765625,-0.7420619130134583,-0.40551239252090454,-3.7735939025878906
1782816349826770400,1.4147705078125,-0.9760159254074097,-1.0228604078292847,-2.8935108184814453
1782816349846852600,1.4348525390625,-0.9024061560630798,-0.6316477656364441,-1.6423105001449585
1782816349866934500,1.4549345703125,-0.5037034749984741,-0.1300070881843567,-0.3998320400714874
1782816349887016400,1.475016357421875,0.020559530705213547,0.25878599286079407,0.29305872321128845
1782816349907097300,1.495097412109375,0.35897403955459595,0.25128498673439026,0.3970779776573181
1782816349927179300,1.51517919921875,0.4478225111961365,0.26795855164527893,0.20944824814796448
1782816349947261400,1.535261474609375,0.3901791572570801,0.309699147939682,0.09950923174619675
1782816349967343600,1.555343505859375,0.22007161378860474,0.8624299764633179,0.001368985278531909
1782816349987425500,1.575425537109375,-0.030195143073797226,1.5002909898757935,-0.08650436252355576
1782816350007507500,1.595507568359375,-0.2883625328540802,2.2072179317474365,-0.2292180061340332
1782816350027589600,1.615589599609375,-0.371584415435791,2.440068006515503,-0.3146049678325653
1782816350047671600,1.635671630859375,-0.5833548903465271,2.4615671634674072,-0.3278421461582184
1782816350067753500,1.65575341796875,-0.597998857498169,2.189619302749634,-0.21783442795276642
1782816350087835600,1.675835693359375,-0.5774797797203064,1.556606411933899,-0.16165024042129517
1782816350107916300,1.695916259765625,-0.33209308981895447,1.4692844152450562,0.33013030886650085
1782816350127998500,1.71599853515625,0.020871490240097046,1.2237744331359863,0.737011730670929
1782816350148080400,1.736080322265625,0.2716998755931854,0.5784942507743835,0.5487698912620544
1782816350168162300,1.756162353515625,0.07745379954576492,-0.3441636860370636,0.24188226461410522
1782816350188244200,1.776244140625,-0.2760846018791199,-1.3750247955322266,0.0062101855874061584
1782816350208326400,1.796326416015625,-0.8831634521484375,-2.498981237411499,-0.03906451538205147
1782816350228408300,1.816408203125,-1.5229153633117676,-2.626255512237549,-0.05259321630001068
1782816350248490200,1.836490234375,-1.2721425294876099,-1.2841074466705322,-0.091886505484581
1782816350268572700,1.85657275390625,-0.3224409818649292,0.24812035262584686,0.02920183725655079
1782816350288654600,1.876654541015625,0.6886133551597595,1.6517860889434814,0.11260724812746048
1782816350308736500,1.896736572265625,1.1548134088516235,2.0601229667663574,0.17206823825836182
1782816350328817200,1.916817138671875,0.9129764437675476,1.280357837677002,1.1465773582458496
1782816350348899000,1.936899169921875,0.887799859046936,-0.6373947858810425,2.9991979598999023
1782816350368981200,1.956981201171875,0.633025050163269,-1.5643805265426636,3.8814456462860107
1782816350389063200,1.977063232421875,0.43984997272491455,-0.9232765436172485,3.7272253036499023
1782816350409145000,1.99714501953125,0.4616415202617645,-0.031183037906885147,2.775869131088257
1782816350429227000,2.01722705078125,0.41011515259742737,0.6325604915618896,1.4556201696395874
1782816350449309200,2.03730908203125,0.3668905198574066,1.127945065498352,0.2745454013347626
1782816350469391000,2.05739111328125,0.2517586946487427,1.3279370069503784,-0.5460896492004395
1782816350489473000,2.07747314453125,0.1516083925962448,1.236283540725708,-1.0015701055526733
1782816350509555200,2.09755517578125,0.03367331996560097,1.424268126487732,-1.402941107749939
1782816350529637000,2.11763720703125,0.015986870974302292,1.744320034980774,-2.115936756134033
1782816350549718000,2.137718017578125,0.5997803211212158,2.504784345626831,-1.7607953548431396
1782816350569800200,2.15780029296875,0.4731036126613617,0.7334189414978027,-0.4884845018386841
1782816350589882000,2.177882080078125,0.7926689982414246,-0.8507722020149231,1.3459337949752808
1782816350609964000,2.197964111328125,1.570664882659912,-2.893296957015991,2.229682445526123
1782816350630046200,2.218046142578125,2.1062467098236084,-4.4668731689453125,2.3366811275482178
1782816350650128100,2.238128173828125,2.3104727268218994,-6.010308742523193,2.2035346031188965
1782816350670210000,2.2582099609375,1.5782006978988647,-6.707455635070801,1.0855941772460938
1782816350690292200,2.278292236328125,0.05828075110912323,-5.497532367706299,-1.2488600015640259
1782816350710374100,2.2983740234375,-0.8825428485870361,-3.0059902667999268,-3.9091672897338867
1782816350730456000,2.3184560546875,-0.8589891195297241,-0.7244362831115723,-5.8370585441589355
1782816350750538000,2.3385380859375,-0.8332967758178711,1.2067034244537354,-6.2584757804870605
1782816350770619100,2.358619140625,-1.3331139087677002,2.3834500312805176,-4.908251762390137
1782816350790701000,2.378701171875,-1.6935056447982788,2.926201820373535,-2.2256271839141846
1782816350810783200,2.398783203125,-1.3261409997940063,2.865724563598633,0.04136919230222702
1782816350830865200,2.418865234375,-0.5119265913963318,2.656339406967163,1.123523235321045
1782816350850947000,2.438947021484375,0.2739100158214569,2.2724812030792236,1.443476915359497
1782816350871029200,2.459029296875,0.7447612285614014,1.5719395875930786,1.550895094871521
1782816350891111200,2.479111083984375,1.0062904357910156,0.7815955281257629,1.762771487236023
1782816350911193000,2.499193115234375,1.0594441890716553,0.06174091249704361,1.999967098236084
1782816350931275000,2.51927490234375,0.9414591193199158,-0.26451200246810913,2.093255043029785
1782816350951357200,2.539357177734375,0.6747545599937439,-0.271592915058136,1.8457610607147217
1782816350971439000,2.559439208984375,0.4144536554813385,0.38741588592529297,1.4039380550384521
1782816350991520300,2.579520263671875,0.27152663469314575,1.2233248949050903,1.043515920639038
1782816351011602200,2.599602294921875,0.08668586611747742,1.7462952136993408,0.9710893630981445
1782816351031684000,2.61968408203125,0.1764921247959137,2.304600477218628,1.194275975227356
1782816351051766300,2.639766357421875,0.7750501036643982,2.120832681655884,1.24532151222229
1782816351071848200,2.65984814453125,1.3085925579071045,0.7942344546318054,0.8888376951217651
1782816351091930000,2.67993017578125,1.8500853776931763,-0.2131083905696869,1.0088841915130615
1782816351112012000,2.700011962890625,1.6118206977844238,-1.7171822786331177,0.7444043159484863
1782816351132094200,2.72009423828125,1.1667568683624268,-1.8042831420898438,0.22828282415866852
1782816351152176000,2.740176025390625,0.48465320467948914,-1.6482539176940918,-1.043135643005371
1782816351172258000,2.760258056640625,-0.5496810674667358,-1.9445090293884277,-2.8258309364318848
1782816351192339200,2.780339111328125,-1.4190789461135864,-1.5772939920425415,-4.185684680938721
1782816351212421000,2.800421142578125,-2.2104034423828125,-0.5905503630638123,-4.5983476638793945
1782816351232503300,2.82050341796875,-2.6742756366729736,0.6897064447402954,-4.036093711853027
1782816351252585200,2.840585205078125,-2.4789958000183105,1.8014615774154663,-3.029409170150757
1782816351272667100,2.860667236328125,-1.9535012245178223,2.3989205360412598,-1.9730451107025146
1782816351292749000,2.8807490234375,-0.9818407297134399,2.3061115741729736,-0.959839403629303
1782816351312831200,2.900831298828125,-0.2708287239074707,1.6900713443756104,-0.00947573408484459
1782816351332913200,2.9209130859375,0.2601962387561798,0.6731777191162109,0.8323553204536438
1782816351352995000,2.9409951171875,0.644323468208313,-0.47510430216789246,1.4228472709655762
1782816351373077200,2.9610771484375,0.7967163324356079,-1.1748769283294678,1.800452709197998
1782816351393159200,2.9811591796875,0.7703009843826294,-1.4718165397644043,1.916270136833191
1782816351413240300,3.001240234375,0.6250454187393188,-1.4109951257705688,1.7053290605545044
1782816351433322200,3.021322265625,0.4234039783477783,-1.0122770071029663,1.259877324104309
1782816351453404200,3.041404052734375,0.20031093060970306,-0.25348424911499023,0.7446295022964478
1782816351473486000,3.061486083984375,-0.039380673319101334,0.7850545644760132,0.3562045395374298
1782816351493568300,3.081568359375,-0.4573376476764679,1.8697612285614014,0.23234324157238007
1782816351513650200,3.101650146484375,-0.9572644233703613,2.0557827949523926,0.3589031994342804
1782816351533732000,3.121732177734375,-0.6328596472740173,0.9944335222244263,0.00020304578356444836
1782816351553814300,3.141814208984375,0.73316890001297,0.10646417737007141,-0.8443357944488525
1782816351573896200,3.161896240234375,1.2811557054519653,-1.6911402940750122,-0.9537127017974854
1782816351593978000,3.18197802734375,1.2118326425552368,-2.7063376903533936,0.11321663111448288
1782816351614060300,3.202060302734375,1.0771938562393188,-1.496696949005127,-0.057206131517887115
1782816351634141000,3.222140869140625,0.6661826372146606,0.015530889853835106,-1.023061990737915
1782816351654222800,3.242222900390625,-0.011938643641769886,0.6063288450241089,-1.7875152826309204
1782816351674305000,3.262304931640625,-0.8892241716384888,0.5602637529373169,-2.3961257934570312
1782816351694387000,3.282386962890625,-1.6421308517456055,0.6195849180221558,-2.3274664878845215
1782816351714469000,3.30246923828125,-1.3609074354171753,1.173191785812378,-0.8859661817550659
1782816351734551300,3.32255126953125,-0.6835668683052063,1.1359726190567017,0.6841792464256287
1782816351754633200,3.34263330078125,0.028386836871504784,1.3038787841796875,1.2667313814163208
1782816351774715100,3.362715087890625,0.47546523809432983,1.2611943483352661,1.1828370094299316
1782816351794797000,3.382797119140625,0.6643375158309937,0.9911003112792969,1.0521587133407593
1782816351814879200,3.402879150390625,0.6704326868057251,0.631442666053772,0.8862624764442444
1782816351834961200,3.422961181640625,0.5584313273429871,0.12820571660995483,0.7919290065765381
1782816351855042000,3.4430419921875,0.39415040612220764,-0.35579901933670044,0.6113827228546143
1782816351875124000,3.4631240234375,0.18811140954494476,-0.7125073671340942,0.39980795979499817
1782816351895206000,3.483205810546875,0.01925928331911564,-0.8355047702789307,0.329823762178421
1782816351915288000,3.5032880859375,-0.19279907643795013,-0.723688542842865,0.34762653708457947
1782816351935370000,3.523369873046875,-0.31223055720329285,-0.24298135936260223,0.3697723150253296
1782816351955452000,3.543451904296875,-0.19179460406303406,0.41167187690734863,0.20650583505630493
1782816351975534000,3.5635341796875,-0.015351574867963791,0.781345009803772,0.13728760182857513
1782816351995616000,3.583615966796875,0.0008758881594985723,0.521056592464447,0.17393307387828827
1782816352015698200,3.6036982421875,0.3911971151828766,0.2406732738018036,0.6150788068771362
1782816352035780000,3.623780029296875,0.9493382573127747,0.09132203459739685,1.4863189458847046
1782816352055862300,3.6438623046875,0.9129177927970886,-0.8606052994728088,1.614639401435852
1782816352075943000,3.66394287109375,0.8074261546134949,-1.9124995470046997,1.029596209526062
1782816352096025000,3.684025146484375,0.19606325030326843,-2.60231351852417,0.29341697692871094
1782816352116107000,3.70410693359375,-0.745887815952301,-3.5540149211883545,-1.1219420433044434
1782816352136189000,3.72418896484375,-1.5011025667190552,-3.3991472721099854,-2.5367395877838135
1782816352156271000,3.74427099609375,-1.5774017572402954,-2.1182444095611572,-3.828918695449829
1782816352176353000,3.76435302734375,-1.1957658529281616,-0.3007314205169678,-4.517068862915039
1782816352196435000,3.78443505859375,-1.0735208988189697,1.2292650938034058,-4.131771087646484
1782816352216516900,3.804516845703125,-1.0469480752944946,2.0330252647399902,-3.0446083545684814
1782816352236599000,3.82459912109375,-0.7586085796356201,2.18931245803833,-1.7371983528137207
1782816352256680000,3.844679931640625,-0.1564328819513321,1.8162692785263062,-0.5843744277954102
1782816352276762000,3.86476220703125,0.5469894409179688,1.1682013273239136,0.4189397394657135
1782816352296844000,3.884843994140625,1.1359024047851562,0.4993067979812622,1.314419150352478
1782816352316926000,3.904926025390625,1.4427155256271362,-0.06730605661869049,1.9918731451034546
1782816352337008000,3.925008056640625,1.4399464130401611,-0.5921335220336914,2.281486988067627
1782816352357090300,3.94509033203125,1.261823058128357,-0.9243432283401489,2.176750421524048
1782816352377172200,3.965172119140625,1.0147699117660522,-1.0290607213974,1.8087283372879028
1782816352397254100,3.985254150390625,0.6739309430122375,-0.7183845043182373,1.4587531089782715
1782816352417336300,4.00533642578125,0.34732815623283386,-0.13866020739078522,1.0489763021469116
1782816352437418200,4.025418212890625,0.056681327521800995,0.700560986995697,0.6675786972045898
1782816352457499400,4.04549951171875,-0.3185518980026245,1.5999480485916138,0.4055235981941223
1782816352477581300,4.065581298828125,-0.4121897518634796,2.0020768642425537,0.2133212834596634
1782816352497663200,4.085663330078125,-0.3170214295387268,1.17068350315094,0.2875072956085205
1782816352517745200,4.1057451171875,-0.33700311183929443,0.29051271080970764,0.6464163064956665
1782816352537827300,4.125827392578125,-0.36151447892189026,0.47964105010032654,0.6164392828941345
1782816352557909200,4.1459091796875,-0.230224147439003,0.7069166898727417,0.21224382519721985
1782816352577991200,4.1659912109375,-0.2995191812515259,0.44792595505714417,0.04190335422754288
1782816352598073300,4.1860732421875,-0.6037304401397705,-0.718025267124176,-0.3829783797264099
1782816352618155300,4.2061552734375,-1.197731375694275,-0.877975583076477,-0.9678593873977661
1782816352638236200,4.226236083984375,-1.210594892501831,0.49499550461769104,-1.5161174535751343
1782816352658318000,4.246318115234375,-1.0631434917449951,1.6185007095336914,-2.1791765689849854
1782816352678400300,4.266400146484375,-0.8835862874984741,1.726267695426941,-2.2414679527282715
1782816352698482200,4.286482177734375,-0.4214060306549072,1.1115084886550903,-1.5862096548080444
1782816352718564400,4.306564453125,0.12701545655727386,0.39499741792678833,-0.6072916388511658
1782816352738646300,4.326646240234375,0.6103616952896118,0.09040133655071259,0.10768550634384155
1782816352758728200,4.346728271484375,0.9368531107902527,0.04162171483039856,0.41077283024787903
1782816352778810400,4.366810302734375,1.0693447589874268,0.07826724648475647,0.45440298318862915
1782816352798892300,4.386892333984375,1.1070832014083862,-0.030032556504011154,0.40619757771492004
1782816352818973200,4.40697314453125,1.1164119243621826,-0.28439125418663025,0.4492146968841553
1782816352839055000,4.42705517578125,1.1211048364639282,-0.5544551610946655,0.6291479468345642
1782816352859137000,4.447136962890625,1.0347938537597656,-0.5866610407829285,0.7466607689857483
1782816352879219000,4.467218994140625,0.9361469745635986,-0.372769832611084,0.7443181276321411
1782816352899301000,4.487301025390625,0.866037905216217,0.09293103218078613,0.7096664905548096
1782816352919383000,4.507383056640625,0.9210153818130493,0.7282190322875977,0.76887047290802
1782816352939465000,4.52746484375,0.9932970404624939,1.213930368423462,0.918664813041687
1782816352959547100,4.547547119140625,1.10934579372406,1.464314579963684,1.0901620388031006
1782816352979629300,4.56762939453125,1.118117332458496,0.847435474395752,0.8984456062316895
1782816352999710200,4.587710205078125,0.8991576433181763,-0.8273515701293945,0.8334478139877319
1782816353019792100,4.607792236328125,0.8663902878761292,-1.8733437061309814,1.827029824256897
1782816353039874000,4.6278740234375,0.5178108215332031,-2.708643913269043,2.2296323776245117
1782816353059956000,4.6479560546875,-0.09088078886270523,-2.3395814895629883,1.7247388362884521
1782816353080038100,4.6680380859375,-0.9379828572273254,-1.5994619131088257,0.3680371046066284
1782816353100120000,4.6881201171875,-1.6046462059020996,-1.1305888891220093,-1.1798095703125
1782816353120202000,4.708201904296875,-2.2627007961273193,-1.058517575263977,-2.4118640422821045
1782816353140284200,4.7282841796875,-2.634807825088501,-0.42512381076812744,-2.817688465118408
1782816353160365000,4.748364990234375,-2.7549350261688232,0.6328747868537903,-2.2955360412597656
1782816353180447000,4.768447021484375,-2.0424108505249023,1.4678101539611816,-1.577926516532898
1782816353200529200,4.788529052734375,-1.1622053384780884,1.6258348226547241,-1.128420114517212
1782816353220611000,4.808611083984375,-0.6169618964195251,1.1776622533798218,-0.68729168176651
1782816353240693000,4.82869287109375,-0.3955978453159332,0.7892535924911499,-0.29158684611320496
1782816353260775200,4.848775146484375,-0.16567328572273254,0.6580249667167664,0.031172094866633415
1782816353280857000,4.868857177734375,0.16937999427318573,0.48101237416267395,0.24483591318130493
1782816353300939000,4.88893896484375,0.5089357495307922,0.2628368139266968,0.45202016830444336
1782816353321021200,4.909021240234375,0.6886727809906006,-0.2248307317495346,0.533586323261261
1782816353341102600,4.9291025390625,0.7312672734260559,-0.7588474154472351,0.5565879344940186
1782816353361183700,4.949183837890625,0.6327943205833435,-1.1409615278244019,0.4896918535232544
1782816353381265700,4.969265625,0.4350998103618622,-1.2464320659637451,0.40846580266952515
1782816353401347600,4.98934765625,0.29282861948013306,-0.7836122512817383,0.39316102862358093
1782816353421429800,5.0094296875,0.36684226989746094,0.17109590768814087,0.5619521141052246
1782816353441511700,5.02951171875,0.6000157594680786,1.4083456993103027,1.0784038305282593
1782816353461593600,5.049593505859375,0.5344370007514954,1.8683326244354248,1.8246638774871826
1782816353481675500,5.069675537109375,0.1245947778224945,0.7104372978210449,1.7987138032913208
1782816353501757700,5.0897578125,0.3677334189414978,0.28738662600517273,1.0871325731277466
1782816353521839600,5.109839599609375,0.6718573570251465,-0.02420588582754135,0.5636642575263977
1782816353541920500,5.12992041015625,0.6553875207901001,-1.5798102617263794,0.7746985554695129
1782816353562002400,5.15000244140625,0.5716936588287354,-2.0776453018188477,0.8004606366157532
1782816353582084400,5.17008447265625,0.034477245062589645,-1.7948812246322632,-0.30406779050827026
1782816353602166500,5.19016650390625,-0.5765418410301208,-0.8893035650253296,-1.4636814594268799
1782816353622248700,5.210248779296875,-0.6839810609817505,0.06425086408853531,-1.8315987586975098
1782816353642330600,5.23033056640625,-0.6950763463973999,0.6531424522399902,-1.7731525897979736
1782816353662412500,5.25041259765625,-0.9430530071258545,1.059565782546997,-1.702972650527954
1782816353682494700,5.27049462890625,-1.0091420412063599,1.3090128898620605,-1.4010916948318481
1782816353702576600,5.29057666015625,-0.39499616622924805,1.5602673292160034,-0.8016467690467834
1782816353722657500,5.310657470703125,0.3519679009914398,1.5620232820510864,-0.1208607405424118
1782816353742739500,5.330739501953125,0.9161527156829834,1.2587475776672363,0.47112199664115906
1782816353762821400,5.3508212890625,1.2129342555999756,0.814275860786438,0.7781669497489929
1782816353782903600,5.370903564453125,1.303049087524414,0.11481482535600662,0.905128538608551
1782816353802985500,5.3909853515625,1.3827871084213257,-0.4982988238334656,0.8994689583778381
1782816353823067400,5.4110673828125,1.3039213418960571,-0.8022124171257019,0.7912427186965942
1782816353843149300,5.4311494140625,1.0615975856781006,-0.8759153485298157,0.6887121796607971
1782816353863231500,5.4512314453125,0.6881669759750366,-0.7269116044044495,0.5856747627258301
1782816353883313400,5.4713134765625,0.2800025939941406,-0.44727110862731934,0.5387465357780457
1782816353903394600,5.49139453125,-0.10671844333410263,-0.10089970380067825,0.5183373093605042
1782816353923476500,5.5114765625,-0.2972048223018646,0.16561256349086761,0.5780050158500671
1782816353943558400,5.531558349609375,-0.6926106214523315,0.4877457022666931,1.237165927886963
1782816353963640600,5.551640625,-0.7851307988166809,1.3547561168670654,1.414212703704834
1782816353983722500,5.571722412109375,-0.9753629565238953,1.760770559310913,0.3904753029346466
1782816354003804400,5.591804443359375,-1.6583203077316284,0.42674073576927185,-0.5987208485603333
1782816354023886300,5.61188623046875,-1.9894174337387085,-0.18901315331459045,-0.8269393444061279
1782816354043968500,5.631968505859375,-2.255164384841919,-0.2513529658317566,-1.6050680875778198
1782816354064050400,5.652050537109375,-2.6622977256774902,-0.2939673662185669,-3.1060733795166016
1782816354084132400,5.67213232421875,-2.8200414180755615,0.039728887379169464,-4.314419269561768
1782816354104214500,5.692214599609375,-2.4912595748901367,0.2733086943626404,-3.9364676475524902
1782816354124296400,5.71229638671875,-1.046460509300232,0.09495026618242264,-2.2309486865997314
1782816354144378400,5.73237841796875,0.11813674122095108,-0.6318598389625549,-0.37635537981987
1782816354164459500,5.75245947265625,0.6125759482383728,-1.041525959968567,0.8977118134498596
1782816354184541400,5.77254150390625,0.7949563264846802,-0.8867400288581848,1.2674684524536133
1782816354204623400,5.792623291015625,0.9515556693077087,-0.6023558974266052,1.0387712717056274
1782816354224705500,5.81270556640625,1.053857684135437,-0.5620478987693787,0.6976410746574402
1782816354244787500,5.832787353515625,0.9015814065933228,-0.6878700852394104,0.5122314095497131
1782816354264869400,5.852869384765625,0.593558669090271,-1.016019582748413,0.4692864418029785
1782816354284951600,5.87295166015625,0.38393762707710266,-1.1806535720825195,0.5173236727714539
1782816354305033500,5.893033447265625,0.2904391288757324,-1.003233790397644,0.5587701201438904
1782816354325116700,5.91311669921875,0.26670292019844055,-0.6530526876449585,0.5580873489379883
1782816354345198600,5.933198486328125,0.13611066341400146,-0.2712068557739258,0.549034595489502
1782816354365280500,5.953280517578125,-0.16649991273880005,-0.2457270324230194,0.40228158235549927
1782816354385361400,5.973361328125,-0.57929527759552,-0.6722249984741211,0.2650965452194214
1782816354405443300,5.993443359375,-1.178244709968567,-1.0962316989898682,0.4865286648273468
1782816354425525500,6.013525390625,-1.235216736793518,-0.13024112582206726,0.7399889230728149
1782816354445607400,6.033607421875,-0.793224573135376,1.4688169956207275,0.33573877811431885
1782816354465689300,6.053689453125,-0.46471118927001953,1.4797528982162476,-0.5473196506500244
1782816354485771500,6.073771484375,-0.5777695775032043,0.6342333555221558,-0.8058715462684631
1782816354505853700,6.093853759765625,-1.0248161554336548,-0.4089907705783844,-0.9740239977836609
1782816354525935600,6.113935546875,-1.32786226272583,-1.0540496110916138,-1.4829533100128174
1782816354546017500,6.134017578125,-1.2429593801498413,-0.8498657941818237,-2.2219953536987305
1782816354566099700,6.154099609375,-0.9262840747833252,-0.029668623581528664,-2.316333293914795
1782816354586180400,6.174180419921875,-0.6410472989082336,0.32955285906791687,-1.6787424087524414
1782816354606262500,6.194262451171875,-0.032093584537506104,0.47197556495666504,-0.572593092918396
1782816354626344400,6.214344482421875,0.5890898704528809,0.4504828453063965,0.39503908157348633
1782816354646426400,6.23442626953125,1.079941749572754,0.38567298650741577,0.9970871210098267
1782816354666508500,6.254508544921875,1.377610206604004,0.41507819294929504,1.2744125127792358
1782816354686590500,6.274590576171875,1.8715791702270508,0.4986041486263275,1.336517333984375
1782816354706672400,6.29467236328125,2.2502007484436035,0.30198442935943604,1.3584091663360596
1782816354726754300,6.31475439453125,2.12673282623291,-0.19999919831752777,1.315379023551941
1782816354746836500,6.33483642578125,1.776255488395691,-0.655817985534668,1.0167649984359741
1782816354766918400,6.35491845703125,1.5331608057022095,-0.9056665897369385,0.7126062512397766
1782816354787000300,6.375000244140625,1.2930803298950195,-0.8939912915229797,0.7522653341293335
1782816354807081500,6.39508154296875,1.2019234895706177,-0.5411636829376221,0.9470816254615784
1782816354827163400,6.415163330078125,1.0535091161727905,-0.006865173578262329,1.0698440074920654
1782816354847245600,6.43524560546875,0.9126805067062378,0.3972596526145935,0.9594686627388
1782816354867327500,6.455327392578125,0.8610819578170776,0.2048971801996231,0.4863799810409546
1782816354887409400,6.475409423828125,1.0629297494888306,0.39520835876464844,-0.190422922372818
1782816354907491300,6.4954912109375,1.8316365480422974,1.6107630729675293,-0.5849161148071289
1782816354927573500,6.515573486328125,2.0298328399658203,1.9097776412963867,-0.481984943151474
1782816354947655400,6.535655517578125,1.338313341140747,0.905823826789856,0.07521060109138489
1782816354967737300,6.5557373046875,0.6855078935623169,-0.4727073609828949,0.7701467275619507
1782816354987819500,6.575819580078125,0.23513081669807434,-1.490330696105957,0.9801969528198242
1782816355007901400,6.5959013671875,-0.30871930718421936,-2.0287792682647705,0.3862930238246918
1782816355027982600,6.615982666015625,-0.7017160058021545,-1.3190209865570068,-0.07579601556062698
1782816355048064500,6.636064453125,-0.7711380124092102,-0.4101048707962036,-0.19531340897083282
1782816355068146400,6.656146484375,-0.9436067938804626,0.33188948035240173,-0.2515166401863098
1782816355088228400,6.676228271484375,-1.5033307075500488,0.9210551977157593,-0.46464842557907104
1782816355108310500,6.696310546875,-2.076639413833618,1.326307773590088,-0.5178946256637573
1782816355128392400,6.716392333984375,-2.025484800338745,1.5282399654388428,-0.23725420236587524
1782816355148474400,6.736474365234375,-1.5357952117919922,1.3565125465393066,0.14658933877944946
1782816355168556500,6.756556640625,-1.0370848178863525,0.9722121953964233,0.542010486125946
1782816355188638500,6.776638427734375,-0.623979389667511,0.6836541891098022,0.7804388403892517
1782816355208720400,6.796720458984375,-0.35025253891944885,0.20104336738586426,0.8783912658691406
1782816355228802600,6.816802490234375,-0.1506432443857193,-0.25007736682891846,1.0203123092651367
1782816355248883500,6.836883544921875,-0.10905644297599792,-0.42096978425979614,1.1491118669509888
1782816355268965400,6.85696533203125,-0.21498744189739227,-0.5352416634559631,1.2337044477462769
1782816355289047600,6.877047607421875,-0.42877018451690674,-0.4517820477485657,1.2678011655807495
1782816355309129500,6.89712939453125,-0.6641129851341248,-0.4664638638496399,1.2181044816970825
1782816355329211000,6.9172109375,-0.7789943218231201,-0.8003661036491394,1.2061022520065308
1782816355349293000,6.93729296875,-0.7179798483848572,-1.049107313156128,1.1575535535812378
1782816355369375000,6.957375,-0.22130654752254486,-0.8504801988601685,0.9476985335350037
1782816355389457000,6.977456787109375,0.008175461553037167,0.1875409334897995,0.5871927738189697
1782816355409539000,6.9975390625,-0.2426779568195343,0.766693651676178,-0.06877991557121277
1782816355429621000,7.01762109375,-0.5030580163002014,0.21913054585456848,-0.7845494151115417
1782816355449702100,7.0377021484375,-0.6500574350357056,-0.4810289144515991,-1.1336357593536377
1782816355469784000,7.0577841796875,-0.8027178049087524,-1.0033925771713257,-0.874372661113739
1782816355489866000,7.077865966796875,-0.8753800392150879,-0.8700414299964905,-0.708085834980011
1782816355509948000,7.097947998046875,-0.5646250247955322,0.0061172922141849995,-0.7172655463218689
1782816355530030000,7.118030029296875,-0.07574420422315598,0.6179109811782837,-0.7685353755950928
1782816355550112000,7.138112060546875,0.1225837990641594,0.7740004062652588,-0.8550959229469299
1782816355570194000,7.15819384765625,-0.011888389475643635,0.6997438669204712,-1.1108956336975098
1782816355590276000,7.178276123046875,-0.2632327675819397,0.5859643816947937,-1.2472054958343506
1782816355610358000,7.19835791015625,-0.11195804923772812,0.8087564706802368,-0.888917863368988
1782816355630440000,7.21843994140625,0.1886758655309677,0.9905608296394348,-0.39713916182518005
1782816355650522000,7.238522216796875,0.5071626305580139,0.9836009740829468,0.033747367560863495
1782816355670602800,7.258602783203125,0.6777083277702332,0.8206508755683899,0.39211922883987427
1782816355690684700,7.2786845703125,0.6879626512527466,0.464212566614151,0.6186069250106812
1782816355710766800,7.298766845703125,0.6276456713676453,0.12342464923858643,0.6834450364112854
1782816355730849000,7.31884912109375,0.5834168791770935,-0.03269936889410019,0.6543943881988525
1782816355750931000,7.338930908203125,0.5413801670074463,0.04644766449928284,0.6319851279258728
1782816355771013000,7.35901318359375,0.5351805090904236,0.23118577897548676,0.6032413244247437
1782816355791095000,7.379094970703125,0.5103186368942261,0.3307083249092102,0.4933890998363495
1782816355811177000,7.399177001953125,0.36833688616752625,0.27229374647140503,0.43019965291023254
1782816355831259100,7.419259033203125,0.3548327088356018,0.15940797328948975,0.40543341636657715
1782816355851341000,7.439341064453125,0.4404842257499695,0.24155789613723755,0.3543555438518524
1782816355871421700,7.459421630859375,0.2654706835746765,0.6196932196617126,0.03535639867186546
1782816355891503900,7.47950390625,0.034609775990247726,0.6063076853752136,-0.029399102553725243
1782816355911585800,7.499585693359375,0.24973371624946594,0.3855733871459961,0.4209124445915222
1782816355931667700,7.519667724609375,0.010696490295231342,-0.5260962247848511,0.45307493209838867
1782816355951750000,7.53975,-0.4026050865650177,-1.1558061838150024,0.33675336837768555
1782816355971831800,7.559831787109375,-0.8550063371658325,-0.9031594395637512,-0.09606373310089111
1782816355991913700,7.579913818359375,-1.0754759311676025,0.4993094801902771,-0.6281196475028992
1782816356011996000,7.599995849609375,-0.8292837738990784,1.7962085008621216,-1.369476079940796
1782816356032078000,7.620078125,-0.5479989051818848,1.774010419845581,-1.8277924060821533
1782816356052160000,7.640159912109375,-0.3613559305667877,0.8097031116485596,-1.1250518560409546
1782816356072241000,7.660240966796875,0.23653845489025116,-0.16571824252605438,0.15886816382408142
1782816356092322800,7.68032275390625,0.7455759048461914,-0.8604536056518555,0.7907665371894836
1782816356112404700,7.70040478515625,0.9864081740379333,-1.1369661092758179,0.5028349161148071
1782816356132487000,7.72048681640625,1.1255241632461548,-0.810060441493988,0.15848228335380554
1782816356152568800,7.74056884765625,1.0898734331130981,-0.4717184603214264,-0.05606331676244736
1782816356172650800,7.760650634765625,0.9687211513519287,-0.3232497572898865,-0.32016387581825256
1782816356192733000,7.78073291015625,0.8737608790397644,-0.3812086284160614,-0.6514473557472229
1782816356212814800,7.80081494140625,0.7961828112602234,-0.4131784737110138,-0.697598934173584
1782816356232896800,7.820896728515625,0.7888771891593933,-0.3280387222766876,-0.45695048570632935
1782816356252978700,7.840978759765625,0.7282758951187134,-0.25863704085350037,-0.19684551656246185
1782816356273060900,7.861060791015625,0.9061174392700195,-0.07742955535650253,0.11758341640233994
1782816356293141800,7.881141845703125,1.30802321434021,0.16535112261772156,0.3599603772163391
1782816356313224000,7.901223876953125,1.574015498161316,-0.1563875824213028,0.3243590295314789
1782816356333306400,7.921306396484375,1.1038330793380737,-1.4080705642700195,-0.3821648061275482
1782816356353388300,7.94138818359375,0.8092941045761108,-1.3760943412780762,-0.49319005012512207
1782816356373470200,7.96147021484375,0.5732942819595337,-1.9511407613754272,-0.99948650598526
1782816356393552400,7.981552490234375,0.596424400806427,-1.6045382022857666,-0.8771239519119263
1782816356413634300,8.00163427734375,0.47092288732528687,-0.7747357487678528,-0.48478347063064575
1782816356433716200,8.02171630859375,0.1719938963651657,-0.20410951972007751,-0.618584156036377
1782816356453798400,8.04179833984375,0.007010142784565687,0.2470971643924713,-1.121293067932129
1782816356473880300,8.06188037109375,-0.20224717259407043,0.6031047105789185,-1.4989889860153198
1782816356493961200,8.081961181640626,-0.4371880292892456,0.9910609722137451,-1.8640248775482178
1782816356514043400,8.10204345703125,-0.05463862046599388,1.47188138961792,-1.7474353313446045
1782816356534125300,8.122125244140625,0.5335593819618225,1.8158276081085205,-1.2204432487487793
1782816356554207200,8.142207275390625,0.5642628073692322,1.5376653671264648,-0.19910168647766113
1782816356574289400,8.162289306640625,0.3632015585899353,1.1731663942337036,0.8037611246109009
1782816356594371300,8.182371337890626,1.0208052396774292,0.7593574523925781,1.8749067783355713
1782816356614453200,8.202453369140626,1.366958737373352,-0.08135636150836945,2.1798741817474365
1782816356634535400,8.222535400390624,1.3908385038375854,-0.6317764520645142,1.9630532264709473
1782816356654617300,8.242617431640625,1.0085270404815674,-0.8700353503227234,1.415347933769226
1782816356674699300,8.26269921875,0.6064944863319397,-0.6604290008544922,0.8315721154212952
1782816356694781200,8.28278125,0.11898946017026901,-0.32767680287361145,0.5435823202133179
1782816356714862300,8.3028623046875,-0.34819385409355164,-0.0254078209400177,0.523754358291626
1782816356734944300,8.3229443359375,-0.6869801878929138,0.10522254556417465,0.6315149068832397
1782816356755026400,8.3430263671875,-0.8862097859382629,0.3115383982658386,0.6941764950752258
1782816356775108400,8.3631083984375,-1.007948398590088,-0.06560397893190384,0.24668307602405548
1782816356795190300,8.383190185546875,-1.3032677173614502,-1.4317656755447388,-0.594429075717926
1782816356815272400,8.4032724609375,-1.7652045488357544,-2.023792266845703,-0.5566218495368958
1782816356835354400,8.423354248046875,-1.8532133102416992,-1.169411063194275,-0.24128882586956024
1782816356855436300,8.443436279296876,-1.823043704032898,-1.1079044342041016,-0.46722298860549927
1782816356875518200,8.463518310546876,-1.5876930952072144,-2.2595646381378174,-0.6771867871284485
1782816356895600400,8.483600341796874,-1.5596867799758911,-2.683614492416382,-0.37578120827674866
1782816356915681300,8.503681396484374,-1.0599596500396729,-2.1847681999206543,-0.4341430068016052
1782816356935763500,8.523763427734375,0.10423225164413452,-1.1592144966125488,-1.4652920961380005
1782816356955845400,8.543845458984375,0.8342509865760803,0.936373770236969,-1.869975209236145
1782816356975927300,8.56392724609375,1.0935603380203247,1.2680639028549194,-2.3209171295166016
1782816356996009500,8.584009521484376,0.9902655482292175,1.9821261167526245,-2.4611921310424805
1782816357016091400,8.60409130859375,0.39609333872795105,2.494845151901245,-2.403541088104248
1782816357036173300,8.62417333984375,-0.4550841152667999,1.9919602870941162,-2.133211612701416
1782816357056255200,8.644255126953125,-0.7603467106819153,1.3170883655548096,-1.526132345199585
1782816357076337400,8.66433740234375,-0.6781376004219055,1.2473406791687012,-0.7317534685134888
1782816357096419300,8.68441943359375,-0.5526092648506165,1.247200608253479,-0.11958988010883331
1782816357116501200,8.704501220703126,-0.43962883949279785,1.1270434856414795,0.34922218322753906
1782816357136582400,8.72458251953125,-0.33397090435028076,1.0175169706344604,0.8154793977737427
1782816357156664300,8.744664306640624,-0.1799899786710739,0.9709231853485107,1.3559967279434204
1782816357176746500,8.76474658203125,0.03157645836472511,1.018074870109558,2.001828908920288
1782816357196828400,8.784828369140625,0.25227686762809753,1.1065353155136108,2.742536783218384
1782816357216910300,8.804910400390625,0.4490799605846405,1.2818738222122192,3.5532212257385254
1782816357236992300,8.8249921875,0.43709316849708557,0.29847705364227295,3.895216464996338
1782816357257074400,8.845074462890626,-0.20704299211502075,-3.14683198928833,3.1737711429595947
1782816357277156400,8.86515625,-0.6252403259277344,-2.255431890487671,3.415290117263794
1782816357297238300,8.88523828125,-0.7040015459060669,-2.831571578979492,2.6290740966796875
1782816357317320400,8.905320556640625,-0.550578236579895,-3.052814483642578,1.642875075340271
1782816357337402000,8.925402099609375,-0.08131479471921921,-2.3997092247009277,0.616115391254425
1782816357357483300,8.945483154296875,0.47402724623680115,-0.8908053040504456,-0.23591072857379913
1782816357377565200,8.965565185546875,0.544006884098053,0.5686677098274231,-0.8098410367965698
1782816357397647000,8.985647216796876,0.3192194104194641,1.5784655809402466,-1.1222097873687744
1782816357417729000,9.00572900390625,0.08670610934495926,2.118893623352051,-1.3728777170181274
1782816357437811200,9.025811279296875,-0.17961563169956207,2.6236817836761475,-1.4821960926055908
1782816357457893000,9.04589306640625,-0.35408106446266174,2.2952704429626465,-1.1646037101745605
1782816357477975000,9.06597509765625,-0.10445757955312729,1.4138773679733276,-0.6091254949569702
1782816357498057200,9.08605712890625,0.2551887035369873,0.5143263339996338,-0.19461874663829803
1782816357518139100,9.10613916015625,0.5111278295516968,-0.16453222930431366,-0.054892316460609436
1782816357538221000,9.126220947265624,0.7878575325012207,-0.32016220688819885,0.22598525881767273
1782816357558303200,9.14630322265625,0.9541682004928589,-0.3476352095603943,0.5496460199356079
1782816357578384100,9.166384033203125,0.8379747867584229,-0.7044824957847595,0.6364246606826782
1782816357598466000,9.186466064453125,0.5394365787506104,-1.4085065126419067,0.3388911485671997
1782816357618548200,9.20654833984375,0.311875581741333,-1.4567794799804688,-0.20678295195102692
1782816357638630100,9.226630126953125,0.14114870131015778,-1.322598934173584,-0.8050855398178101
1782816357658712000,9.246712158203126,-0.12113694101572037,-1.1449450254440308,-1.1952649354934692
1782816357678794200,9.266794189453124,-0.4242982864379883,-0.08582774549722672,-1.2028878927230835
1782816357698876200,9.286876220703125,-0.5328790545463562,1.0063304901123047,-1.0580508708953857
1782816357718958000,9.3069580078125,-0.4154353439807892,1.3317396640777588,-0.9103294610977173
1782816357739039200,9.327039306640625,-0.2621755599975586,0.9764183759689331,-0.7959781885147095
1782816357759121200,9.34712109375,-0.003140910528600216,0.5212948322296143,-0.7274205684661865
1782816357779203000,9.367203125,0.2784723937511444,0.1485426127910614,-0.6296484470367432
1782816357799285200,9.38728515625,0.3602624833583832,-0.024657096713781357,-0.2631312906742096
1782816357819367200,9.4073671875,0.2111283242702484,-0.13197988271713257,0.11142511665821075
1782816357839449000,9.427448974609375,0.09635137021541595,-0.3161088228225708,0.2943192720413208
1782816357859531300,9.44753125,0.1667548269033432,-0.2855728566646576,0.33047372102737427
1782816357879613200,9.46761328125,0.2838362157344818,-0.2044667750597,0.22747385501861572
1782816357899695000,9.487695068359375,0.3389829695224762,-0.1508270800113678,0.10401460528373718
1782816357919777300,9.50777734375,0.3035702407360077,-0.23885343968868256,0.01624380424618721
1782816357939858200,9.527858154296876,0.21567359566688538,-0.2329188883304596,-0.027091635391116142
1782816357959940000,9.547940185546874,0.11717979609966278,-0.09604467451572418,-0.07247519493103027
1782816357980022300,9.568022216796875,0.0866495668888092,0.1497453898191452,-0.04802514985203743
1782816358000104200,9.588104248046875,0.0852193683385849,0.39402860403060913,0.08364797383546829
1782816358020186000,9.60818603515625,0.10371765494346619,0.45922955870628357,0.21537959575653076
1782816358040268300,9.628268310546876,0.12838540971279144,0.4231821596622467,0.2821781635284424
1782816358060350200,9.64835009765625,0.12901164591312408,0.19765394926071167,0.29743579030036926
1782816358080432000,9.66843212890625,0.13299056887626648,0.008603280410170555,0.3078705072402954
1782816358100514000,9.68851416015625,0.1380205899477005,0.000007368158549070358,0.25895413756370544
1782816358120596200,9.70859619140625,0.16496042907238007,0.028164882212877274,0.11689002811908722
1782816358140678100,9.72867822265625,0.17431624233722687,0.06646529585123062,0.019868839532136917
1782816358160760000,9.748760009765626,0.11003347486257553,0.05328802019357681,0.017906304448843002
1782816358180842200,9.76884228515625,0.05994236841797829,0.00040023447945713997,0.053273722529411316
1782816358200924200,9.788924072265624,0.06711415201425552,0.01899072341620922,0.07721521705389023
1782816358221006000,9.809006103515625,0.09116917103528976,0.0524354949593544,0.05321311205625534
1782816358241088300,9.829088134765625,0.10620857030153275,0.0334002859890461,0.011046749539673328
1782816358261169200,9.849169189453125,0.13794301450252533,0.04173186421394348,0.004226182121783495
1782816358281251000,9.8692509765625,0.15780611336231232,0.10818041861057281,-0.0010789923835545778
1782816358301333200,9.889333251953126,0.14522674679756165,0.1687830239534378,-0.008772339671850204
1782816358321415200,9.909415283203124,0.13403834402561188,0.19801560044288635,0.00816574227064848
1782816358341497300,9.929497314453124,0.14061129093170166,0.19375401735305786,0.0371534526348114
1782816358361579500,9.94957958984375,0.12266535311937332,0.15763314068317413,0.05368390306830406
1782816358381661400,9.969661376953125,0.11774840950965881,0.06948156654834747,0.06389813870191574
1782816358401743400,9.989743408203125,0.1354506015777588,0.02053222805261612,0.0894036665558815
1782816358421825500,10.009825439453126,0.11638692766427994,-0.052773021161556244,0.10292564332485199
1782816358441907500,10.029907470703124,0.08092483133077621,-0.09401926398277283,0.0692267045378685
1782816358461989400,10.0499892578125,0.06269686669111252,-0.06051125377416611,0.009838158264756203
1782816358482071300,10.0700712890625,0.04104038327932358,-0.048675913363695145,-0.014969195239245892
1782816358502152400,10.09015234375,0.014811943285167217,-0.06763181835412979,-0.017011556774377823
1782816358522234400,10.110234375,0.003180611878633499,0.046507928520441055,0.0017485918942838907
1782816358542316500,10.130316650390625,-0.016823364421725273,0.1924978643655777,0.02248438633978367
1782816358562398500,10.1503984375,-0.03750571608543396,0.19905316829681396,0.0059473286382853985
1782816358582480400,10.17048046875,-0.03605804964900017,0.10603015124797821,-0.025529414415359497
1782816358602562300,10.190562255859374,0.021948860958218575,0.048114243894815445,-0.04402948170900345
1782816358622644500,10.21064453125,0.05705397203564644,-0.04743434861302376,-0.03201156109571457
1782816358642726400,10.230726318359375,0.014423543587327003,-0.21680796146392822,-0.05721735954284668
1782816358662808300,10.250808349609375,-0.028558719903230667,-0.25028684735298157,-0.09089048206806183
