time,seconds_elapsed,z,y,x
1782816175397102600,0.0641025390625,-1.952092683672905,-0.05476312519237399,0.5241135982140899
1782816175417183700,0.084183837890625,-4.005441509774327,0.7835092152878642,0.11587722684666514
1782816175437265700,0.104265625,-3.8708816481590267,1.3458327171698212,-0.8779033629924058
1782816175457347600,0.12434765625,-3.028599633646011,1.135917462579906,0.003679419165104627
1782816175477429500,0.144429443359375,-2.300584049782157,0.724420481981337,-0.06898790376931428
1782816175497511700,0.16451171875,-1.18923959518373,0.02670563609600067,-0.5840837905302644
1782816175517593600,0.184593505859375,1.7911054183810948,-0.5197584717445075,-1.8010674249470233
1782816175537675500,0.204675537109375,3.562722292438149,-3.0842768049433826,-1.7362921704366803
1782816175557757700,0.2247578125,3.0335376745700833,-2.9178549473822115,-0.1726505228176713
1782816175577839600,0.244839599609375,4.791061725866794,-1.9420704713523387,-1.632646794784069
1782816175597921500,0.264921630859375,6.357452379932999,-1.0032710333704948,-1.9746669190526007
1782816175618003700,0.285003662109375,6.868428556415438,-0.42769262085705995,-1.518372180828452
1782816175638085600,0.305085693359375,3.0586960812240838,-0.28973960967212914,0.9304188553884625
1782816175658167600,0.32516748046875,-3.8637370371013877,1.388614751058817,2.5602944318935275
1782816175678248700,0.345248779296875,-1.0753788227260113,2.3309124064199627,1.7999723231866955
1782816175698330600,0.36533056640625,-0.11529752726256846,1.7948093874655664,1.0003608450122177
1782816175718412500,0.38541259765625,-2.32066413025856,0.9237946149431169,1.4230400216214358
1782816175738494700,0.40549462890625,-2.366770632395148,0.7437909528836607,1.744436167795211
1782816175758576600,0.42557666015625,-3.2490935653954742,-0.2781763053894043,1.3905037796758115
1782816175778658600,0.445658447265625,-1.0392197141081094,1.069414215233177,-1.7429647800683974
1782816175798740700,0.46574072265625,0.06340542746186256,1.0848787647381424,-2.466307988207042
1782816175818822700,0.48582275390625,0.36909284011125565,1.389080322743952,-1.6882339497104286
1782816175838904600,0.505904541015625,-0.23044950857460497,1.0172671177580952,-1.6722636426404118
1782816175858986500,0.525986572265625,0.14091770620942115,1.2188934135608374,-2.564560564905405
1782816175879068700,0.546068603515625,0.5284411060243844,1.5456386656776069,-3.028801293697953
1782816175899150600,0.566150634765625,1.0743418808937073,-0.22800350366197525,-0.7481267901308835
1782816175919232500,0.586232421875,1.7306757918596267,-0.43929764538966115,-0.22425569543577728
1782816175939313700,0.606313720703125,1.2971014194875954,-0.23074819926023482,-0.34740130585022266
1782816175959395600,0.6263955078125,0.7499900997847319,-0.3220539159627631,0.07056625900194048
1782816175979477800,0.646477783203125,0.4040361431986093,-0.33187603913396596,0.23623539849966763
1782816175999559700,0.6665595703125,0.299943316039443,-0.5378953822638839,0.15325846113804728
1782816176019641600,0.6866416015625,0.247432207557559,-0.7272894615463912,0.10653691410934552
1782816176039723500,0.7067236328125,-0.0933627588301897,-0.7008857310064136,0.29772220592387016
1782816176059805700,0.7268056640625,-0.20152502738535402,-0.6550762390550225,0.6730988755449653
1782816176079887600,0.7468876953125,-0.16103110443353652,-0.5639850053533911,1.0119985297054053
1782816176099969500,0.766969482421875,-0.06802081230282783,-0.6267534500859677,0.9674339963138103
1782816176120051700,0.7870517578125,-0.7717688008725643,-0.3640105684109032,0.8131674906443804
1782816176140133600,0.807133544921875,-1.2470505636394023,-0.2629841430850327,0.8161009137477725
1782816176160215600,0.827215576171875,-0.5988011749297381,-0.42810105552747846,0.7976911776363849
1782816176180297700,0.847297607421875,0.8822387618482113,-0.7757916266478597,0.6835960119009018
1782816176200379600,0.867379638671875,2.1511124502390624,-1.0800440380580723,0.5731100496385246
1782816176220460500,0.88746044921875,2.5949364139467477,-1.0958680685251951,0.46502365933116524
1782816176240542700,0.907542724609375,1.878680241459608,-0.5932930790327489,0.4174072275556624
1782816176260624600,0.927624755859375,1.2494874353975056,-0.20482889123633502,0.19457433146461844
1782816176280706600,0.94770654296875,0.2522545131474733,0.22140607815831898,-0.10190700755268335
1782816176300788700,0.967788818359375,-0.8166741105258465,0.4423006996631622,-0.324724559944123
1782816176320870700,0.98787060546875,-0.8068418678194283,0.5720573987804353,-0.6169960261814296
1782816176340952600,1.00795263671875,0.12371522699594496,0.379365008604899,-0.5615308536669239
1782816176361034800,1.02803466796875,-0.7052940489679574,0.3959745634265244,-0.15900321533512324
1782816176381116700,1.04811669921875,-4.135798074480891,0.6858953748844564,0.7775143587872385
1782816176401198600,1.068198486328125,-6.234981015518307,0.1297690106095746,-0.03192116052089259
1782816176421280500,1.088280517578125,-8.305565638580918,-0.48200431248750536,-2.4360788541600105
1782816176441362700,1.10836279296875,-11.809767937511205,0.5258994587175547,-1.6886266022898255
1782816176461444600,1.128444580078125,-12.985822472429275,2.2213062226668,-1.0263040453683585
1782816176481525800,1.14852587890625,-11.06866081688404,1.8963852633677423,-1.1053080970436333
1782816176501607700,1.168607666015625,-8.152943466052413,0.49416872446853666,-2.105440247866511
1782816176521689600,1.188689697265625,-5.564433870282769,-0.6304502587772906,-3.0294612189114094
1782816176541771800,1.208771728515625,-2.0779922689706085,-0.20464001760073006,-3.1975925107389687
1782816176561853700,1.228853759765625,-0.432884636542201,1.6868021633416412,-2.03351862873286
1782816176581935600,1.248935546875,-2.003835730391741,3.0683126353532075,0.6378996980004012
1782816176602017500,1.269017578125,1.1926654779791832,2.2893340492323038,2.7864132177874446
1782816176622099700,1.289099609375,5.5483086649119855,-0.09040697776451706,2.479881171007454
1782816176642181600,1.309181640625,8.178840708374977,-1.7220633002065122,1.4338558685377238
1782816176662263600,1.329263671875,10.658997481453419,-2.688484466215968,1.5591329380229115
1782816176682345700,1.349345703125,11.808055288374423,-3.119820704272389,1.902064478047937
1782816176702427600,1.369427734375,12.501292404323815,-3.0443273641318083,1.9595944376051424
1782816176722509600,1.389509521484375,12.667005529093741,-2.732026670822501,1.572115315323323
1782816176742590500,1.409590576171875,11.631858178991079,-1.9596248327434063,1.2429004582226275
1782816176762672600,1.429672607421875,8.965597819542884,-0.9768760706588625,0.8715283480677753
1782816176782754600,1.449754638671875,8.208390043464302,-0.06256616362612694,1.0839905106615275
1782816176802836700,1.469836669921875,8.96551131030321,0.39662736477945,1.0166423369232565
1782816176822918700,1.489918701171875,9.072350221300125,0.4714599394563585,0.6421779598414897
1782816176843000600,1.51000048828125,8.337052079212665,1.0321922996893524,0.3562908608790487
1782816176863082800,1.530082763671875,4.838343117001653,1.8327941040754316,0.4395625434035435
1782816176883164700,1.55016455078125,1.933338298842311,2.6021727949410676,1.0966185215663165
1782816176903246600,1.57024658203125,0.2005149735599756,1.762135636745393,0.9764304457832127
1782816176923328500,1.59032861328125,-2.8423581001102924,0.13201324587240815,1.7720757237404583
1782816176943410700,1.61041064453125,-6.596536445862054,0.3937037689503282,1.087362105986476
1782816176963492600,1.63049267578125,-11.812934877109527,-0.07006181661114096,-0.8276766391206533
1782816176983573500,1.650573486328125,-20.86229234535694,-1.4681367621935904,-1.9108400513082742
1782816177003655400,1.670655517578125,-26.951794630360602,-0.14654102598391472,-2.717899361270666
1782816177023737300,1.6907373046875,-23.823085101711747,-0.42837384458687155,-2.6091017174214124
1782816177043819500,1.710819580078125,-17.227352957969902,-3.0452146683603525,-1.8402702851749955
1782816177063901700,1.730901611328125,-11.402729105365276,-4.362807379473746,-0.7028877915438264
1782816177083983600,1.750983642578125,-4.45490201806426,-4.669895306570828,-1.1968958090253174
1782816177104065500,1.7710654296875,-0.027950083199143407,-3.9407548103302714,-2.330645426046848
1782816177124147700,1.791147705078125,2.083122033074498,-2.4300787369623778,-1.7517302703261375
1782816177144229600,1.811229736328125,2.1124223618388176,-1.023709425765276,-0.21086946830851955
1782816177164311800,1.831311767578125,3.503700779148936,-0.5482362320795655,0.8584026898391545
1782816177184394000,1.85139404296875,5.845354505944251,-0.8673972396124153,1.2328329454556106
1782816177204475000,1.871474853515625,8.246444172048568,-1.2140576639674603,1.183351998449862
1782816177224556800,1.891556884765625,9.585428338497877,-2.044605109284073,0.7410009568389505
1782816177244639000,1.911638916015625,10.572097781157494,-2.4723195035815237,0.4334259038120508
1782816177264721000,1.931720947265625,11.298123067986964,-1.8662372317329048,0.8853688035022467
1782816177284802800,1.951802734375,11.07580601246357,-0.7447028070315718,1.3542904566526413
1782816177304885000,1.971885009765625,10.04936219329834,0.35218006455935535,1.9387012871801852
1782816177324967000,1.991966796875,9.181195795944333,0.9124500679776072,1.8500117808580399
1782816177345048800,2.012048828125,8.383858838573097,0.8932135987184942,1.2409826419025658
1782816177365131000,2.032131103515625,8.044079186707735,0.9594259002946317,0.8165060604825616
1782816177385213000,2.052212890625,7.472294028997421,1.3969909497380255,1.0790087036609648
1782816177405294800,2.072294921875,6.424984531936049,1.9562864821009336,1.267915072491765
1782816177425376800,2.092376708984375,3.633911797904968,2.725116160781681,1.0329936061348766
1782816177445458000,2.1124580078125,1.671459632781148,2.825944140926003,-0.27191059605814516
1782816177465539800,2.132539794921875,-2.445046881252527,3.0896909389466045,-1.9634807775191963
1782816177485622000,2.1526220703125,-8.985759733083844,3.44138373144567,0.8886946599893272
1782816177505704000,2.172703857421875,-13.133012098515033,1.4600333891063928,2.240261536896974
1782816177525785900,2.192785888671875,-13.779308599591255,0.40966994783449917,-0.7032948379747569
1782816177545868000,2.212867919921875,-19.128260228806734,-1.3524205711275339,0.638477351757884
1782816177565950000,2.232949951171875,-23.968619361805914,-0.8467617172103374,-0.5243532521888613
1782816177586031900,2.253031982421875,-20.121013375294208,-1.7928731587059794,-0.8846735877797007
1782816177606113800,2.27311376953125,-13.51433547464609,-3.827904091697931,0.5505617524176836
1782816177626196000,2.293196044921875,-11.464148327445983,-3.1320246445462105,0.5273017267309129
1782816177646278000,2.31327783203125,-6.233847043052315,-1.2306789822921156,-1.0863380967009812
1782816177666359800,2.33335986328125,-4.462976603448391,1.5496248127043246,0.1679066892914474
1782816177686441000,2.35344091796875,-4.529849414759874,1.2323862246014177,-0.8271058534953742
1782816177706523000,2.37352294921875,-0.30356676723361015,0.4364193865396082,-0.08504916792525909
1782816177726605000,2.39360498046875,6.012554654401541,-0.12226722014471887,0.4138987810432911
1782816177746687000,2.41368701171875,10.18287868334055,-0.14369853256698698,0.4433943035861477
1782816177766769000,2.433768798828125,12.290687998425959,-0.3819368318542838,-0.283801744055748
1782816177786850800,2.453850830078125,13.939374073863029,-0.5969467792347073,-0.5325401023084297
1782816177806933000,2.47393310546875,14.583846866643428,-0.34795269265528767,-0.2957362562710419
1782816177827015000,2.494014892578125,14.087307211792469,0.3294962313253432,0.2711412921860814
1782816177847096800,2.514096923828125,12.872695274943112,0.6939645534411072,0.05745926894117146
1782816177867179000,2.534178955078125,11.589753898233175,1.0095777322992683,-0.29942645255848765
1782816177887261000,2.554260986328125,11.002357329893112,1.5328051953285933,-0.27823687647022305
1782816177907342000,2.574342041015625,10.37353686427474,2.0132836499556896,-0.006739391257613897
1782816177927424000,2.594424072265625,10.122584081375598,2.363519375514239,0.15984773986786602
1782816177947506000,2.614505859375,9.521894316220283,2.237579896597564,-0.14095774595886468
1782816177967587800,2.634587890625,7.97403943579793,2.177831530338526,-0.8110792131282388
1782816177987670000,2.654669921875,4.314931821838021,2.398004267309606,-1.0167349105775356
1782816178007752000,2.674751953125,-0.661141018986702,1.4502312492772935,-0.839846092602983
1782816178027833900,2.694833740234375,-4.868605568796396,-1.0300654437284915,-1.3324598792470992
1782816178047916000,2.714916015625,-9.350730524829029,-4.91729448864162,-0.23051979733183978
1782816178067998000,2.734998046875,-15.614256082308291,-3.79744085663408,1.611032928869128
1782816178088080000,2.755079833984375,-22.575984269189835,-1.5131991621047258,1.9797031596541403
1782816178108162000,2.775162109375,-24.811029971134662,-2.2970874398380516,1.0143026419293135
1782816178128244000,2.795243896484375,-19.813566551756857,-2.808803036510944,0.8586809953238814
1782816178148324900,2.815324951171875,-16.096699407267568,-1.5025176090925931,1.0502709041502327
1782816178168406800,2.83540673828125,-12.648864307725429,0.14174458548761903,1.0352993988592176
1782816178188488700,2.85548876953125,-4.729603925341367,0.22874891520179808,1.1929086390852928
1782816178208570600,2.875570556640625,3.513560494384169,-0.24331235114857552,0.4237835576545447
1782816178228652800,2.89565283203125,6.1074950378119945,-0.04817181890225038,-0.29806524720788
1782816178248734700,2.915734619140625,4.71695487164855,0.9787734287127852,0.7172584813974797
1782816178268816600,2.935816650390625,6.678276571437716,0.9726104491036385,1.149167550905794
1782816178288898800,2.95589892578125,8.8376851408571,0.6432741575803608,1.3423049814350902
1782816178308980700,2.975980712890625,11.174124932396412,-0.5024114329611882,0.6410168071076273
1782816178329062700,2.996062744140625,12.30254911661148,-1.4074685046106576,0.04770743452720344
1782816178349144600,3.01614453125,10.750220305645465,-1.2848418035037814,-0.31503311394788325
1782816178369225700,3.036225830078125,8.90303410360217,-0.4987018013209104,-0.10110771953430958
1782816178389307600,3.0563076171875,8.096109818196297,0.07702670545401051,0.007147003944125026
1782816178409389800,3.076389892578125,8.058292420977354,0.2698827252260409,0.05893224583687261
1782816178429471700,3.0964716796875,7.725704726442694,0.4473092485401779,-0.1210650778133422
1782816178449553700,3.1165537109375,7.196566870325803,0.7731959110662341,0.05612473240178078
1782816178469635800,3.1366357421875,6.463911351701617,0.9344657926917076,0.26369492170289155
1782816178489717800,3.1567177734375,5.222105702978372,1.0564932127311826,0.12747394020864738
1782816178509799700,3.176799560546875,3.182071116480231,1.014570060693845,-0.18594989364538342
1782816178529881600,3.196881591796875,-0.2663853298306465,0.6119023563042283,-0.5104757526796311
1782816178549963800,3.2169638671875,-3.105311701926589,-0.5272691761681809,-0.4887376758631318
1782816178570045700,3.237045654296875,-7.344955935329199,-2.324499762898683,0.9676670744173228
1782816178590127600,3.257127685546875,-13.048056518024206,-3.139324153904617,0.7483642521485686
1782816178610208800,3.277208740234375,-17.381921588391066,-2.0008280730083583,-1.2157508777514099
1782816178630290700,3.297290771484375,-22.182636108744145,-1.9113732814021407,-2.458958502227068
1782816178650372900,3.317372802734375,-20.11332340531349,-2.195804555533081,-3.340464858147502
1782816178670454800,3.337454833984375,-17.047503755819797,-1.7748836207680403,-4.384576143689453
1782816178690536700,3.35753662109375,-15.488675061440468,-0.2515710609279573,-3.6720109346747396
1782816178710618600,3.37761865234375,-10.750553483122587,1.8340585710532962,-1.2071076986990867
1782816178730700800,3.39770068359375,-5.49945490989387,2.603543206511438,1.1051047564912586
1782816178750782700,3.41778271484375,-0.6280372062861919,2.1247585501901805,1.8658282125405967
1782816178770864600,3.43786474609375,3.205827255120873,1.1485337830469011,1.2604936903193593
1782816178790946800,3.45794677734375,6.642414984461665,0.8993990824203938,0.69763571623452
1782816178811027700,3.47802783203125,10.147856469798088,1.1518113434128463,0.37842334384061393
1782816178831110000,3.49810986328125,12.593538141822814,1.1342240296002477,0.16830750691099092
1782816178851191800,3.51819189453125,13.205237961292266,1.0218910512316972,-0.13362186837913467
1782816178871273700,3.538273681640625,12.808638690096139,1.0248037968732415,-0.599678359623067
1782816178891355600,3.558355712890625,11.864959663379192,1.5692979198150336,-0.5991915990194305
1782816178911437800,3.578437744140625,10.915329034781456,2.1494845567762852,-0.6041677434641868
1782816178931519700,3.598519775390625,10.53016184270382,2.5361273743644355,-0.5551870741307735
1782816178951601700,3.6186015625,10.58575571963191,3.043651072305441,-0.3654427931711077
1782816178971683800,3.638683837890625,9.927690454828738,3.3490240121781825,-0.2472809990512207
1782816178991765800,3.658765869140625,9.06629632808864,3.368198668247461,-0.25460524099208415
1782816179011847700,3.67884765625,8.25253956631422,2.2604845329754055,-0.37845432350076735
1782816179031928800,3.6989287109375,6.87942867385745,0.6711207073397935,-0.2460381959158927
1782816179052010800,3.7190107421875,4.0216871266543865,-0.8698468977868556,-0.05225128850191831
1782816179072092700,3.7390927734375,-1.6090584139257669,-1.970514767809212,1.041403634018451
1782816179092174800,3.7591748046875,-8.387417407837509,-3.5264439413547515,1.7416573507316409
1782816179112256800,3.7792568359375,-14.558551097345351,-3.992720852150023,3.6549148384451864
1782816179132338700,3.799338623046875,-15.512034894239902,-1.9990221926301717,5.3493730694979424
1782816179152420900,3.8194208984375,-15.04147840642929,-2.1254563231959938,6.620314796334505
1782816179172503000,3.8395029296875,-15.349174236291645,-1.5188621563024818,6.017841070371865
1782816179192585000,3.8595849609375,-16.084793865418433,0.5947473694942891,3.8762072270959615
1782816179212667000,3.8796669921875,-17.0142631649971,2.4817101400002834,2.900489386561513
1782816179232749000,3.8997490234375,-12.302413507533073,1.8683407798834144,1.800254208867997
1782816179252830000,3.919829833984375,-3.576552080348134,-0.06985146179609,0.1844936669550836
1782816179272912100,3.939912109375,2.7130419843673703,-2.4971666523292657,-2.1657235977850853
1782816179292994000,3.959994140625,3.7939918852239845,-2.0765636974722144,-2.4649495593354103
1782816179313076000,3.980075927734375,1.6676280917942523,-0.40096258097216486,-1.4558911747351289
1782816179333158100,4.000158203125,0.8304355093747376,0.1827627880418673,-1.376703802382201
1782816179353240000,4.020239990234375,1.9546856227755545,-0.3390279932478443,-1.512465879394114
1782816179373322000,4.040322021484375,4.872749244472384,-0.8642423557780683,-1.484733968990296
1782816179393404000,4.06040380859375,8.44023480578959,-1.1779513815153388,-0.6703142132624983
1782816179413486000,4.080486083984375,11.360297492349147,-0.9046018386952579,0.21479906284241004
1782816179433568000,4.100568115234375,12.893245895540714,-0.4661124409485608,0.5669045825945213
1782816179453649200,4.120649169921875,13.119976091331242,0.38279037994369863,0.2585350364553742
1782816179473731000,4.14073095703125,12.266189516985415,1.348159552682191,0.16012683080388232
1782816179493813000,4.16081298828125,11.152552567535638,2.315194905067235,0.13128261177660897
1782816179513895000,4.18089501953125,10.492975729125737,3.1838451404154298,0.24874498892286792
1782816179533977000,4.20097705078125,10.067058008986711,3.7682059943214057,0.2817204077370465
1782816179554059000,4.22105908203125,9.73301777755618,4.0078158376902335,0.35856231294237073
1782816179574141000,4.241140869140625,8.749393109419941,3.946406844742596,0.7551563234414905
1782816179594223000,4.26122314453125,7.781798369586467,2.8885838447123766,0.9101109575055539
1782816179614305000,4.281304931640625,5.977805412581563,1.2523740967497228,0.25323197987750173
1782816179634387000,4.301386962890625,-1.9699299536585806,-0.39938086473867296,2.3547812116548417
1782816179654469000,4.32146923828125,-10.632427454435824,-1.7000084125258028,3.414037459358573
1782816179674550000,4.341550048828125,-12.743351102149486,-0.17537446788884697,0.07517506797164678
1782816179694632000,4.3616318359375,-18.330911580997704,0.5507280488952994,-2.0515727563396093
1782816179714714000,4.381714111328125,-26.05603587720394,3.184818369361758,-3.956375281049311
1782816179734796000,4.401796142578125,-23.644894772684573,4.236094724227488,-3.741994571483135
1782816179754878000,4.4218779296875,-20.608291865324972,3.1990736892074345,-4.239914282515644
1782816179774960000,4.441960205078125,-15.591619887608289,1.241018005476892,-3.1581048422202467
1782816179795042000,4.4620419921875,-11.19846442388296,0.20908128798380493,-1.7875816281691193
1782816179815124000,4.4821240234375,-6.361800053748488,-0.7109773553013801,0.026287118422985076
1782816179835206100,4.5022060546875,-1.6676783606767653,-1.5655008656196294,1.6286077485263346
1782816179855288000,4.5222880859375,2.130202933201194,-1.9055213405035436,2.2135113310068846
1782816179875370000,4.542369873046875,4.898506201541424,-1.761134643009305,2.2552838955923913
1782816179895452000,4.562451904296875,7.403799169442057,-1.6576504492677748,2.2238564916715027
1782816179915533000,4.582532958984375,9.113335727161168,-1.6300873195596037,2.178539386346936
1782816179935615000,4.602614990234375,9.812163210463524,-1.4184884957969188,1.9695701804354786
1782816179955697200,4.622697265625,10.258661946338414,-0.6517850885551423,1.3515423269882798
1782816179975779000,4.642779052734375,10.851206983482838,0.22487426572553812,0.8264678478527814
1782816179995861000,4.662861083984375,12.536201220619677,1.0275393593169748,0.841852025597915
1782816180015943200,4.682943115234375,13.487999256384372,1.6064534921243785,0.6656343848831952
1782816180036025000,4.703025146484375,12.655544223880767,2.1093869396656753,0.36359460802115495
1782816180056107000,4.72310693359375,11.27657057687044,2.300577035519481,-0.008094605258852243
1782816180076189000,4.74318896484375,10.422647224402427,2.5737103783056137,-0.5751375003455207
1782816180096271000,4.76327099609375,9.877241539573669,2.7644910165756937,-1.1653837955608963
1782816180116353000,4.78335302734375,7.094864153173566,2.861946305416524,-0.8696693492628633
1782816180136434200,4.80343408203125,3.9867701270520683,2.4613179248347876,0.10055069757290185
1782816180156515600,4.823515625,-0.5250841968119144,0.6819080588139593,-0.08875774925276636
1782816180176597500,4.843597412109375,-6.024520402005314,-2.4317231431685387,-1.6683061371862888
1782816180196679700,4.8636796875,-14.05850898733139,-1.809979045677185,-0.5037795429766178
1782816180216761600,4.88376171875,-18.181056535094974,0.32818321249801663,1.9097581012904643
1782816180236843500,4.903843505859375,-17.730190251660346,-1.1541088067002594,2.289911702989787
1782816180256925700,4.92392578125,-19.83405755112171,-1.6524571184083818,0.7484639131307601
1782816180277007600,4.944007568359375,-22.480679144120217,0.915247882002592,0.40693865970708426
1782816180297089500,4.964089599609375,-19.0563289650619,1.7004251766331493,1.1845659773495048
1782816180317171500,4.98417138671875,-11.579343563377856,0.9864669788900762,1.3758610679477452
1782816180337253600,5.004253662109375,-5.522852736616135,0.2444092064745724,1.8876596667289733
1782816180357334500,5.02433447265625,-2.353626488661766,-0.3225599292561412,2.5832947837308047
1782816180377416700,5.044416748046875,-1.6834136899471281,-0.7254486559852957,1.7488392250597475
1782816180397498600,5.06449853515625,-0.0219072959035635,-0.7603342375360429,-0.4271533263485878
1782816180417580500,5.08458056640625,4.2465766630142925,-0.2223242889817804,-1.1517597593560813
1782816180437662700,5.104662841796875,8.855986521223187,0.44641040000431237,-0.8671060746461152
1782816180457744600,5.12474462890625,12.145504451465605,1.256692398340255,0.17945190992821006
1782816180477826600,5.14482666015625,13.73228030643463,1.7720115724630652,1.549306394404918
1782816180497908500,5.164908447265625,13.720631954216957,2.0296203061200675,1.7347062164194882
1782816180517990700,5.18499072265625,13.80484752999544,2.1561842005454004,0.3941857072483748
1782816180538072600,5.205072509765625,12.72890873529911,2.048874457166344,-0.4778591389741748
1782816180558154500,5.225154541015625,11.209241838485001,2.3424713267885147,-0.946636488283053
1782816180578235600,5.245235595703125,10.513891091382503,3.030867578577995,-0.7659611375071108
1782816180598317600,5.265317626953125,10.073535680568218,3.942068231016397,0.1241455081719905
1782816180618399700,5.285399658203125,10.34166288563013,4.204431173463165,0.2738025107519701
1782816180638481700,5.305481689453125,10.576275943624973,3.766077750121057,-0.15705913206264377
1782816180658563600,5.3255634765625,10.594421841168403,3.7289585642993446,-0.40168585374541577
1782816180678645500,5.3456455078125,6.85533234347701,2.6136297162398696,0.405295130283758
1782816180698727700,5.365727783203125,2.2091987285047767,1.5441022498905659,0.9672999946705997
1782816180718808600,5.38580859375,-3.323828780645132,-1.3493869025200604,1.3116092527896166
1782816180738890800,5.405890869140625,-11.33323062172532,-3.3064930304408073,0.7014552014574408
1782816180758972700,5.42597265625,-16.54765921420455,-0.7353221074849366,-0.5927541498504578
1782816180779054600,5.4460546875,-23.221588696348665,-0.9286472426060587,-0.3924446722673252
1782816180799136500,5.466136474609375,-31.49918788511753,2.030793149291724,-3.0974475444227454
1782816180819218700,5.48621875,-31.6883906065464,2.02066849950999,-3.465020627620816
1782816180839300600,5.506300537109375,-22.202904989790916,-0.5690732684031129,-0.8414015053514391
1782816180859382500,5.526382568359375,-13.423593127447367,-2.3332351502791044,0.22141860884632913
1782816180879464700,5.546464599609375,-6.696356418007612,-2.2010383645333347,0.30624077221583573
1782816180899546600,5.566546630859375,-2.006931358319521,-1.6690847203433512,0.3996703126719221
1782816180919628500,5.586628662109375,1.6376836199074982,-0.517430028796941,0.8900877948481589
1782816180939709700,5.606709716796875,5.650690011978149,0.6716556909993291,1.3706002248100935
1782816180959791600,5.62679150390625,8.824156966242194,1.1056935161646455,1.4820863770909607
1782816180979873500,5.64687353515625,11.58942773501873,1.0511522900946437,0.7363449477266519
1782816180999955700,5.666955810546875,14.473503162395954,0.6824927268341183,0.07706124704442918
1782816181020037600,5.68703759765625,15.469985558539628,0.40020756135378033,-0.2731552623569965
1782816181040119600,5.70711962890625,15.608623629379272,0.6238059984572232,-0.41027277256585654
1782816181060201700,5.72720166015625,14.80947231606245,1.0991821615092456,-0.34434155295342206
1782816181080283600,5.74728369140625,12.673642190629243,1.7600421715974808,-0.2755416825694963
1782816181100365600,5.767365478515625,11.006848796093463,2.063804169142246,-0.4022183897195384
1782816181120447700,5.78744775390625,9.971709629297257,2.552206402505934,-0.3816377393098548
1782816181140529700,5.80752978515625,9.355323697838188,2.5460212841302154,-0.5170622914630919
1782816181160611600,5.827611572265625,8.787586354213952,2.3665157808512447,-0.79892671078071
1782816181180693000,5.84769287109375,6.65331456413865,1.8058955757558344,-0.7722184443362057
1782816181200775000,5.86777490234375,2.106208894151449,1.1360475917655974,0.6110070879649371
1782816181220856800,5.88785693359375,-3.5415146692365407,0.510870451085642,1.10475725822784
1782816181240939000,5.90793896484375,-6.248801451078057,-1.6070153637908398,1.6355113904349505
1782816181261021000,5.92802099609375,-8.266634727162122,-3.7568390893936154,1.5656493341796098
1782816181281102800,5.948102783203125,-14.103916985809802,-2.1936485465429723,-0.18022464786637574
1782816181301184800,5.968184814453125,-20.17348941246271,-1.5547668517678974,-0.6121454443451017
1782816181321267000,5.988266845703125,-23.422846597230432,-1.0145120468962936,-3.508217964312434
1782816181341348900,6.008348876953125,-23.862516948390006,0.03677307579778134,-5.043105226612091
1782816181361430800,6.0284306640625,-16.460687033194304,-0.5938377803687006,-3.916342253607511
1782816181381513000,6.048512939453125,-9.001133827826381,-1.3632143523424862,-2.884243185159564
1782816181401593900,6.06859375,-2.8536078083992003,-1.696610732911527,-2.4968553944230076
1782816181421676000,6.088676025390625,-0.03477729887068271,-1.6761014672376215,-1.5654428518220782
1782816181441758000,6.108758056640625,0.7022481054008006,-2.2946815477401015,-2.119238763855398
1782816181461840000,6.12883984375,0.9513619824349879,-2.6955615649953484,-1.2245356572315096
1782816181481921800,6.148921875,2.849064904272556,-2.0046067147642375,-0.8617429401777684
1782816181502004000,6.16900390625,7.030092698055506,-1.0202776246856897,0.2844458323792554
1782816181522086000,6.1890859375,10.829460431098937,-0.4266094287302345,0.9214062585018574
1782816181542167800,6.209167724609375,12.554279313623905,-0.22230795890148727,0.3909984189817682
1782816181562250000,6.22925,13.079946863281727,-0.6400042690642178,-0.0726780635241419
1782816181582332000,6.249331787109375,12.113394325977563,0.04941828443254344,0.1781301232725382
1782816181602413800,6.269413818359375,11.709264074754714,0.4440369854038581,-0.7909101391941309
1782816181622496000,6.28949609375,10.820163025921582,1.239522213961184,-0.003060812342725694
1782816181642577000,6.309576904296875,9.747537301295996,1.900752372536063,0.4708955835718661
1782816181662658800,6.329658935546875,9.463494149699807,2.713641411565244,0.14714834422729908
1782816181682741000,6.349740966796875,9.100963152322173,3.7504683853179213,0.6657588880456984
1782816181702823000,6.369822998046875,7.41246646002233,4.051213665390015,2.480621760241687
1782816181722904800,6.38990478515625,6.638760553607344,4.211216888080537,3.554917756167054
1782816181742987000,6.409987060546875,5.653699715188146,2.2808314476944505,0.9865483004979788
1782816181763069000,6.43006884765625,3.638109834116697,-0.30628808195628227,-1.6880089087828993
1782816181783150800,6.45015087890625,-2.9018139131635428,-0.9400909390971064,-0.6119058634355664
1782816181803233000,6.47023291015625,-14.71939047859907,3.482122276808321,0.5159833736525848
1782816181823315000,6.49031494140625,-25.73758601361513,3.885971080741286,-3.9293668626144527
1782816181843396900,6.51039697265625,-24.592299541926383,2.559942549715936,-4.301785632278025
1782816181863478000,6.53047802734375,-24.88252167441845,4.051440459883213,-3.123189011661708
1782816181883560000,6.550559814453125,-22.598757242012024,3.19038214096874,-2.8538316802829504
1782816181903641900,6.570641845703125,-15.277092165899276,1.226249913803488,-1.0844741294600069
1782816181923724000,6.59072412109375,-6.183705586311221,-1.2294152459666132,0.006976138605957385
1782816181943806000,6.610805908203125,-2.679738849702477,-0.8397954583942889,1.5918233476169406
1782816181963887900,6.630887939453125,-4.026407140913605,0.08958996229320763,3.408878176899254
1782816181983970000,6.650969970703125,-2.812475003021955,-1.189017769126594,2.496985450543463
1782816182004052000,6.671052001953125,1.887184450432658,-4.051620492625236,-0.6259668297529221
1782816182024134000,6.6911337890625,6.797102857348323,-5.419432109630107,-3.5045912982478735
1782816182044215800,6.7112158203125,9.134730397367477,-3.4689386778473854,-1.5047366003163158
1782816182064298000,6.731298095703125,10.199525866758822,-2.624352478045225,0.7034918949168175
1782816182084378600,6.751378662109375,12.026484104287624,-1.2352400065973401,0.4686274194441735
1782816182104461000,6.7714609375,13.061193062973022,-0.8474394703414291,0.8551841661840677
1782816182124543000,6.79154296875,13.381145147818327,-0.20366708091534674,1.3463167012944817
1782816182144625000,6.811625,12.901320480924843,0.49424018226955085,1.8592722150258718
1782816182164707000,6.83170703125,11.80067628403902,1.1708719446484,1.82289405682981
1782816182184789200,6.851789306640625,10.363722741746901,2.2193289312444624,1.1415436318986116
1782816182204871200,6.87187109375,7.936831694909929,2.802473541228473,0.19503290715338661
1782816182224953300,6.891953369140625,6.131078742495179,2.206966147147119,-0.8343837355438619
1782816182245035500,6.912035400390625,5.88431756606698,1.3576679702617227,-1.952915836624056
1782816182265117400,6.932117431640625,4.175727933809161,1.9040251105964183,-2.179425813792646
1782816182285199400,6.952199462890625,-0.7787439005821943,2.249102284348011,-0.5660980519846082
1782816182305280300,6.9722802734375,-2.768607219722867,1.305582247585058,-0.7888632896669209
1782816182325362200,6.992362060546875,-5.872892501211166,0.2185471815958619,-0.3126376701787114
1782816182345444000,7.012444091796875,-9.408124144655465,0.6831099819496274,1.460652105526626
1782816182365526300,7.0325263671875,-12.57924307448864,-1.1712561947256326,3.2270319557130334
1782816182385608200,7.052608154296875,-17.225226467335222,-3.1064982813626525,1.820365122874081
1782816182405690000,7.072690185546875,-21.980711852908133,-1.0896021399982272,-3.3662025259941815
1782816182425772300,7.092772216796875,-21.832869900393483,-0.6469507272012531,-6.040665481120348
1782816182445854200,7.112854248046875,-15.131948366427421,-1.9048472406342625,-5.3749675294816495
1782816182465936100,7.13293603515625,-6.214767664051055,-3.427373326271772,-3.513760400870442
1782816182486018300,7.153018310546875,-0.15158406165242194,-3.4637405246824025,-1.1801368357956408
1782816182506100200,7.173100341796875,2.1319190894693136,-2.0812018786668776,0.8310527644902467
1782816182526181000,7.19318115234375,2.285814350673556,-0.24635602969340978,2.247050027993321
1782816182546263300,7.21326318359375,2.8130180238574742,0.7326224931374192,2.5628362253308294
1782816182566345200,7.23334521484375,4.979518012842536,0.7845512716867029,2.114850319638103
1782816182586427100,7.25342724609375,7.673639023640751,0.8242604740016162,2.193511914551258
1782816182606509300,7.27350927734375,9.783581843623518,0.7475063201449811,2.462369187453389
1782816182626591200,7.29359130859375,11.498165163338184,0.2659256764296442,2.441479251898825
1782816182646673200,7.313673095703125,12.327233476012944,-0.015325579425692558,1.9728242137953638
1782816182666755000,7.333755126953125,12.302210093915463,-0.23014234232157468,1.028948276266828
1782816182686837200,7.353837158203125,12.357314141499996,0.2231593515664339,0.2271263555012643
1782816182706919200,7.373919189453125,12.26045652629137,0.42594957658201454,-0.25343553962558507
1782816182727000300,7.394000244140625,11.93342705040574,0.922297508253157,-0.0726611854545772
1782816182747082200,7.414082275390625,11.266235060817003,0.9015621787384152,0.4840764791190624
1782816182767164200,7.4341640625,9.126700235646963,0.7218574996255338,0.7924827953383327
1782816182787246300,7.454246337890625,3.993018666052818,0.3234296978279948,1.1512426036141812
1782816182807328300,7.474328369140625,-1.4838421347171067,0.7373049518652259,1.0443227363355456
1782816182827410200,7.49441015625,-4.925310621836781,-0.5430830871000886,1.916734077782929
1782816182847492000,7.5144921875,-12.778616476798057,-1.4455267248481511,-0.016531009692698717
1782816182867574300,7.53457421875,-19.318668234372137,2.311191368514299,-4.724348489031195
1782816182887656200,7.55465625,-20.70742677781582,1.0277800362050533,-5.491220165511965
1782816182907738000,7.574738037109375,-16.912030286490918,-0.13425927123352885,-6.54598407023251
1782816182927819300,7.5948193359375,-10.894737497651576,-2.1106524295568465,-6.469589981859922
1782816182947901200,7.614901123046875,-8.718368441081047,-2.4959444170579315,-5.834441482263803
1782816182967983400,7.6349833984375,-11.081892054378987,0.6352315747696906,-3.709405722567439
1782816182988065300,7.655065185546875,-8.850527086773514,1.3203290042094886,-0.016421996360272167
1782816183008147200,7.675147216796875,-2.900527965006232,0.23816636656224727,1.9033964573040603
1782816183028229000,7.69522900390625,-0.07128887418806552,-1.324581547087431,2.215052715229988
1782816183048311300,7.715311279296875,1.5603396834641694,-2.770182798476517,1.9773237171716986
1782816183068393200,7.735393310546875,1.7896867837548256,-1.6348165400385857,-0.08634294319599867
1782816183088475100,7.75547509765625,0.7662620201498269,-1.2460562919050455,-0.622642507635802
1782816183108557300,7.775557373046875,2.497416535437107,-1.113473210255429,0.37754838763698934
1782816183128638200,7.79563818359375,5.208004112389683,-0.1744273232318461,0.11850246078372001
1782816183148720400,7.815720458984375,7.6632947397589675,-0.4203835034200921,0.6938067325308919
1782816183168801300,7.83580126953125,9.120214380759,-0.5530136756144464,0.6283339242104441
1782816183188883200,7.85588330078125,9.169903417557478,-0.7677558389041572,-0.39103601104579866
1782816183208965400,7.87596533203125,8.09690476796627,-0.5638202432457358,-1.4341606967031955
1782816183229047300,7.89604736328125,8.264808680778742,-0.06004062720388174,-1.3527300754681229
1782816183249129200,7.916129150390625,9.82259458810687,0.5594432702705264,-0.35712376803923396
1782816183269211400,7.93621142578125,10.235779083400963,1.435073719894886,0.5692939984817057
1782816183289293300,7.956293212890625,6.0393567366093395,2.088345905202627,0.46931401346884666
1782816183309375200,7.976375244140625,-0.9699749129682779,2.888834020081162,0.16527221260201186
1782816183329456400,7.996456298828125,-3.998440106579661,2.224279831650108,1.0832486062530426
1782816183349538300,8.016538330078125,-2.4192905087053775,-0.8666304199583827,1.6260283995576201
1782816183369620200,8.0366201171875,-0.5898094747006892,-1.6879371587209402,0.829013294551894
1782816183389702400,8.056702392578124,-1.355202895322442,-0.7446867326796054,-1.1254926608078182
1782816183409784300,8.076784423828125,-8.878363188204169,1.037902932421118,-2.5712737988084555
1782816183429866200,8.0968662109375,-15.802254688644409,3.798575121361017,0.014596443167235702
1782816183449948400,8.116948486328125,-10.01981811890602,2.35233177267611,1.9796201575458048
1782816183470030300,8.1370302734375,-1.8725544520556925,-0.23965704351142048,0.7550288976695388
1782816183490112300,8.1571123046875,-0.09146423173248767,-1.225652824693173,0.7004683823771775
1782816183510193200,8.177193115234376,0.04742985969483852,-0.6486131074555218,1.2516498741284012
1782816183530275000,8.197275146484374,0.9255974265813827,-0.3867782805360853,0.9095278238553554
1782816183550357000,8.21735693359375,3.32910993591845,-0.6747355368360877,0.5887896301336586
1782816183570439200,8.237439208984375,5.870067506918311,-0.8056895559791475,0.6802405639931559
1782816183590521000,8.25752099609375,4.603373500654101,-0.5993368892416358,0.4491141060050577
1782816183610603000,8.27760302734375,2.0821172399461267,0.2964844808224589,0.7622526383779943
1782816183630685400,8.297685546875,2.287791788226366,0.523630856198445,1.1169858214862645
1782816183650767400,8.317767333984374,3.4627217030286785,0.2826988973803818,0.8461297759823501
1782816183670848300,8.33784814453125,2.6673475701630114,0.1916591016050428,0.0526609652813524
1782816183690930200,8.35793017578125,-0.09771510882079601,0.9522219602651893,-0.7329007986221462
1782816183711012000,8.37801220703125,-2.231390102046728,1.1447482731588183,-0.808139287218824
1782816183731094000,8.398093994140625,-0.5335001429796219,0.26431393038406964,-0.9443607253707945
1782816183751176200,8.41817626953125,0.9257301130503416,-0.4780095802955329,-1.0735209198996425
1782816183771258000,8.438258056640626,-0.8162292893677949,-0.1953356712259352,-1.076996925447136
1782816183791340000,8.458340087890624,-1.8834218830287455,0.35098435196876526,-1.3784282880872487
1782816183811422200,8.478422119140625,-1.6907278123527765,0.5662943782743066,-1.4955714432165026
1782816183831503000,8.498503173828125,-0.7072112807661295,0.9673984866090118,-1.0479511559657753
1782816183851585000,8.5185849609375,0.3847328923135996,1.1936706364337355,-0.49864539495855564
1782816183871667200,8.538667236328125,1.0480459946423768,0.9374147056251764,0.0674740697068395
1782816183891749000,8.5587490234375,1.7212445311695337,0.6487554385356604,-0.5268520832672715
1782816183911831000,8.5788310546875,1.2026105334103108,-0.2353480942711234,-0.33211795813106
1782816183931913200,8.598913330078124,1.8168220434397457,-0.29142610145434733,-0.05720043990847189
1782816183951995100,8.6189951171875,1.7978356034189462,-0.9604802316531539,-0.43020595538485795
1782816183972077000,8.6390771484375,-0.39042788908481596,-1.3210615562677384,-0.9327697293635457
1782816183992158200,8.659158203125,-3.654173664689064,-0.4608319432623684,-1.0276092096827925
1782816184012240100,8.679240234375,-3.5518805804282425,0.35227117690891024,0.26842089077886194
1782816184032322000,8.699322021484376,-2.13675659262836,0.2698478183094412,1.2509624763861298
1782816184052404200,8.719404296875,-0.14327508299052716,0.05908749119751155,1.3363735455594956
1782816184072486100,8.739486083984374,2.901423452541232,-0.1155650190923363,1.3771043460071086
1782816184092568000,8.759568115234375,5.348759321513771,-0.6731894764378666,0.5036409016909077
1782816184112650200,8.779650146484375,4.960751353052258,-1.2503791235402226,-0.6787323513872922
1782816184132732200,8.799732177734375,2.1684879479318857,-1.6090595829695462,-0.6956934230603278
1782816184152813300,8.819813232421875,-1.6182961978703736,-2.9331065847888587,1.426635415764898
1782816184172896000,8.83989599609375,-3.0479543224573136,-2.7452245905697343,2.243158573512733
1782816184192978000,8.85997802734375,-4.457545226049423,-1.9135180383458732,-1.0354925833437592
1782816184213059800,8.880059814453125,-3.673519001150131,0.6487407524231821,-2.71861949223876
1782816184233142000,8.90014208984375,-1.6548732396394013,2.690594882498681,-1.833571956580132
1782816184253224000,8.920223876953125,-4.787818798422813,2.198782256169617,-0.4297326387846842
1782816184273305900,8.940305908203126,-4.193044394791126,1.4419726856283843,0.7994342219114303
1782816184293387000,8.960386962890626,-3.599989070037007,0.8817921140592545,1.9322677470013498
1782816184313469000,8.980468994140624,-1.3292618138581513,1.3946559309192001,1.9436808291584253
1782816184333550800,9.00055078125,0.36778468012213705,0.8515763509504497,1.2183451320283114
1782816184353633000,9.020633056640625,1.5051777682125567,0.07541790028419346,0.321390885476768
1782816184373715000,9.04071484375,1.9906582689106462,0.28376594209000466,0.6175919462479651
1782816184393796900,9.060796875,1.3753998801767826,0.25921872613690794,0.5403249474983662
1782816184413879000,9.080879150390626,0.6003273615837097,0.12824490631483496,0.048888607135787604
1782816184433960000,9.1009599609375,0.4042518317759037,0.08303023845143616,-0.5899201685335487
1782816184454041900,9.121041748046874,0.796206492036581,0.2127299466844648,-0.40867900056838985
1782816184474124000,9.1411240234375,1.2239490895152092,0.09055442341119051,-0.27929062330685556
1782816184494206000,9.1612060546875,0.7891396223902701,-0.06493227170296013,-0.5810773021906614
1782816184514287900,9.181287841796875,0.418328287923336,0.05287804209813475,-0.4982146023258567
1782816184534370000,9.2013701171875,0.6618091275066137,-0.003115574737265706,-0.22685133795216678
1782816184554452000,9.221451904296876,0.4559563000500202,0.010348156339302658,0.04783800210431218
1782816184574534000,9.241533935546874,0.12639818246960638,0.298712312939763,0.2895581156253815
1782816184594615000,9.261614990234374,0.21729367440342903,0.3081529259800911,0.5957293662689626
1782816184614697000,9.281697021484375,0.13232698799669743,0.1391829913713038,0.25159714521728455
1782816184634779000,9.30177880859375,-0.16274550713598726,0.14863872891552746,-0.10978373227715492
1782816184654861000,9.321861083984375,-0.3526028930813074,0.062384267720580096,-0.1610591614842415
1782816184674943000,9.34194287109375,-0.5745850175619125,0.1236647389177233,-0.25163389703109856
1782816184695025000,9.36202490234375,-0.24127777658104896,0.029158947532251477,-0.16241327950693665
1782816184715107000,9.382107177734374,-0.18537702566087244,0.04256999857351183,-0.04285217651575803
1782816184735188000,9.40218798828125,-0.18237141410410404,0.21849515914767978,0.13633205891959368
1782816184755270000,9.422269775390625,0.4618260688662529,0.034320933405309915,0.17985343993380665
1782816184775352000,9.44235205078125,0.6006055940032005,-0.18063268067799507,0.10693418806493282
1782816184795434000,9.46243408203125,-0.024298574954271315,-0.14031659851111472,-0.16881386726424097
1782816184815516000,9.482515869140625,-0.06904489465355873,-0.12459420178756117,-0.2809376598615199
1782816184835598000,9.50259814453125,0.138017893114686,-0.0445714015237987,-0.04555390975512564
1782816184855680000,9.522679931640624,-0.04862111530601978,0.2512890291161835,0.29096703257523476
1782816184875761200,9.54276123046875,-0.12919628875553607,0.26176526881456375,0.3091979049883783
1782816184895843000,9.562843017578125,-0.07296937462091445,0.010268588297069073,0.05607833597678691
1782816184915925000,9.582925048828125,-0.09049334087371826,-0.14681860081627965,-0.10672869208808988
1782816184936007000,9.6030068359375,-0.43734804569184776,0.08877937656268477,-0.0419506610987708
1782816184956089000,9.623089111328126,-0.23684593161344528,0.22935294550955293,0.1369437245445326
1782816184976171000,9.6431708984375,0.16906477328538894,0.1854340165451169,0.18150650437045843
1782816184996253000,9.6632529296875,0.268922739353776,-0.020118366660177706,-0.14703220703434197
1782816185016334000,9.683333984375,0.23539222567379472,-0.1552886152587831,-0.48398898349869995
1782816185036416000,9.703416015625,0.04152911121845245,0.08228957615196704,-0.2641349753542803
1782816185056498200,9.723498291015625,0.1737368567496538,0.12806421598568557,-0.10172584229949862
1782816185076580000,9.743580078125,0.1693979507625103,0.1628368386812508,-0.1375521752990782
1782816185096662000,9.763662109375,-0.06495616403520107,0.09571998948082328,-0.2938965466884896
1782816185116744000,9.783743896484374,-0.27035774059295653,0.14381415830329058,-0.3176270759638399
1782816185136826000,9.803826171875,-0.20861235529780386,0.23677622737810014,-0.19955803816132248
1782816185156908000,9.823907958984375,0.14638181683421134,0.11589680832996964,-0.14140405582110396
1782816185176988400,9.843988525390625,0.43503567709624763,-0.05233589804545045,-0.145570719647035
1782816185197070300,9.8640703125,0.48185704950392244,-0.1731253007225692,-0.12372561139264143
1782816185217152300,9.88415234375,0.25041151562929154,-0.06883358999043702,-0.0318628727287054
1782816185237234400,9.904234375,0.26095979765057564,-0.08177534301951526,-0.009169577546603977
1782816185257316400,9.92431640625,0.22987433903515336,-0.1481380128517747,-0.0166508823458571
1782816185277398300,9.944398193359374,-0.014181670087575912,-0.17058569924235342,-0.08556328232670202
1782816185297480400,9.96448046875,-0.4681996955513954,0.07968626178577543,0.009802304225880652
1782816185317561300,9.984561279296875,-0.37776480686664576,0.03108662765920162,0.007402275613136589
1782816185337643300,10.004643310546875,-0.060416767039895056,-0.13595336180031298,0.038489113334892314
1782816185357725400,10.024725341796875,0.1554068348109722,-0.2203543771483004,-0.004047088000294752
1782816185377807400,10.044807373046876,0.16161387275755404,-0.20937311053723096,-0.03830725396196358
1782816185397889300,10.06488916015625,0.01291208854317665,0.022959873696416614,0.019181537901214324
1782816185417971500,10.084971435546874,0.033548049336671826,0.03322437034025788,0.02967958300602622
1782816185438053400,10.105053466796875,0.08512450731694698,-0.11884484448060392,-0.2306529221922159
1782816185458135300,10.12513525390625,-0.09385551078319548,-0.03990998558402061,-0.18083530884431673
1782816185478216400,10.145216552734375,-0.08356266482770443,0.19361849204450846,0.0939750820422545
1782816185498298400,10.16529833984375,0.211042212793231,0.09886354820355772,0.1312505361379124
1782816185518380300,10.18538037109375,0.26164719539284703,-0.05413841742277145,0.04165828142291866
1782816185538462500,10.20546240234375,-0.010961538997292518,0.0014082593627274035,-0.0060016081851092164
1782816185558544400,10.22554443359375,-0.1273474460184574,0.1593904976196587,-0.012828077221265994
1782816185578626300,10.245626220703125,-0.0167921448469162,0.06165726862028241,-0.10158998662591912
1782816185598708500,10.26570849609375,0.021740707165002822,-0.04045286028906703,-0.07010530412641819
1782816185618790400,10.285790283203125,-0.01454115104973316,0.015156944860517978,0.06362166402842849
1782816185638871600,10.30587158203125,0.16827625325620174,-0.039701895791292185,0.1342948083377909
1782816185658953500,10.325953369140626,0.220413852250576,-0.1296615681797266,0.030199309730925595
1782816185679035400,10.346035400390624,0.05972878477573394,-0.1692548890300095,-0.06635428102982696
1782816185699117300,10.366117431640625,-0.15698972008824347,-0.04113236698582768,-0.007160114587447606
1782816185719199500,10.386199462890625,-0.18430851964652537,0.01191343289464712,0.06860991903608664
1782816185739281400,10.406281494140625,-0.017590017226338385,-0.07990136584118009,0.05839578260630369
1782816185759363300,10.42636328125,0.10580547629594803,-0.19605229506269095,-0.0008334905404306482
1782816185779445500,10.446445556640626,0.11010814192593096,-0.14620105343982576,0.026668733585136942
1782816185799526400,10.4665263671875,0.13275251993238926,-0.10229366878271103,0.09388328470611013
1782816185819608600,10.486608642578124,-0.34080548778176306,0.11341770486533641,0.011918412747152614
1782816185839690500,10.5066904296875,-0.36289983069002624,0.17614260271713136,0.027727670336829033
1782816185859772400,10.5267724609375,-0.19503683440983294,0.10582374260500073,0.07347044231111649
1782816185879854300,10.546854248046875,-0.16594459543824194,-0.15693579794391987,-0.49015671234820035
1782816185899936500,10.5669365234375,-0.08308218783438205,-0.46578532788604493,-0.7222061669327319
1782816185920018400,10.587018310546876,0.8080863149225711,-0.10184139497056603,-0.09855749619537964
1782816185940099600,10.607099609375,0.9938315893739461,0.28232933341562744,0.5351459739578888
1782816185960181500,10.627181396484374,0.5439835430711507,0.2806549704626202,0.5270275128994136
1782816185980263400,10.647263427734375,-0.052121232381463045,0.10197861148416995,0.04007507648523897
1782816186000345300,10.667345458984375,0.20176935753524303,-0.3761657011069357,-0.5184979502893984
