time,seconds_elapsed,z,y,x
1782816157086311400,0.0643115234375,-0.7072914242744446,0.606985330581665,0.2543011009693146
1782816157106393300,0.084393310546875,-1.044299602508545,1.114363431930542,0.3973692059516907
1782816157126474500,0.104474609375,-1.3308440446853638,0.8833867311477661,0.08781097829341888
1782816157146556400,0.124556396484375,-1.2124719619750977,0.47445055842399597,0.04358562082052231
1782816157166638300,0.144638427734375,-1.2799806594848633,0.33781397342681885,0.09416773170232773
1782816157186720500,0.164720458984375,-0.9938995838165283,-0.20914611220359802,0.5485988259315491
1782816157206802700,0.184802734375,-1.3310253620147705,0.18842223286628723,0.5263158082962036
1782816157226884600,0.204884521484375,-2.5874059200286865,-2.7696828842163086,-1.39439058303833
1782816157246966500,0.224966552734375,-2.6003315448760986,-0.19068646430969238,-1.2586323022842407
1782816157267048700,0.245048583984375,-2.0024633407592773,0.650352954864502,-0.9168795347213745
1782816157287130600,0.265130615234375,-1.0045253038406372,1.0660520792007446,-0.6585240364074707
1782816157307211500,0.28521142578125,-0.356514573097229,0.7479894161224365,-0.39602339267730713
1782816157327293400,0.30529345703125,-0.5137885808944702,-0.00891402643173933,-0.08602046966552734
1782816157347375400,0.325375244140625,-0.6834827661514282,-0.6803224086761475,0.05818522721529007
1782816157367457300,0.345457275390625,-0.3626919984817505,-0.6856169104576111,-0.37207597494125366
1782816157387539500,0.36553955078125,-0.02965354546904564,-0.0277821384370327,-1.1170048713684082
1782816157407621400,0.385621337890625,0.28962114453315735,-0.21093878149986267,-1.8385359048843384
1782816157427703300,0.405703369140625,0.8785281777381897,-0.4266439974308014,-2.177614450454712
1782816157447785500,0.425785400390625,1.1781901121139526,-0.698600709438324,-2.1776461601257324
1782816157467867400,0.445867431640625,1.2094886302947998,-0.7293286323547363,-1.8324575424194336
1782816157487949600,0.465949462890625,0.9768433570861816,-0.7439695596694946,-1.156663179397583
1782816157508030500,0.486030517578125,0.5330176949501038,-0.6992372274398804,-0.31853732466697693
1782816157528112400,0.5061123046875,-0.017476346343755722,-0.5646102428436279,0.4794329106807709
1782816157548194300,0.5261943359375,-0.25895464420318604,-1.0222290754318237,0.8764143586158752
1782816157568276500,0.5462763671875,-0.3020569086074829,-1.222941517829895,0.7529122233390808
1782816157588358400,0.5663583984375,-0.13505777716636658,-1.4190646409988403,0.2888924777507782
1782816157608440300,0.5864404296875,0.14657282829284668,-1.3848540782928467,-0.34022343158721924
1782816157628522500,0.6065224609375,-0.0732811912894249,-1.0265445709228516,-0.7951214909553528
1782816157648604400,0.6266044921875,-0.2567110061645508,-0.49188727140426636,-0.9671611189842224
1782816157668686300,0.646686279296875,-0.22654734551906586,-0.2680986225605011,-0.9205813407897949
1782816157688767500,0.666767578125,-0.0415719598531723,-0.790673017501831,-0.6514706611633301
1782816157708849400,0.686849365234375,0.024521786719560623,-1.1025499105453491,-0.1448153406381607
1782816157728931300,0.706931396484375,0.07707130908966064,0.04574660211801529,0.028458228334784508
1782816157749013500,0.727013427734375,0.21171121299266815,0.7117696404457092,0.3923792541027069
1782816157769095400,0.747095458984375,0.17245112359523773,0.5889176726341248,0.583300769329071
1782816157789177300,0.76717724609375,0.0977121889591217,0.640633225440979,0.9673739671707153
1782816157809259500,0.787259521484375,0.07254455983638763,0.7527985572814941,1.006260633468628
1782816157829341400,0.807341552734375,0.0793725848197937,0.7193850874900818,0.8872904777526855
1782816157849423400,0.82742333984375,0.18823593854904175,1.28656804561615,1.0630979537963867
1782816157869504500,0.84750439453125,0.26488426327705383,1.4687880277633667,1.1190907955169678
1782816157889586400,0.86758642578125,0.46077799797058105,0.5176738500595093,0.793076753616333
1782816157909668400,0.88766845703125,0.3032175898551941,-0.25768595933914185,0.6666700839996338
1782816157929750500,0.90775048828125,0.13743601739406586,-0.6044833064079285,1.0168451070785522
1782816157949832400,0.92783251953125,0.20108060538768768,-0.5584239363670349,1.0261437892913818
1782816157969914400,0.947914306640625,0.555995762348175,-0.47571051120758057,0.4121418297290802
1782816157989996500,0.96799658203125,0.9478408098220825,-0.3588012754917145,-0.34809574484825134
1782816158010078500,0.988078369140625,0.9653176069259644,-0.31551027297973633,-1.107886552810669
1782816158030159400,1.008159423828125,0.9115378856658936,-0.49150124192237854,-1.6773130893707275
1782816158050241500,1.028241455078125,0.850217342376709,-0.6317940354347229,-1.8949276208877563
1782816158070323500,1.048323486328125,0.48358964920043945,-0.30588024854660034,-2.0770788192749023
1782816158090405400,1.0684052734375,-0.06771630793809891,0.6939511895179749,-2.2458834648132324
1782816158110487600,1.088487548828125,0.04703955724835396,0.8873470425605774,-2.2111048698425293
1782816158130569500,1.108569580078125,-0.08350645750761032,0.8762381672859192,-1.4991309642791748
1782816158150651100,1.128651123046875,-0.1868099719285965,0.7254987955093384,-0.5678284168243408
1782816158170733300,1.1487333984375,-0.12232876569032669,0.46666523814201355,0.27494898438453674
1782816158190815200,1.168815185546875,0.16915453970432281,0.0725414901971817,0.7220642566680908
1782816158210896100,1.188896240234375,0.34236931800842285,-0.4577111005783081,0.8469001650810242
1782816158230978300,1.208978271484375,0.19257143139839172,-0.8237423896789551,0.9363362193107605
1782816158251060200,1.229060302734375,-0.013089902698993683,-0.8383563160896301,1.0632246732711792
1782816158271142100,1.24914208984375,-0.13178308308124542,-0.6625618934631348,1.0468926429748535
1782816158291224300,1.269224365234375,-0.20980867743492126,-0.31380802392959595,0.7556395530700684
1782816158311306200,1.28930615234375,-0.4603518843650818,0.054281286895275116,0.48013681173324585
1782816158331388200,1.30938818359375,-0.735102653503418,0.5094858407974243,0.4257531464099884
1782816158351470300,1.32947021484375,-0.9205500483512878,1.206555724143982,0.36151283979415894
1782816158371551200,1.34955126953125,-0.8896430134773254,2.417341470718384,-0.09867724776268005
1782816158391633200,1.369633056640625,-0.7560262084007263,2.3043248653411865,-0.7841475009918213
1782816158411715300,1.38971533203125,-0.6869320869445801,2.0126490592956543,-0.577069103717804
1782816158431797200,1.40979736328125,-0.5567892789840698,1.1735742092132568,0.35392096638679504
1782816158451879200,1.429879150390625,-0.3304983675479889,0.3120422959327698,1.695859432220459
1782816158471961300,1.44996142578125,0.4826802611351013,-0.34114423394203186,1.8879812955856323
1782816158492043300,1.470043212890625,1.0091984272003174,-0.8221410512924194,1.6867132186889648
1782816158512125200,1.490125244140625,1.1392672061920166,-2.04364013671875,0.48864421248435974
1782816158532207400,1.510207275390625,0.8647645711898804,-3.4306108951568604,-0.649334192276001
1782816158552288300,1.530288330078125,0.3361814320087433,-3.804250955581665,-1.2371888160705566
1782816158572370200,1.5503701171875,-0.20745742321014404,-2.3537094593048096,-1.5633047819137573
1782816158592452400,1.570452392578125,-0.6990099549293518,-0.9327719211578369,-2.8041017055511475
1782816158612534300,1.5905341796875,-0.9564710259437561,0.17537108063697815,-4.0314412117004395
1782816158632616200,1.6106162109375,-0.5973230004310608,0.8644378185272217,-3.7151288986206055
1782816158652698400,1.630698486328125,0.1346932053565979,1.0357733964920044,-2.140516519546509
1782816158672780300,1.6507802734375,0.12252724915742874,0.7752350568771362,-0.309020459651947
1782816158692862200,1.6708623046875,-0.2706282436847687,0.5141512155532837,1.075698971748352
1782816158712943400,1.690943359375,-0.44770821928977966,0.47103989124298096,1.9102174043655396
1782816158733025300,1.711025390625,-0.24117277562618256,0.5093528032302856,2.168839931488037
1782816158753107200,1.731107177734375,0.05579477548599243,0.6024901270866394,2.0009305477142334
1782816158773189400,1.751189453125,0.16207318007946014,0.6244726181030273,1.5470563173294067
1782816158793271300,1.771271240234375,0.08426019549369812,0.5797798037528992,1.0297586917877197
1782816158813353200,1.791353271484375,-0.05958124250173569,0.5403734445571899,0.5926817655563354
1782816158833435400,1.811435302734375,-0.11392271518707275,0.5053560733795166,0.30937933921813965
1782816158853517300,1.831517333984375,-0.15161021053791046,0.5231914520263672,0.23488272726535797
1782816158873598500,1.851598388671875,-0.13282181322574615,0.6270366311073303,0.4408714175224304
1782816158893680400,1.871680419921875,-0.020338809117674828,0.8533452749252319,0.7500554323196411
1782816158913762300,1.89176220703125,0.2671577036380768,1.0799615383148193,0.9138203263282776
1782816158933844200,1.91184423828125,0.8122392296791077,1.6132533550262451,1.0992600917816162
1782816158953926400,1.931926513671875,1.7926132678985596,2.3492116928100586,1.3423391580581665
1782816158974008300,1.95200830078125,2.1316370964050293,2.5776071548461914,1.0997262001037598
1782816158994090200,1.97209033203125,1.4475232362747192,1.881471872329712,0.009207304567098618
1782816159014172400,1.99217236328125,0.7957755327224731,0.740513026714325,-1.2022979259490967
1782816159034254300,2.01225439453125,0.9484904408454895,-0.49818795919418335,-1.8320119380950928
1782816159054336300,2.032336181640625,0.7792190909385681,-2.270435094833374,-1.4577323198318481
1782816159074417400,2.05241748046875,0.4167875647544861,-2.9192700386047363,-0.891938328742981
1782816159094499300,2.072499267578125,0.2686769664287567,-2.1327736377716064,-1.3763498067855835
1782816159114581200,2.092581298828125,-0.5740295648574829,-1.766140341758728,-2.539933681488037
1782816159134663400,2.112663330078125,-0.8924382328987122,-2.003514289855957,-2.6040964126586914
1782816159154745000,2.1327451171875,-0.9600901007652283,-2.0558485984802246,-1.314442753791809
1782816159174827000,2.152826904296875,-1.0511701107025146,-0.8607152104377747,0.11423002928495407
1782816159194909200,2.1729091796875,-0.679168164730072,0.48107296228408813,0.90111243724823
1782816159214991000,2.1929912109375,-0.319092720746994,1.0175113677978516,1.2997729778289795
1782816159235073000,2.213072998046875,-0.12293855100870132,0.8671327829360962,1.708804726600647
1782816159255154200,2.233154296875,-0.14188724756240845,0.41896769404411316,1.9521052837371826
1782816159275236000,2.253236083984375,-0.40507641434669495,-0.02740003913640976,2.0235884189605713
1782816159295318000,2.273318115234375,-0.6923959255218506,-0.2947804629802704,2.1198880672454834
1782816159315400200,2.293400146484375,-0.904538094997406,-0.8215583562850952,2.0236566066741943
1782816159335482000,2.313482177734375,-1.124049186706543,-1.116557002067566,1.6542019844055176
1782816159355564000,2.33356396484375,-1.3038350343704224,-0.8594133257865906,1.3741741180419922
1782816159375646200,2.353646240234375,-1.4128901958465576,-0.08604396134614944,1.0761326551437378
1782816159395728100,2.37372802734375,-1.5071278810501099,0.2597646713256836,0.8074145913124084
1782816159415810000,2.39381005859375,-1.0055420398712158,0.417947918176651,0.9481207728385925
1782816159435892200,2.413892333984375,-0.446792870759964,0.5262551307678223,1.1468870639801025
1782816159455973000,2.43397314453125,-0.062086790800094604,0.5242938995361328,0.7415099143981934
1782816159476055000,2.454054931640625,0.4711536169052124,0.019342239946126938,0.24231112003326416
1782816159496137200,2.47413720703125,1.0664469003677368,0.06140945479273796,-0.14902371168136597
1782816159516219100,2.49421923828125,1.3045674562454224,0.28872445225715637,-0.7524285316467285
1782816159536301000,2.514301025390625,0.8667819499969482,-0.7230448722839355,-1.282503366470337
1782816159556383200,2.53438330078125,0.5709586143493652,-1.8347853422164917,-0.928464949131012
1782816159576465200,2.554465087890625,0.7603151798248291,-2.184262752532959,-0.7152215838432312
1782816159596547000,2.574547119140625,0.3782837390899658,-2.2416493892669678,-1.2662785053253174
1782816159616629200,2.594629150390625,-0.5401172637939453,-1.4124175310134888,-2.262406587600708
1782816159636711200,2.614711181640625,-0.7356542348861694,1.2895209789276123,-2.9533069133758545
1782816159656792000,2.6347919921875,-0.21685440838336945,3.3448500633239746,-3.7021167278289795
1782816159676874200,2.654874267578125,-0.11746979504823685,2.980102300643921,-3.9996094703674316
1782816159696956200,2.6749560546875,-0.5594349503517151,1.2650482654571533,-3.1219472885131836
1782816159717038000,2.6950380859375,-0.6544685363769531,-0.48930609226226807,-1.3553190231323242
1782816159737120300,2.715120361328125,-0.13716232776641846,-0.8708668351173401,0.4581143260002136
1782816159757202200,2.7352021484375,0.42865708470344543,-0.5376983284950256,1.1442692279815674
1782816159777284000,2.7552841796875,0.6092855334281921,0.07415863871574402,0.9675095677375793
1782816159797366000,2.775365966796875,0.4330715239048004,0.7749322652816772,0.9112740159034729
1782816159817448200,2.7954482421875,0.19927188754081726,0.4964754581451416,1.3876957893371582
1782816159837529000,2.815529052734375,0.02247042953968048,-0.23395948112010956,1.7544273138046265
1782816159857611300,2.835611328125,-0.0970577746629715,-0.8306511640548706,1.7024846076965332
1782816159877693200,2.855693115234375,-0.35225677490234375,-1.3248629570007324,1.6056230068206787
1782816159897775000,2.875775146484375,-0.8613235950469971,-1.3832207918167114,1.8968335390090942
1782816159917857300,2.895857177734375,-0.9433992505073547,-1.4633499383926392,2.4083049297332764
1782816159937939200,2.915939208984375,-0.9369096159934998,-1.017043113708496,2.8591647148132324
1782816159958021000,2.936021240234375,-0.6692678928375244,-0.30362668633461,3.005411148071289
1782816159978103000,2.95610302734375,-0.3312675654888153,0.9319354295730591,2.622075080871582
1782816159998185200,2.976185302734375,0.11530815064907074,2.739915132522583,1.5583164691925049
1782816160018267100,2.99626708984375,0.9924376010894775,2.085094451904297,-0.6446241736412048
1782816160038348000,3.01634814453125,2.59020733833313,1.6375993490219116,-2.326246738433838
1782816160058430000,3.036429931640625,3.4321062564849854,-0.7539562582969666,-3.1963119506835938
1782816160078512000,3.05651220703125,2.3433141708374023,-3.135249614715576,-4.177612781524658
1782816160098594300,3.07659423828125,0.5576199293136597,-3.6716582775115967,-4.708190441131592
1782816160118676200,3.09667626953125,-0.8000808954238892,-2.493478536605835,-3.508079767227173
1782816160138758100,3.116758056640625,-1.6998300552368164,-0.6028151512145996,-2.8574259281158447
1782816160158840800,3.1368408203125,-1.8090811967849731,1.289184331893921,-3.9250588417053223
1782816160178923000,3.156923095703125,-1.8465166091918945,2.6868162155151367,-4.660309791564941
1782816160199005000,3.1770048828125,-1.264798641204834,3.1601710319519043,-4.0390801429748535
1782816160219086800,3.1970869140625,-0.6602801084518433,2.7572803497314453,-2.58610200881958
1782816160239168000,3.21716796875,-0.5081601738929749,1.6052021980285645,-1.2608773708343506
1782816160259250000,3.23725,-0.5146017074584961,1.1361428499221802,-0.879787802696228
1782816160279331800,3.257331787109375,-0.525848925113678,1.2733261585235596,-0.723834753036499
1782816160299414000,3.2774140625,-0.23717007040977478,1.047876000404358,0.04418350011110306
1782816160319496000,3.297495849609375,0.18937285244464874,0.49852919578552246,1.0696582794189453
1782816160339577900,3.317577880859375,0.1782393455505371,-0.11510635912418365,1.7154598236083984
1782816160359660000,3.337659912109375,0.11350443214178085,-0.8977100849151611,1.9300392866134644
1782816160379742000,3.357741943359375,-0.08589044958353043,-1.2210936546325684,1.7325804233551025
1782816160399824000,3.377823974609375,-0.3285028636455536,-0.6921685934066772,1.326258897781372
1782816160419905800,3.39790576171875,-0.27404114603996277,0.3891114294528961,1.1869020462036133
1782816160439987000,3.417987060546875,0.19599024951457977,1.3691611289978027,1.7054980993270874
1782816160460068900,3.43806884765625,0.5094492435455322,1.3116629123687744,2.060243844985962
1782816160480151000,3.458151123046875,0.37639206647872925,0.43592342734336853,2.0669775009155273
1782816160500233000,3.47823291015625,0.012136222794651985,-0.17615048587322235,2.221663475036621
1782816160520315000,3.49831494140625,0.2639210820198059,0.27793088555336,2.726926326751709
1782816160540397000,3.51839697265625,0.6082326769828796,-0.07064265757799149,2.488894462585449
1782816160560479000,3.53847900390625,-0.01010756753385067,-1.2027307748794556,1.9031316041946411
1782816160580561000,3.558560791015625,-0.3831072747707367,-2.554523468017578,2.125494956970215
1782816160600642800,3.578642822265625,-0.10538667440414429,-3.682607889175415,2.637441396713257
1782816160620725000,3.59872509765625,-0.3728789985179901,-4.881606578826904,2.32834529876709
1782816160640806000,3.618805908203125,-0.950960099697113,-4.780436038970947,0.850435197353363
1782816160660888000,3.63888818359375,-0.851601779460907,-2.4759650230407715,-0.977927565574646
1782816160680970000,3.658969970703125,0.11800990253686905,1.105148434638977,-2.6888489723205566
1782816160701052000,3.679052001953125,0.60616135597229,3.0037033557891846,-3.7364187240600586
1782816160721133800,3.6991337890625,0.51230788230896,2.860649824142456,-3.649026870727539
1782816160741216000,3.719216064453125,0.2696962356567383,1.8950830698013306,-2.774629592895508
1782816160761298000,3.7392978515625,0.3813638687133789,0.9548210501670837,-1.5239801406860352
1782816160781379800,3.7593798828125,1.215114951133728,0.8263534903526306,-0.42722710967063904
1782816160801462000,3.7794619140625,1.7958216667175293,1.0469998121261597,-0.05652972683310509
1782816160821544000,3.7995439453125,1.9918231964111328,1.158430576324463,0.12821565568447113
1782816160841625000,3.819625,1.8612325191497803,0.934298038482666,0.3999820351600647
1782816160861707000,3.83970703125,1.4461270570755005,0.36973538994789124,0.5761677622795105
1782816160881789000,3.859788818359375,0.9620115756988525,-0.2603561282157898,0.49668020009994507
1782816160901870800,3.879870849609375,0.45741698145866394,-0.6748397946357727,0.33874261379241943
1782816160921953000,3.899953125,-0.0348525233566761,-0.756978452205658,0.11757265776395798
1782816160942035000,3.920034912109375,-0.1698378026485443,-0.22486650943756104,0.07445384562015533
1782816160962116900,3.940116943359375,-0.18217721581459045,0.2717369794845581,-0.10525801032781601
1782816160982199000,3.960198974609375,-0.3745253384113312,0.30310192704200745,-0.2863120138645172
1782816161002281000,3.980281005859375,-0.49632978439331055,0.2082596719264984,-0.22248147428035736
1782816161022363000,4.00036279296875,-0.44188472628593445,0.5859041213989258,0.2738848328590393
1782816161042445000,4.020445068359375,0.36723044514656067,1.650699496269226,0.78787761926651
1782816161062525700,4.040525634765625,0.5530062317848206,0.9006326198577881,0.37356066703796387
1782816161082607900,4.06060791015625,0.194035604596138,-0.7162200212478638,0.33043959736824036
1782816161102690000,4.08068994140625,-0.3289446234703064,-1.9408503770828247,0.6131424307823181
1782816161122772000,4.10077197265625,-0.7249069213867188,-2.0620973110198975,0.24641092121601105
1782816161142854000,4.12085400390625,-0.9021432995796204,-1.8094661235809326,-0.9675451517105103
1782816161162936000,4.14093603515625,-1.0828266143798828,-0.9372501969337463,-1.4798104763031006
1782816161183018000,4.16101806640625,-0.8792685866355896,0.34748849272727966,-1.291203260421753
1782816161203100000,4.181099853515625,-0.5801410675048828,1.4112720489501953,-1.361859679222107
1782816161223182000,4.20118212890625,-0.42919808626174927,1.7930982112884521,-1.541599154472351
1782816161243264000,4.221263916015625,-0.3891029953956604,1.6565743684768677,-1.5358020067214966
1782816161263345000,4.241344970703125,-0.23613348603248596,1.306648850440979,-1.1633661985397339
1782816161283427000,4.261427001953125,-0.17568811774253845,0.9762255549430847,-0.41645103693008423
1782816161303509000,4.281509033203125,-0.15529076755046844,0.8526600003242493,0.4428163766860962
1782816161323591000,4.3015908203125,-0.11733927577733994,0.976772665977478,1.2080824375152588
1782816161343673000,4.321673095703125,-0.022879093885421753,1.092627763748169,1.5608642101287842
1782816161363755000,4.341755126953125,0.0693991631269455,0.877934455871582,1.3247209787368774
1782816161383837000,4.3618369140625,0.11944674700498581,0.5530083775520325,0.7776470184326172
1782816161403919000,4.381919189453125,-0.0002928622125182301,0.21428126096725464,0.26816079020500183
1782816161424001000,4.4020009765625,-0.08876346796751022,0.14624452590942383,0.32306328415870667
1782816161444083000,4.4220830078125,0.10572796314954758,0.4714581072330475,0.8979362845420837
1782816161464164900,4.442164794921875,0.29300206899642944,0.5400365591049194,1.2218751907348633
1782816161484246000,4.46224609375,0.3126375377178192,1.0374810695648193,1.19185209274292
1782816161504328000,4.482327880859375,0.27044451236724854,2.256188154220581,0.6717378497123718
1782816161524410000,4.50241015625,0.4012642204761505,2.402580499649048,-0.07854607701301575
1782816161544492000,4.522491943359375,-0.15525013208389282,0.8817703723907471,-0.3926776647567749
1782816161564574000,4.542573974609375,-0.3408258855342865,-1.592488169670105,-0.006210059393197298
1782816161584656100,4.56265625,0.1108354777097702,-2.728325605392456,0.3201090693473816
1782816161604738000,4.582738037109375,0.4695880115032196,-2.8926870822906494,-0.1642753630876541
1782816161624820000,4.602820068359375,0.015471076592803001,-2.1075494289398193,-0.9870865941047668
1782816161644902000,4.62290185546875,-0.058071162551641464,-0.7829829454421997,-1.6195738315582275
1782816161664984000,4.642984130859375,0.10517644137144089,-0.32693982124328613,-1.8785932064056396
1782816161685066000,4.66306591796875,0.19559195637702942,-0.6991347074508667,-1.8137375116348267
1782816161705147100,4.683147216796875,0.034148313105106354,-1.2706973552703857,-1.2702215909957886
1782816161725229000,4.70322900390625,0.19992917776107788,-1.365195870399475,-0.2801039218902588
1782816161745311000,4.72331103515625,0.33204206824302673,-0.9644203186035156,0.476713627576828
1782816161765393000,4.743392822265625,0.2943772077560425,-0.3303772211074829,0.7780913710594177
1782816161785475000,4.76347509765625,0.05058210343122482,0.09391635656356812,0.6629832983016968
1782816161805557000,4.783556884765625,-0.35477009415626526,0.35064730048179626,0.3700762689113617
1782816161825639000,4.803638916015625,-0.7683810591697693,0.5580164790153503,0.1429482400417328
1782816161845721000,4.82372119140625,-0.8363862633705139,0.7676478624343872,0.21607869863510132
1782816161865803000,4.843802978515625,-0.9641671180725098,0.5972001552581787,0.35401278734207153
1782816161885885000,4.863885009765625,-1.3820233345031738,0.12011532485485077,0.43658342957496643
1782816161905967000,4.883967041015625,-1.8089051246643066,-0.1596318930387497,0.5916035771369934
1782816161926048000,4.904048095703125,-1.9296770095825195,-0.10833019763231277,0.7391172051429749
1782816161946130000,4.9241298828125,-1.834526777267456,0.1260308474302292,0.8098044991493225
1782816161966212000,4.944212158203125,-1.6195238828659058,0.31513139605522156,0.8530340194702148
1782816161986294000,4.9642939453125,-1.440062403678894,0.42069530487060547,1.0085878372192383
1782816162006376000,4.9843759765625,-1.1066868305206299,0.48182162642478943,1.282312273979187
1782816162026458000,5.0044580078125,-0.45574530959129333,0.5309624671936035,1.3161277770996094
1782816162046540000,5.0245400390625,0.18881119787693024,0.6061408519744873,0.9068944454193115
1782816162066622000,5.0446220703125,0.4922785758972168,0.7443819046020508,0.2870751619338989
1782816162086704000,5.0647041015625,0.9509077072143555,1.1683738231658936,-0.6581661105155945
1782816162106786000,5.0847861328125,0.49078091979026794,-0.46491700410842896,-2.2832937240600586
1782816162126868000,5.104867919921875,0.39609581232070923,-1.6958566904067993,-2.408611297607422
1782816162146949600,5.12494970703125,0.3280623257160187,-1.9830483198165894,-1.8372396230697632
1782816162167030500,5.145030517578125,0.7753328084945679,-1.1023125648498535,-2.1110999584198
1782816162187112400,5.165112548828125,0.9318143725395203,-0.46650373935699463,-2.97153639793396
1782816162207194600,5.185194580078125,0.46146541833877563,-0.4817779064178467,-3.2828173637390137
1782816162227276500,5.205276611328125,0.04915058612823486,-0.7523939609527588,-3.223367929458618
1782816162247358500,5.2253583984375,0.10998662561178207,-1.0263665914535522,-2.747368097305298
1782816162267440600,5.245440673828125,0.7185518741607666,-1.1077839136123657,-1.6336442232131958
1782816162287522600,5.2655224609375,1.036588430404663,-0.4464956820011139,-0.20350411534309387
1782816162307604500,5.2856044921875,0.7575950622558594,0.1876389980316162,1.0914530754089355
1782816162327686700,5.305686767578125,0.4439133107662201,0.3660490810871124,1.4626152515411377
1782816162347768600,5.3257685546875,0.47505319118499756,0.6686527132987976,1.4746845960617065
1782816162367850500,5.3458505859375,0.6383966207504272,0.8487266898155212,1.3068838119506836
1782816162387931600,5.365931640625,0.5809157490730286,0.893998384475708,0.982647180557251
1782816162408013600,5.386013671875,0.36843281984329224,0.8460359573364258,0.673824667930603
1782816162428095500,5.406095458984375,0.1655326932668686,0.8874664902687073,0.5531123280525208
1782816162448177700,5.426177734375,0.01993955671787262,0.9863011240959167,0.6156654357910156
1782816162468259600,5.446259521484375,0.1843353807926178,1.2290600538253784,0.8605017066001892
1782816162488341500,5.466341552734375,0.4749927818775177,1.302185297012329,1.2260581254959106
1782816162508423700,5.486423583984375,0.9536874294281006,1.3919638395309448,1.6180942058563232
1782816162528505600,5.506505615234375,0.9043600559234619,0.823878824710846,1.4977999925613403
1782816162548587500,5.52658740234375,0.3065868020057678,-0.10675365477800369,1.3771761655807495
1782816162568669400,5.54666943359375,0.2699733376502991,-0.2660156786441803,1.5976110696792603
1782816162588751600,5.566751708984375,0.4211103320121765,-0.3156697750091553,1.6019104719161987
1782816162608833500,5.58683349609375,0.00588319031521678,-0.7821078896522522,0.9231569170951843
1782816162628914700,5.606914794921875,-0.9597175121307373,-1.321602702140808,-0.27735933661460876
1782816162648996600,5.62699658203125,-1.8022592067718506,-1.2668511867523193,-1.3625271320343018
1782816162669078500,5.64707861328125,-2.141686201095581,-1.0133466720581055,-1.5454293489456177
1782816162689160700,5.66716064453125,-1.4952421188354492,-0.6219767928123474,-0.7241576313972473
1782816162709242600,5.68724267578125,-0.5943717360496521,-0.5420792102813721,0.020789029076695442
1782816162729324500,5.707324462890625,-0.07903429865837097,-0.574184000492096,0.42434656620025635
1782816162749406500,5.727406494140625,0.08309496194124222,-0.41093072295188904,0.4506440758705139
1782816162769488600,5.747488525390625,0.17026473581790924,0.03985786437988281,0.3320954740047455
1782816162789570600,5.767570556640625,0.31081488728523254,0.6677060723304749,0.3561893701553345
1782816162809652500,5.787652587890625,0.4627275764942169,0.9725659489631653,0.6390202641487122
1782816162829734700,5.807734619140625,0.5513560175895691,0.8600050806999207,0.8378734588623047
1782816162849816600,5.827816650390625,0.47436419129371643,0.4729599356651306,0.7518616914749146
1782816162869898500,5.8478984375,0.3099861443042755,0.23897317051887512,0.5224999189376831
1782816162889980700,5.867980712890625,0.36887407302856445,0.38960278034210205,0.46937161684036255
1782816162910062600,5.8880625,0.544886589050293,0.8476718068122864,0.5716480612754822
1782816162930143500,5.9081435546875,0.6182752847671509,1.2508161067962646,0.6278497576713562
1782816162950225700,5.9282255859375,0.6317763924598694,1.4891165494918823,0.6360845565795898
1782816162970307600,5.9483076171875,0.6908066272735596,1.531043529510498,0.8179239630699158
1782816162990389500,5.968389404296875,0.9920716285705566,1.5557643175125122,1.0842841863632202
1782816163010471700,5.9884716796875,1.1801636219024658,1.657550573348999,1.139542818069458
1782816163030553600,6.0085537109375,1.1320481300354004,1.24875807762146,0.8763222098350525
1782816163050635500,6.028635498046875,1.0755596160888672,0.48302799463272095,0.6605274677276611
1782816163070717700,6.0487177734375,1.359326958656311,-0.49903440475463867,0.2564231753349304
1782816163090799600,6.068799560546875,1.2006412744522095,-2.2642080783843994,-0.2622477412223816
1782816163110881500,6.088881591796875,1.374445915222168,-3.939023971557617,-0.3596639037132263
1782816163130963500,6.10896337890625,1.3541897535324097,-5.469372749328613,-0.69941246509552
1782816163151046000,6.1290458984375,0.6957575082778931,-6.544170379638672,-1.523398518562317
1782816163171127800,6.1491279296875,0.19728198647499084,-5.6569013595581055,-3.0806543827056885
1782816163191209000,6.169208984375,0.1392739713191986,-3.030505657196045,-5.397349834442139
1782816163211291000,6.189290771484375,-0.10230682045221329,-0.4732864797115326,-6.512035369873047
1782816163231372800,6.209372802734375,-0.5724125504493713,1.1234451532363892,-5.401646137237549
1782816163251454700,6.229454833984375,-0.8463310599327087,2.2895541191101074,-2.5300424098968506
1782816163271537000,6.249536865234375,-0.7329509854316711,2.7444493770599365,0.7413226962089539
1782816163291618800,6.269618896484375,-0.47503331303596497,3.064537286758423,2.9018568992614746
1782816163311700700,6.28970068359375,-0.23928003013134003,3.3575997352600098,3.81640887260437
1782816163331783000,6.309782958984375,0.22936110198497772,3.388336658477783,3.9952542781829834
1782816163351864800,6.32986474609375,1.0236482620239258,3.233722686767578,3.5022761821746826
1782816163371946800,6.34994677734375,1.6001739501953125,2.8970682621002197,2.3854024410247803
1782816163392029000,6.37002880859375,1.702584147453308,2.1724603176116943,0.9980099201202393
1782816163412110800,6.39011083984375,1.4537982940673828,1.2791532278060913,0.2833947241306305
1782816163432192800,6.41019287109375,0.9432796835899353,0.32873934507369995,0.06319817900657654
1782816163452274700,6.430274658203125,0.39974886178970337,-0.302580326795578,0.1946149468421936
1782816163472356900,6.45035693359375,0.12133465707302094,-0.17521952092647552,0.36905279755592346
1782816163492437800,6.470437744140625,0.1873101443052292,0.3367670178413391,0.33732008934020996
1782816163512520000,6.49052001953125,0.2510271668434143,0.6227180361747742,0.31724393367767334
1782816163532601900,6.510601806640625,0.410759836435318,0.3949333429336548,0.5207398533821106
1782816163552683800,6.530683837890625,0.6436970829963684,-0.019936975091695786,1.0882749557495117
1782816163572766000,6.550765869140625,1.0536166429519653,-0.12583820521831512,1.5538067817687988
1782816163592848000,6.570847900390625,1.0887354612350464,-0.6549357771873474,0.9352238774299622
1782816163612929800,6.5909296875,1.1093629598617554,-1.2547045946121216,0.08021247386932373
1782816163633011700,6.61101171875,1.1667579412460327,-2.608832359313965,-0.18161623179912567
1782816163653094000,6.631093994140625,0.6009701490402222,-4.082754135131836,-0.4312093257904053
1782816163673175800,6.65117578125,-0.09545569866895676,-3.5126466751098633,-0.24879732728004456
1782816163693257700,6.6712578125,-0.2193497121334076,-1.8499627113342285,-0.9353569149971008
1782816163713340000,6.69133984375,-0.09383488446474075,0.01144774816930294,-2.5681822299957275
1782816163733421800,6.711421875,-0.6475465893745422,0.9126443862915039,-4.030117511749268
1782816163753502700,6.731502685546875,-1.3448954820632935,0.9149582982063293,-4.092451095581055
1782816163773585000,6.7515849609375,-1.8098737001419067,0.6233745813369751,-2.9195971488952637
1782816163793666800,6.771666748046875,-1.5224541425704956,0.5668560862541199,-1.389259696006775
1782816163813748700,6.791748779296875,-0.8441665768623352,0.6996442675590515,-0.18270805478096008
1782816163833831000,6.811830810546875,-0.2082669883966446,0.8019312024116516,0.512161374092102
1782816163853912800,6.831912841796875,0.027335548773407936,0.6308243274688721,1.1839786767959595
1782816163873994800,6.851994873046875,-0.04065597802400589,0.1370394080877304,1.555006980895996
1782816163894077000,6.872076904296875,-0.1613703966140747,-0.18755477666854858,1.6477665901184082
1782816163914158800,6.892158935546875,-0.2806336581707001,-0.3162682354450226,1.425134301185608
1782816163934240800,6.91224072265625,-0.3684675097465515,-0.2770407795906067,1.0660169124603271
1782816163954322700,6.93232275390625,-0.4584033489227295,-0.16098470985889435,0.7983289957046509
1782816163974404900,6.95240478515625,-0.48823225498199463,0.14168843626976013,0.7609754204750061
1782816163994486800,6.97248681640625,-0.5385066866874695,0.7050487399101257,0.7308945655822754
1782816164014568700,6.992568603515625,-0.6570757031440735,1.6800885200500488,0.41852009296417236
1782816164034649900,7.01264990234375,-0.5137885212898254,2.5104267597198486,-0.3149682283401489
1782816164054731800,7.032731689453125,-0.27953726053237915,2.301320791244507,-1.2060097455978394
1782816164074814000,7.05281396484375,-0.003914622124284506,1.4702916145324707,-0.9448491930961609
1782816164094895900,7.072895751953125,0.517041802406311,0.4923457205295563,0.3437390923500061
1782816164114977800,7.092977783203125,0.8427241444587708,-0.8248468637466431,0.9655148983001709
1782816164135059700,7.113059814453125,0.6602661609649658,-2.24480938911438,0.2858237028121948
1782816164155141000,7.13314111328125,0.06887952983379364,-2.741694450378418,-0.6399433612823486
1782816164175223000,7.15322314453125,-0.42422276735305786,-1.6972544193267822,-1.0490731000900269
1782816164195305200,7.17330517578125,-0.4959285259246826,0.001451306976377964,-1.7380479574203491
1782816164215387100,7.19338720703125,-0.4881454110145569,1.188799500465393,-2.476026773452759
1782816164235469000,7.213468994140625,-0.5005792379379272,1.4331157207489014,-2.8754515647888184
1782816164255551000,7.233551025390625,-0.40505337715148926,1.015748143196106,-2.6054763793945312
1782816164275632000,7.253632080078125,-0.031136389821767807,0.3179655373096466,-1.739532470703125
1782816164295714000,7.273714111328125,0.38899320363998413,-0.23325404524803162,-0.5265216827392578
1782816164315796200,7.293796142578125,0.7648570537567139,-0.6246144771575928,0.6261901259422302
1782816164335878100,7.313878173828125,1.0367451906204224,-0.7730096578598022,1.5945738554000854
1782816164355960000,7.3339599609375,1.1623311042785645,-0.7653817534446716,2.097447395324707
1782816164376042200,7.354042236328125,1.1427206993103027,-0.6264951229095459,2.196960210800171
1782816164396124200,7.374124267578125,1.051748514175415,-0.5516995191574097,1.9854509830474854
1782816164416206000,7.3942060546875,0.8550115823745728,-0.34936270117759705,1.5971918106079102
1782816164436288000,7.4142880859375,0.6023404002189636,-0.09387513995170593,1.1439508199691772
1782816164456370200,7.4343701171875,0.4452413022518158,0.23993094265460968,0.8501113057136536
1782816164476452000,7.4544521484375,0.40758052468299866,0.5594524145126343,0.8529074192047119
1782816164496534000,7.474533935546875,0.3745329678058624,0.7075420022010803,0.9242758750915527
1782816164516616200,7.4946162109375,0.1395479142665863,0.6144683957099915,1.0509482622146606
1782816164536698000,7.514697998046875,0.31495827436447144,1.6913926601409912,1.579240083694458
1782816164556779300,7.534779296875,0.8057336211204529,2.9366793632507324,1.3134204149246216
1782816164576861200,7.554861083984375,0.8085851669311523,2.3323047161102295,0.27394503355026245
1782816164596943000,7.574943115234375,0.493118554353714,0.0992380753159523,-0.23015619814395905
1782816164617025000,7.59502490234375,0.14053823053836823,-2.2857232093811035,-0.5490074753761292
1782816164637107200,7.615107177734375,-0.3490392863750458,-4.211244583129883,-1.0675898790359497
1782816164657189000,7.635189208984375,-0.8488426208496094,-5.49122428894043,-2.4907031059265137
1782816164677271000,7.65527099609375,-1.2919800281524658,-5.185943603515625,-4.685766696929932
1782816164697353200,7.675353271484375,-1.791127324104309,-3.835304021835327,-5.9131245613098145
1782816164717435100,7.69543505859375,-2.427938461303711,-1.6078739166259766,-5.330383777618408
1782816164737517000,7.71551708984375,-2.323442220687866,0.9910550713539124,-3.6158463954925537
1782816164757599200,7.73559912109375,-1.2691830396652222,2.67685866355896,-1.3398463726043701
1782816164777681200,7.75568115234375,0.07075625658035278,3.1551260948181152,0.6934369206428528
1782816164797763000,7.77576318359375,1.0939503908157349,2.7559900283813477,1.8775386810302734
1782816164817845000,7.795844970703125,1.5579619407653809,1.9680709838867188,2.5578231811523438
1782816164837926100,7.815926025390625,1.6045581102371216,1.3039213418960571,3.1838982105255127
1782816164858008000,7.836008056640625,1.5379809141159058,0.7814962863922119,3.5978775024414062
1782816164878090200,7.85609033203125,1.5212204456329346,0.3455585837364197,3.6335182189941406
1782816164898172200,7.876172119140625,1.478270411491394,0.12104778736829758,3.2324182987213135
1782816164918254000,7.896254150390625,1.3684152364730835,0.03293565660715103,2.5828263759613037
1782816164938336300,7.916336181640625,1.2294005155563354,-0.05571513995528221,1.9368942975997925
1782816164958418200,7.936418212890625,1.095456838607788,-0.09930447489023209,1.5167524814605713
1782816164978500000,7.9565,0.9720269441604614,-0.02688087895512581,1.3811447620391846
1782816164998582000,7.97658203125,0.8418028354644775,0.22593973577022552,1.4754960536956787
1782816165018664200,7.996664306640625,0.7590118050575256,0.8043314218521118,1.612945556640625
1782816165038746000,8.01674609375,1.1676865816116333,1.548371434211731,1.0672818422317505
1782816165058828000,8.036828125,1.5697922706604004,1.881051778793335,-0.5040169954299927
1782816165078910200,8.05691015625,1.497552514076233,1.4030876159667969,-1.5751351118087769
1782816165098992000,8.0769921875,0.9292375445365906,-0.6792409420013428,-1.5209929943084717
1782816165119073300,8.0970732421875,0.3809400796890259,-2.4465742111206055,-1.1804800033569336
1782816165139155200,8.1171552734375,0.44092532992362976,-2.256751537322998,-1.1315677165985107
1782816165159238100,8.137238037109375,0.38354402780532837,-1.3091380596160889,-0.8768524527549744
1782816165179320000,8.157320068359375,0.11491867899894714,-0.7345587611198425,-0.9200601577758789
1782816165199402000,8.177402099609376,-0.2806467115879059,-0.49390289187431335,-1.2884438037872314
1782816165219484200,8.197484130859374,-0.7279616594314575,-0.6366126537322998,-1.5106557607650757
1782816165239566000,8.217566162109375,-1.3449592590332031,-0.8990098237991333,-1.1550687551498413
1782816165259648000,8.23764794921875,-1.7008869647979736,-0.5183830857276917,-0.38013455271720886
1782816165279730200,8.257730224609375,-1.7085908651351929,0.2072141319513321,0.359024316072464
1782816165299812400,8.277812255859375,-1.713321328163147,0.9130669236183167,0.8299230337142944
1782816165319894300,8.297894287109376,-1.6963860988616943,1.3881725072860718,1.092264175415039
1782816165339976200,8.31797607421875,-1.6015857458114624,1.5093258619308472,1.2276103496551514
1782816165360058400,8.338058349609375,-1.4727643728256226,1.3183939456939697,1.3000696897506714
1782816165380140300,8.358140380859375,-1.4440152645111084,1.0244067907333374,1.3086835145950317
1782816165400221200,8.37822119140625,-1.4362999200820923,0.758836567401886,1.2206331491470337
1782816165420303000,8.39830322265625,-1.3720407485961914,0.6001074910163879,1.0391021966934204
1782816165440385000,8.418385009765625,-1.3934497833251953,0.4005526304244995,0.8726909160614014
1782816165460467200,8.43846728515625,-1.5069835186004639,0.1068025678396225,0.7762287259101868
1782816165480549000,8.458549072265624,-1.6231480836868286,-0.20854943990707397,0.7874236106872559
1782816165500631000,8.478631103515625,-1.6087336540222168,-0.6975346207618713,0.8010745048522949
1782816165520713200,8.498713134765625,-1.2390141487121582,-1.4452201128005981,0.32115399837493896
1782816165540795100,8.518795166015625,-1.2442938089370728,-1.6130849123001099,-0.5354593396186829
1782816165560877000,8.538876953125,-1.5043936967849731,-0.6605938673019409,-0.5705904364585876
1782816165580959000,8.558958984375,-1.1828553676605225,1.0623501539230347,-0.4426157474517822
1782816165601041400,8.57904150390625,-0.262545645236969,1.9109810590744019,-1.3996201753616333
1782816165621123300,8.599123291015625,-0.19505304098129272,1.0288869142532349,-2.4553987979888916
1782816165641205200,8.619205322265625,-0.9101441502571106,-0.8810200691223145,-2.6896259784698486
1782816165661287400,8.639287353515625,-1.3767379522323608,-1.075848937034607,-2.0405020713806152
1782816165681368000,8.6593681640625,-0.9238898158073425,-0.22568880021572113,-1.1486858129501343
1782816165701450000,8.679449951171875,0.08404520899057388,0.12007053196430206,-0.6701522469520569
1782816165721532200,8.6995322265625,0.237003892660141,-0.38937142491340637,-0.8149752616882324
1782816165741614000,8.719614013671874,-0.3087701201438904,-0.4909926652908325,-0.9025288820266724
1782816165761696000,8.739696044921875,-0.2914136052131653,0.14701887965202332,-0.6989958882331848
1782816165781778200,8.759778076171875,0.2056276649236679,0.8510209918022156,-0.39829593896865845
1782816165801860000,8.779860107421875,0.6191151142120361,1.1477264165878296,0.028714120388031006
1782816165821942000,8.79994189453125,0.8466516733169556,1.0335290431976318,0.5104925632476807
1782816165842024200,8.820024169921876,0.9181633591651917,0.5447883009910583,0.9169303178787231
1782816165862106000,8.840106201171874,0.8252023458480835,0.050311379134655,1.233554720878601
1782816165882188000,8.86018798828125,0.5651459097862244,-0.3343196511268616,1.3953769207000732
1782816165902270200,8.880270263671875,0.35269564390182495,-0.5415560603141785,1.3802214860916138
1782816165922352400,8.900352294921875,0.20086131989955902,-0.5388162136077881,1.309835433959961
1782816165942434300,8.920434326171875,0.1772240400314331,-0.3236028850078583,1.2231550216674805
1782816165962516200,8.94051611328125,0.3235812187194824,-0.20351660251617432,1.1536710262298584
1782816165982597000,8.96059716796875,0.38902807235717773,-0.31373724341392517,0.9499126672744751
1782816166002679000,8.980678955078124,0.18065965175628662,-0.9179180264472961,0.3360018730163574
1782816166022761200,9.00076123046875,-0.038366347551345825,-1.0951400995254517,-0.48260247707366943
1782816166042843100,9.020843017578125,-0.05088319629430771,-0.17027601599693298,-0.8581824898719788
1782816166062925000,9.040925048828125,0.14920927584171295,0.7016528248786926,-0.45868825912475586
1782816166083007000,9.061007080078125,0.1930447369813919,0.6018984913825989,0.15368656814098358
1782816166103089200,9.081089111328126,0.003009394509717822,-0.5166893601417542,0.16493214666843414
1782816166123171000,9.101171142578124,-0.4902440011501312,-1.6506376266479492,-0.042309217154979706
1782816166143252700,9.121252685546875,-0.6841567158699036,-2.018263816833496,-0.10930179804563522
1782816166163334700,9.141334716796875,-0.4359920918941498,-1.6264359951019287,0.0916803702712059
1782816166183416600,9.16141650390625,-0.023532135412096977,-1.2801096439361572,0.47752657532691956
1782816166203498500,9.18149853515625,0.23514612019062042,-1.1022645235061646,0.5888554453849792
1782816166223580700,9.20158056640625,0.2871844172477722,-1.3134114742279053,0.4173465967178345
1782816166243662600,9.22166259765625,0.22567708790302277,-1.503118872642517,0.3330545127391815
1782816166263743700,9.24174365234375,0.0883181020617485,-1.0246250629425049,0.34624412655830383
1782816166283825700,9.26182568359375,0.10899470001459122,0.06554306298494339,0.3098939061164856
1782816166303907600,9.281907470703125,0.35284459590911865,1.0795258283615112,0.2911696434020996
1782816166323989500,9.301989501953125,0.5974363088607788,1.0045833587646484,0.142364501953125
1782816166344698600,9.32269873046875,0.34681954979896545,0.1354459822177887,-0.06360733509063721
1782816166364780500,9.342780517578126,-0.10190951079130173,-0.16549460589885712,-0.5673524737358093
1782816166384862700,9.36286279296875,-0.12128186970949173,0.5184513330459595,-0.7144497036933899
1782816166404944600,9.382944580078124,0.029677115380764008,0.9281675219535828,-1.0536035299301147
1782816166425026600,9.403026611328125,0.0696713775396347,1.1116931438446045,-1.909577488899231
1782816166445108700,9.423108642578125,0.03259535878896713,0.28976956009864807,-2.836217164993286
1782816166465189600,9.443189697265625,-0.22041749954223633,0.002447304781526327,-2.397740602493286
1782816166485271800,9.463271728515625,-0.0918332114815712,2.1025593280792236,-0.9238547682762146
1782816166505353700,9.483353759765626,0.5512142181396484,3.172844409942627,0.5751053690910339
1782816166525435600,9.503435546875,1.2264809608459473,4.119867324829102,2.1535935401916504
1782816166545517600,9.523517578125,1.5603103637695312,2.65204119682312,2.4876551628112793
1782816166565599700,9.543599853515625,1.037842035293579,-2.9726622104644775,1.6901317834854126
1782816166585681700,9.563681640625,-0.2875814437866211,-5.4098100662231445,1.022525429725647
1782816166605763600,9.583763671875,-1.1957149505615234,-3.5549139976501465,-0.32815319299697876
1782816166625845800,9.603845703125,-0.6049461960792542,-0.26761120557785034,-0.35264351963996887
1782816166645927700,9.623927734375,0.16447927057743073,1.8569997549057007,0.10147279500961304
1782816166666637600,9.644637451171874,0.6637127995491028,2.696974039077759,0.6624041795730591
1782816166686719700,9.6647197265625,0.9272279739379883,0.954788088798523,0.05058129504323006
1782816166706801700,9.6848017578125,1.008833408355713,-0.29342788457870483,-0.08934438973665237
1782816166726883600,9.704883544921875,0.7635091543197632,-0.1613122969865799,0.19794967770576477
1782816166746965800,9.7249658203125,0.6266845464706421,0.5626093745231628,0.42981547117233276
1782816166767047700,9.745047607421874,0.5451781153678894,0.8323372006416321,0.17789050936698914
1782816166787129600,9.765129638671874,0.4102301597595215,0.44485169649124146,-0.391062468290329
1782816166807211500,9.78521142578125,0.3614172041416168,0.0252339206635952,-1.0055022239685059
1782816166827293700,9.805293701171875,0.3820585310459137,0.20881439745426178,-1.3182340860366821
1782816166847375600,9.825375732421875,0.4878120720386505,0.7890866994857788,-1.1633548736572266
1782816166867457500,9.84545751953125,0.44777747988700867,0.6964965462684631,-0.8658586740493774
1782816166887539700,9.865539794921874,0.21794350445270538,0.5323362946510315,-0.510424017906189
1782816166907621600,9.88562158203125,0.1848219484090805,0.7658249139785767,-0.1858280450105667
1782816166927703600,9.90570361328125,0.2455483376979828,0.7606632709503174,0.04385298490524292
1782816166947784700,9.92578466796875,0.30098605155944824,0.23977437615394592,0.053200092166662216
1782816166967866600,9.94586669921875,0.33762067556381226,-0.17086179554462433,0.02117185853421688
1782816166987948500,9.965948486328125,0.289288729429245,-0.2407490462064743,0.02548302710056305
1782816167008030700,9.98603076171875,0.20302137732505798,-0.04666085168719292,0.07144773006439209
1782816167028112600,10.006112548828124,0.20929312705993652,0.031264908611774445,0.11405198276042938
1782816167048194600,10.026194580078124,0.26777487993240356,0.1262994110584259,0.17261873185634613
1782816167068276700,10.04627685546875,0.27486684918403625,-0.00521986186504364,0.10692846029996872
1782816167088358700,10.066358642578125,0.20888091623783112,-0.10868534445762634,0.021312467753887177
1782816167108440600,10.086440673828125,0.10291697829961777,-0.17605040967464447,-0.02272189036011696
1782816167128522800,10.106522705078126,0.0643988698720932,-0.04564458504319191,-0.020735742524266243
1782816167148604400,10.1266044921875,0.1136053279042244,0.13252173364162445,-0.08576173335313797
1782816167168686300,10.146686279296874,0.1662224531173706,0.217860147356987,-0.1673336774110794
1782816167188768500,10.1667685546875,0.18231701850891113,0.17077793180942535,-0.18262706696987152
1782816167208850400,10.186850341796875,0.1515810787677765,-0.029818344861268997,-0.10006920248270035
1782816167228932400,10.206932373046875,0.09072435647249222,-0.1464032679796219,-0.032052505761384964
1782816167249014300,10.22701416015625,0.021621908992528915,-0.12055819481611252,0.00570257194340229
1782816167269096400,10.247096435546876,0.017085948958992958,-0.10093953460454941,0.0947469100356102
1782816167289177300,10.26717724609375,0.07166512310504913,-0.049839090555906296,0.17044395208358765
1782816167309259500,10.287259521484375,0.14304232597351074,0.02733866311609745,0.11722926050424576
1782816167329341400,10.307341552734375,0.1841035783290863,0.11963920295238495,0.00969400629401207
1782816167349423400,10.32742333984375,0.1927187740802765,0.06503703445196152,-0.028735041618347168
1782816167369505300,10.34750537109375,0.18690457940101624,0.0751548483967781,0.02735363133251667
1782816167389587500,10.36758740234375,0.1486838459968567,0.06228841468691826,0.0733669325709343
1782816167409669400,10.38766943359375,0.09397672116756439,0.07614222168922424,0.0859307125210762
1782816167429751300,10.407751220703124,0.021582266315817833,0.027613168582320213,0.10411880165338516
1782816167449833500,10.42783349609375,-0.003982560709118843,0.022354409098625183,0.17648473381996155
1782816167469915400,10.447915283203125,0.022635336965322495,0.037335656583309174,0.20145255327224731
1782816167489997300,10.467997314453125,0.07051774859428406,-0.0015383779536932707,0.09293276071548462
1782816167510079500,10.48807958984375,0.10356968641281128,-0.10393920540809631,-0.004697523079812527
1782816167530161400,10.508161376953124,0.10086473077535629,-0.06977681815624237,0.004358692094683647
1782816167550243300,10.528243408203124,0.07620549201965332,-0.009512369520962238,0.008313626982271671
1782816167570325200,10.5483251953125,0.056412942707538605,0.032178133726119995,-0.050171203911304474
1782816167590407400,10.568407470703125,0.05268014594912529,0.0727006196975708,-0.1175859197974205
1782816167610489300,10.5884892578125,0.08306215703487396,0.23349067568778992,-0.0947691947221756
1782816167630571300,10.6085712890625,0.15899667143821716,0.8477725982666016,0.024739746004343033
1782816167650652400,10.62865234375,-0.09686054289340973,1.5573503971099854,0.270691841840744
1782816167670734300,10.648734375,-0.1859768182039261,0.5356570482254028,0.2935740649700165
1782816167690816500,10.66881640625,-0.10893424600362778,-0.3253431022167206,0.4105123281478882
1782816167710898400,10.6888984375,-0.007619661744683981,-0.6342031359672546,0.43145644664764404
1782816167730980400,10.70898046875,-0.0447891503572464,-0.6869460940361023,0.40579739212989807
