time,seconds_elapsed,z,y,x
1782816109828634600,0.062634521484375,0.34592999118864537,-0.42935470885038374,-0.37250637488178906
1782816109848716800,0.082716796875,0.2913894227057695,-0.44584056422710416,-0.35049043097198007
1782816109868798700,0.102798828125,0.24367490085065363,-0.14472908119112252,-0.3704180973656475
1782816109888880600,0.122880615234375,0.4001514107197523,-0.278866918002069,-0.39508097558766603
1782816109908962800,0.142962890625,0.698062344148755,-0.7745601851567625,-0.4450522999262437
1782816109929046000,0.1630458984375,0.45260757414400576,-0.6534118860393762,-0.4274900474896654
1782816109949128000,0.1831279296875,0.21675942139625548,-0.16718875028043984,-0.15213544845748692
1782816109969209900,0.2032099609375,0.21216157221198081,0.17011442846879363,0.2855216266509145
1782816109989292000,0.2232919921875,0.14253390923440457,0.01674172983393073,0.5039817144852131
1782816110009374000,0.2433740234375,-0.047721536117792125,-0.13484160116612912,0.26086079425550995
1782816110029457000,0.263456787109375,0.09298749577701092,0.06825315975397825,-0.06045768357217311
1782816110049538800,0.283538818359375,0.3751274441003799,-0.37136399991363284,0.2182258406870067
1782816110069620700,0.303620849609375,0.9138602270364761,-0.7557157839551567,0.36972142033837735
1782816110089702700,0.32370263671875,1.3298013275623322,-0.18377514342218637,-0.39465807400047775
1782816110109784600,0.34378466796875,1.9500754986315965,-0.5429232203632592,0.16978022807836532
1782816110129866500,0.363866455078125,2.8220494715750215,-0.2194970296666026,0.5332971677534282
1782816110149949700,0.38394970703125,2.8611732752174137,-0.0680091218650341,1.0104319379758089
1782816110170031900,0.404031982421875,2.2506682184904814,0.1666220563083887,0.7960764359161258
1782816110190113800,0.42411376953125,0.5263379962652921,-0.11472352676689625,0.4306155225664377
1782816110210195700,0.44419580078125,-0.9747779293358325,-0.14912015575692056,-0.18564152181595564
1782816110230278000,0.46427783203125,-0.6944388929545879,0.6465697650596499,-1.268539634130895
1782816110250360800,0.48436083984375,0.9966706121921539,1.1292613656915724,-1.6039624059610067
1782816110270442800,0.50444287109375,0.5101140066951513,0.2798015685036778,-0.12939312650188803
1782816110290524700,0.524524658203125,0.04158697888553142,0.5826840067349374,-0.015033501143939792
1782816110310606600,0.544606689453125,-0.0579179359614849,0.5573195561148226,0.17998663785941899
1782816110330688800,0.564688720703125,-0.611058014434576,0.7420726046584546,-0.1308557190008927
1782816110350771700,0.584771728515625,-1.0394757346957921,0.9164107883021235,0.15223901842981577
1782816110370853600,0.604853515625,-1.0296592740803956,0.9365237481348216,0.8143218483112752
1782816110390935600,0.624935546875,-0.4142892416656017,0.8459482088703661,1.3997512082315982
1782816110411017700,0.645017822265625,0.16579554235637187,0.7452706700474023,1.5755357912912964
1782816110431099600,0.665099609375,0.5486240623533726,0.2166265887968242,1.5442258762702346
1782816110451181600,0.685181640625,0.7980997584372759,-0.43093401393108066,1.1240139665573834
1782816110471264500,0.705264404296875,1.7094658305704593,-0.8304588902503252,0.7831663931995629
1782816110491346700,0.7253466796875,1.5846014335393905,-0.9537382100470364,0.11690876185148953
1782816110511428600,0.7454287109375,0.814890149718523,-0.558024306850694,-0.06865816035829483
1782816110531510500,0.765510498046875,0.31465982365608214,0.180299247472547,0.11220131481289863
1782816110551592700,0.7855927734375,0.7372083596229553,0.5226408953130245,-0.9733115100450813
1782816110571676000,0.805676025390625,2.6737591907709835,0.43388270766884085,-1.3159386602960526
1782816110591757800,0.8257578125,4.266543346244097,0.020208529161661864,-0.3959999901287257
1782816110611839700,0.84583984375,4.5648973472654815,-0.3378498528465628,0.4030476436179131
1782816110631921700,0.865921630859375,2.685903217551112,-0.7166559854596852,0.9590352935418486
1782816110652003800,0.88600390625,-0.9515928685814141,-0.4974395263001322,0.8086122384928166
1782816110672085800,0.906085693359375,-6.5815288463443515,-0.5449133712671697,0.4742079595228657
1782816110692168700,0.926168701171875,-11.317426318871973,-0.29871582007110115,-0.9949747680597006
1782816110712250600,0.946250732421875,-13.40663147125244,-0.2587995508767664,-1.3320603585354982
1782816110732332800,0.966332763671875,-11.020369956445693,-0.19739011953771113,-0.25333354055583474
1782816110752414700,0.986414794921875,-8.839343429458141,-3.320163828396797,3.104863958159089
1782816110772496600,1.00649658203125,-3.825894505441189,1.641927979478985,6.508128679090738
1782816110792579600,1.02657958984375,-9.096369394791125,-1.0482856486171483,-1.0083439527206122
1782816110812661800,1.046661865234375,-5.442473377999663,-2.1451612867496905,-3.552286238619685
1782816110832743700,1.06674365234375,-3.3431840539783235,-1.4264935230761766,-2.6935601620450615
1782816110852825600,1.08682568359375,0.7496388021290302,0.28142120559476314,-1.905527331852913
1782816110872907500,1.106907470703125,3.485921376830339,0.14570636525806038,-0.27601262454949316
1782816110892989700,1.12698974609375,4.1465146988064046,0.9733644823413342,-0.8712484351478517
1782816110913072600,1.14707275390625,3.0823984438508747,0.41630693816356357,-0.4184626548927277
1782816110933154600,1.167154541015625,2.7230302944183347,-0.68187430267483,0.3232923351839185
1782816110953236500,1.187236572265625,2.9870652617305518,-1.2673764355704187,0.24432430467009542
1782816110973318700,1.207318603515625,3.6963182774573564,-1.3140838262096046,-0.9744184483736753
1782816110993400600,1.227400634765625,5.002642867842316,-0.8800677014194428,-1.9016903840385375
1782816111013482500,1.247482421875,5.986420680713653,-0.8897861815530806,-1.5668213005684315
1782816111033565700,1.267565673828125,6.547081217819452,-0.8717132761806249,-1.1217306779257952
1782816111053648000,1.28764794921875,7.393145673480629,-0.5066830093331635,-1.2219089619897305
1782816111073729800,1.307729736328125,8.184731519979238,0.08526060958569869,-1.6727540565058587
1782816111093812000,1.32781201171875,7.830963674771786,0.6286738236892968,-1.5293435105673967
1782816111113894000,1.347893798828125,6.751856771433353,1.2438324783757329,-1.1612633546300233
1782816111133977000,1.36797705078125,5.733219242104887,2.06644562356174,-1.1617547914087771
1782816111154059300,1.388059326171875,4.977492059972882,2.9560780027925966,-1.192409603521973
1782816111174141200,1.40814111328125,4.074221616011858,3.2294343406796453,-0.9305904125630855
1782816111194223000,1.42822314453125,2.785191859298944,2.4222461436405776,-0.8319904837317764
1782816111214305300,1.44830517578125,0.13088672606050966,0.051577553958818315,0.6007252748601138
1782816111234387200,1.46838720703125,-3.4868706403791903,-1.5218717133820057,1.1243259551160036
1782816111254470100,1.48847021484375,-7.294462011888623,-1.5035744246691465,1.8566817601412533
1782816111274552000,1.508552001953125,-8.050247061687708,-1.5473407934203742,3.2457992000252007
1782816111294634000,1.528634033203125,-8.165902316346765,-3.1769360916793343,4.778218026384711
1782816111314716200,1.548716064453125,-10.575650505203008,-1.8946900037571788,4.0255508163452145
1782816111334798000,1.568798095703125,-13.07783089404106,-1.4483496733143926,2.5183649231806395
1782816111354880000,1.5888798828125,-16.49765921176076,-1.4575084006734191,2.0714462083280085
1782816111374963000,1.608962890625,-14.478703069126604,-1.135410097579658,1.1586465962603687
1782816111395045000,1.629045166015625,-6.373407489433884,-2.4159514274105427,0.5965814530536532
1782816111415127000,1.649126953125,0.91476682048738,-3.1124139351472255,-0.6856376007311046
1782816111435209000,1.669208984375,2.619794376349449,-2.9259418077260255,-0.5471199414007365
1782816111455291100,1.689291015625,1.7789385952472685,-0.39692755330242213,-0.2633251750750467
1782816111475373000,1.709373046875,2.0099924994558096,1.0222047202907503,0.6056185267943889
1782816111495456000,1.7294560546875,3.337858475041389,1.6171721622765063,0.8777740375243127
1782816111515538000,1.749537841796875,5.801286231637,1.7164175494045018,0.6039876376569271
1782816111535620000,1.7696201171875,8.00438138256967,1.7098337871000169,0.5430409284587949
1782816111555702300,1.789702392578125,9.097912532579898,1.6364567084610462,1.689750345622748
1782816111575784200,1.8097841796875,9.301034473767876,2.2611583405837417,2.3017460792988538
1782816111595866000,1.8298662109375,8.661856280264258,2.623237502540648,2.282694757348299
1782816111615949000,1.849948974609375,7.839386050680279,2.558655432514846,1.7253678947098552
1782816111636031200,1.87003125,7.2993076983541245,2.4530296966999767,1.0607989471010864
1782816111656113200,1.890113037109375,7.15649380313456,2.3115523107811806,1.0016133292913436
1782816111676195000,1.910195068359375,6.9593503518342965,2.672525849583745,1.1433335109900682
1782816111696277200,1.93027734375,6.621006870251894,2.8288419081941245,0.981196271945536
1782816111716359200,1.950359130859375,5.982412029594182,2.2887734927400945,0.7540306073471903
1782816111736442000,1.970442138671875,5.034216986757516,2.161026087618619,1.5343410265937447
1782816111756524000,1.99052392578125,-1.1631816093415022,1.7072196590788662,2.928666848775744
1782816111776606200,2.010606201171875,-7.064007827138901,-0.5678282367780805,0.7955844876807182
1782816111796688100,2.030688232421875,-10.49675758575201,-3.3138463158130644,-1.1553663324806838
1782816111816770000,2.05077001953125,-13.082946629619597,-1.954630385456979,-2.9464918438017365
1782816111836852000,2.07085205078125,-13.213517129337786,-1.6659321015313266,-3.1266371062889693
1782816111856935000,2.090934814453125,-10.83529045242667,-2.9293709053918717,-2.3887357959657907
1782816111877017000,2.11101708984375,-11.14991871190071,-1.944140994016081,-3.4882296537727115
1782816111897099000,2.13109912109375,-12.433898199486732,-1.0092114562701433,-2.4795097073465584
1782816111917181000,2.151180908203125,-10.391312174940108,-0.22932510765455663,-1.1780509694322943
1782816111937263000,2.17126318359375,-4.675255664560199,-0.18042312958054244,-0.4324661188691854
1782816111957345000,2.191344970703125,0.9084761959105729,-0.8570728294748813,-0.4885477062489837
1782816111977428200,2.21142822265625,3.241055804890394,-1.808829144989699,-0.39868499142900105
1782816111997510100,2.23151025390625,3.651129474687576,-2.8909727856755256,-0.21466763674877581
1782816112017592000,2.251592041015625,3.1651948004812,-3.32967955249995,0.35489589938931165
1782816112037674200,2.27167431640625,2.6501825003504753,-2.5548539944052693,0.9578656652405857
1782816112057756200,2.291756103515625,3.473188151985407,-1.8445660826727748,1.413854260125011
1782816112077838000,2.311838134765625,5.4450084494352335,-1.1538685682035983,1.4847168717250228
1782816112097920000,2.331919921875,7.676272294753789,-1.4400783963143824,2.082620513293147
1782816112118003200,2.352003173828125,9.806055541238187,-1.472054958550632,2.0844516742430628
1782816112138085000,2.372085205078125,7.8536308491319415,-0.723074035808444,1.1809334660660475
1782816112158167000,2.3921669921875,5.7026300425738095,-0.08973097819909454,0.06604494108601938
1782816112178249200,2.412249267578125,5.505389560639858,0.25548945821439845,-0.3146758614754304
1782816112198331100,2.4323310546875,5.906608308330178,0.7424290899459273,0.15005031274650246
1782816112218413000,2.4524130859375,5.466252312994003,1.6186435500033198,0.26496801037862894
1782816112238496000,2.47249609375,4.470221167749166,2.256496486252546,0.25727811346314844
1782816112258578200,2.492578125,2.3319074088066816,2.7535423370599745,-0.027591917411237954
1782816112278660000,2.51266015625,-0.5188549470335245,3.7238334763705727,0.1073573819130659
1782816112298742000,2.532741943359375,-1.4721937824994324,4.878657883994281,-0.43164194300472736
1782816112318824000,2.552823974609375,-4.195970511370897,0.6763759975194931,0.9690401163361966
1782816112338906000,2.572906005859375,-12.722069829189776,0.8689718685179948,-0.5917690843358635
1782816112358988000,2.592988037109375,-15.443373445945976,1.9022237602628767,-1.6837052202396094
1782816112379071000,2.613071044921875,-10.96062246696949,-1.7546018802396952,0.4305104547567665
1782816112399153000,2.63315283203125,-9.153830234634876,-4.94284452496171,1.0532188672356306
1782816112419235000,2.653235107421875,-10.389917505711317,-5.428630730608106,0.8129789092697203
1782816112439317000,2.67331689453125,-9.939960738337039,-4.848291679564118,2.0512726043492555
1782816112459399000,2.69339892578125,-8.10285344723761,-2.169279536700994,3.0539184915587305
1782816112479481000,2.713481201171875,-2.9150480732679367,-1.0773734306093306,2.3980343701869247
1782816112499564300,2.733564208984375,1.5274147344619036,-1.5842337692707775,0.7890970253575593
1782816112519646200,2.753646240234375,1.051499934488535,-1.5274673414319753,0.0837567352282349
1782816112539728100,2.77372802734375,0.06710837363302707,-0.42080830470342184,0.868422271811217
1782816112559810000,2.79381005859375,0.20121406174004078,0.13399605372007936,1.8291595469653605
1782816112579892200,2.813892333984375,2.186713340452313,0.8376457330144941,1.7459183691769837
1782816112599974100,2.83397412109375,4.90998211980164,0.6427871777810156,1.0705432192631066
1782816112620056000,2.85405615234375,8.299830894321202,0.031102482815459367,0.3585215425405651
1782816112640138200,2.87413818359375,9.593494156053662,-0.7253843585774302,-0.49440753819309174
1782816112660221200,2.89422119140625,9.263550838547944,-0.6569436403620987,-0.6887864932160824
1782816112680303000,2.91430322265625,8.187728363707661,0.047603901087492705,-0.5650687820021063
1782816112700385000,2.934385009765625,7.255445175752043,1.073988975802809,-0.2668025323294103
1782816112720467200,2.95446728515625,7.070781266796589,2.111129399418831,-0.1808541414089501
1782816112740549000,2.974549072265625,7.031700133252143,2.3965065760977566,-0.28780951839238406
1782816112760631000,2.994631103515625,7.684062217977643,2.2824977734714746,-0.8130249403685331
1782816112780714000,3.0147138671875,6.699090811407566,1.840061464729905,-1.2827335791781544
1782816112800796000,3.0347958984375,4.811704116401076,2.6695050404578446,-0.9492490088690072
1782816112820878000,3.054878173828125,2.7367969539642334,3.1978748348116874,-0.3776542591642588
1782816112840960000,3.0749599609375,1.3512164560347795,0.1069590302452445,-1.4632847921177743
1782816112861042000,3.0950419921875,-7.526377501362561,-2.6420482937335965,1.3149715688295662
1782816112881124000,3.1151240234375,-12.191979786914587,-0.6551693972311914,2.1755631470151244
1782816112901206000,3.1352060546875,-12.98991646374464,-0.3908801628969609,0.11805924706086515
1782816112921288000,3.155287841796875,-9.382131040742992,-1.7075310631155967,0.7909428724199533
1782816112941371000,3.175370849609375,-6.863252030560374,-4.985172677603364,4.425925514426827
1782816112961453000,3.195453125,-7.1742878185003995,-4.589053298878669,6.34743542830944
1782816112981535000,3.215534912109375,-7.100863101327419,-1.6770466391332446,4.4029003204092385
1782816113001617000,3.235616943359375,-6.710493079909682,-1.4766528077349066,2.734597105832398
1782816113021699000,3.255698974609375,-5.4397465833842755,-0.757967508404702,0.9953126217119395
1782816113041781000,3.275781005859375,-1.887041242569685,-1.0267854722097516,-1.982695327207446
1782816113061863000,3.29586279296875,2.133331878876686,-1.2610551235944032,-3.5042560749441383
1782816113081946000,3.315946044921875,4.470861803740263,-1.5629939973652363,-3.6571865827694534
1782816113102027800,3.33602783203125,4.469899680709839,-0.8973213262982666,-1.918345750763267
1782816113122110000,3.35610986328125,0.8150023779213428,0.8611550572872161,0.40476942590922116
1782816113142191900,3.37619189453125,-1.0843494801670313,1.6966325063519179,1.2118393303308634
1782816113162273800,3.396273681640625,0.9121417326807976,1.964092771937698,0.5370242254525422
1782816113182356000,3.41635595703125,4.097868449059129,0.8177460506062955,0.1852930371718481
1782816113202438000,3.43643798828125,6.5400751384496685,-0.15524536063894628,-0.0896386785394512
1782816113222520800,3.456520751953125,8.069651434859633,-0.4912785194523632,0.10694916643835603
1782816113242602800,3.476602783203125,9.142107063615322,-0.16365447520706802,-0.10122673367094248
1782816113262685000,3.496684814453125,8.01333508887589,-0.04170896129738539,-0.08956606996096671
1782816113282766800,3.516766845703125,7.432196411886811,0.8160546634532511,-0.07489550211159512
1782816113302848800,3.536848876953125,7.220230069985985,1.7099213192529976,0.4430651081643998
1782816113322930700,3.5569306640625,7.013660034170746,2.346343930438161,0.7324449446134269
1782816113343012900,3.577012939453125,6.504989796543121,2.4297657254904506,0.28820973322372884
1782816113363095000,3.597094970703125,5.268235585990547,1.7855495378196238,-0.09610599312372504
1782816113383178000,3.617177978515625,2.3824399106919762,1.0624269866943359,0.2685425078645348
1782816113403260000,3.637260009765625,-1.5943910061478614,-0.4909384007778018,0.22139482611194253
1782816113423342000,3.657342041015625,-5.0455859375119205,-2.2776045946024355,0.8019276461623609
1782816113443424000,3.677424072265625,-7.9388588168233625,-3.133711282458901,3.7927708189964293
1782816113463506000,3.697505859375,-12.939510803109407,-1.282506492424011,5.85175560515821
1782816113483588000,3.717588134765625,-15.699441964423656,-0.3249358280746266,5.163299293744564
1782816113503670000,3.737669921875,-14.90285085698366,-2.1182376239888367,3.415439435110986
1782816113523752000,3.757751953125,-11.019656839740275,-2.4116069684654473,2.345722291408479
1782816113543835000,3.7778349609375,-6.392148430261016,-2.209897232162952,1.9957588069200514
1782816113563916800,3.797916748046875,-5.011608849108219,-0.892562002941966,1.7021902866095304
1782816113583999000,3.8179990234375,-3.284290550982952,1.2042366733074188,0.34962358500957486
1782816113604081000,3.838080810546875,-0.561862898632884,1.5391034186899661,-1.7241864298403262
1782816113624162800,3.858162841796875,1.0040881949722766,0.3797335496563464,-3.3061326726958153
1782816113644245000,3.878244873046875,-0.0887228240698576,0.48888081066086886,-3.186132082308829
1782816113664327000,3.898326904296875,-0.4676157581835985,1.3908942402981221,-2.071544115744531
1782816113684408800,3.918408935546875,0.5359048660337925,1.3619956242024898,-0.7948093385897577
1782816113704491800,3.93849169921875,2.148613619160652,0.9027098874688148,-0.05245543277189135
1782816113724574000,3.958573974609375,3.729216922974586,0.5409629531409591,0.13708930702768266
1782816113744656000,3.97865576171875,4.828310967808962,-0.09156780170481651,0.3024385303886607
1782816113764737800,3.99873779296875,6.248034558358788,0.08417268648482859,0.6893659736044705
1782816113784820000,4.018820068359375,7.808692221730947,-0.11953571282159536,0.14572171809081919
1782816113804902000,4.03890185546875,9.185029675018788,-0.16213252633679656,-0.20521500447709112
1782816113824983800,4.05898388671875,9.662218148189783,0.1295577333459165,-0.5299477842602879
1782816113845065700,4.079065673828125,8.521682670420407,-0.29596122413333503,-1.0453655233867465
1782816113865149000,4.09914892578125,7.291048404052853,-0.24522074205316602,-1.4425461016021668
1782816113885231000,4.119231201171875,7.273183077016473,1.7387269963681697,-2.326267064832151
1782816113905313000,4.13931298828125,6.672154289165139,2.69901813519001,-2.432137715318799
1782816113925395000,4.15939501953125,5.774322236865759,1.8596318421185016,-2.171273779258132
1782816113945477000,4.17947705078125,5.814096028849482,0.7570267934884876,-2.2074808186709878
1782816113965559000,4.19955908203125,5.668659968432784,-1.5644230072550476,-1.581993296867609
1782816113985641000,4.219640869140625,-0.16177870793044566,-2.688038476014137,0.7854100804731249
1782816114005723000,4.239722900390625,-5.55952739354074,-2.2710085573382672,1.827761662866175
1782816114025805800,4.259805908203125,-8.662387026140093,-1.2640880615495145,2.7283988357141613
1782816114045888000,4.279887939453125,-10.046278255808353,-2.19400262067765,3.9211613443270323
1782816114065970000,4.299969970703125,-9.672447281259299,-2.485637250316143,3.9283039095580574
1782816114086051800,4.3200517578125,-12.456024691098929,-0.8095705621309578,3.9133506705760954
1782816114106134500,4.340134521484375,-13.440288241660594,1.4875933039441704,2.3149787780985234
1782816114126216700,4.360216796875,-10.335673874348402,3.1535935022756454,1.5258002850025891
1782816114146298600,4.380298583984375,-6.328782165765762,3.5999598439425227,2.101103095445037
1782816114166380500,4.400380615234375,-2.5200474694401023,2.4157637958839535,2.506658995556831
1782816114186462700,4.420462646484375,-0.29661563292145726,0.20363500527665018,2.1449127188161015
1782816114206546000,4.4405458984375,0.4747872572481632,-1.795396393573284,2.0176478365145623
1782816114226627800,4.4606279296875,-0.31142917117178437,-2.443843935203552,1.695594541606307
1782816114246709800,4.480709716796875,-1.8606559244692324,-2.163474211423099,1.1349015635356305
1782816114266792000,4.5007919921875,-1.9869974083155393,-2.034037099649012,0.6936749228447675
1782816114286873900,4.520873779296875,0.43294951847195623,-1.7357541180372238,0.5545137049138545
1782816114306955800,4.540955810546875,3.505379526016116,-1.6342252961471675,0.03711019879765808
1782816114327037700,4.56103759765625,6.157759244149923,-1.4606731483146547,-0.35043344008773564
1782816114347119900,4.581119873046875,7.986864430579542,-2.030695388005674,-0.15433292196914553
1782816114367201800,4.601201904296875,8.013978647476435,-2.1472852931663393,-0.21894319517612457
1782816114387284700,4.62128466796875,7.2844392150461665,-1.12302714747712,-0.7862829177848994
1782816114407366700,4.64136669921875,6.7703574737638235,-0.1060099128268659,-0.7943677323020994
1782816114427448800,4.66144873046875,6.25390666526258,0.6846362416688352,-0.5136135392487049
1782816114447530800,4.68153076171875,6.45413288500905,1.8743397280372678,-1.1811327149651945
1782816114467612700,4.70161279296875,6.074775255993008,2.5516513989716767,-1.438484697382152
1782816114487694800,4.72169482421875,4.819102409958839,2.7156381383404136,-0.6098022422198206
1782816114507776800,4.74177685546875,2.7500679389476774,3.018383360058069,-0.04198997019585222
1782816114527858700,4.761858642578125,-1.6007973660588264,2.591821496796608,-0.39565373397432263
1782816114547940600,4.781940673828125,-5.910193765601515,1.5280493791036307,0.09475764725469052
1782816114568023800,4.80202392578125,-5.891540503057837,0.1220250819519162,1.2163712016068398
1782816114588105700,4.822105712890625,-1.400188868996501,-2.5506857688099145,3.941740314236283
1782816114608187600,4.842187744140625,-2.245642499282956,-5.129330388647317,1.3285112877517937
1782816114628269600,4.86226953125,-9.033577715313434,-3.9262966613888737,-2.815264049218595
1782816114648351700,4.882351806640625,-10.541942296868562,-2.4249518954679368,-3.2648835474625226
1782816114668433700,4.90243359375,-8.467862817427516,-1.4579156663000583,-1.779693505267799
1782816114688515600,4.922515625,-4.56072386097312,0.5592131878416985,-0.22713081248067318
1782816114708597800,4.94259765625,-0.31342589794695375,1.2069094727132468,-0.6283006795279681
1782816114728679700,4.9626796875,1.5840058057337998,-0.8308431403275579,-1.939613725849986
1782816114748761600,4.98276171875,-0.09005553397834301,-1.9338522397138178,-1.755039541004598
1782816114768844500,5.002844482421875,-2.124735899966955,-1.6334186559394002,-1.818434739333391
1782816114788926700,5.0229267578125,-3.2204730355888604,-1.2203764917254447,-1.7892643205590546
1782816114809009000,5.0430087890625,-2.837243533575535,-1.0351661278683693,-1.270418725875765
1782816114829090800,5.0630908203125,-0.8139303647756576,-0.6914033977162093,-0.12197685889601707
1782816114849172700,5.0831728515625,2.135312239038944,-0.26612229498028755,0.7857024875484406
1782816114869255000,5.1032548828125,4.834398178768158,0.13113522092886268,0.9631314768142998
1782816114889336800,5.1233369140625,6.782320298758148,0.6645671940430998,1.2108411130737513
1782816114909418800,5.143418701171875,7.884746702885627,0.503157173294574,0.9553769171647727
1782816114929501000,5.1635009765625,9.120579122418164,0.7494213599860667,0.48093909440878774
1782816114949584000,5.183583984375,9.24929201157093,0.8469239220347256,-0.28852869951240717
1782816114969665800,5.203665771484375,8.408365503320097,0.5030324509363621,-0.49997269803956146
1782816114989747700,5.223747802734375,7.338141579139232,0.7296088444046676,-0.6881136354558169
1782816115009829600,5.24382958984375,5.802824108728766,1.39408266107589,-0.8370308159865438
1782816115029911800,5.263911865234375,3.7198920452684163,1.6513707844763994,-0.537398757853359
1782816115049993700,5.28399365234375,0.6858908448398113,1.6579036933764815,1.0103908022478223
1782816115070075600,5.30407568359375,-5.582552295297384,1.9220495737172663,1.4396911505624652
1782816115090157800,5.32415771484375,-8.025290315085648,0.6563919247634709,0.7614493591710925
1782816115110239200,5.3442392578125,-8.554681269180774,-3.0803660612404347,0.6351712959498167
1782816115130321200,5.364321044921875,-12.36743221541047,-2.4652476654991506,1.2271728738673031
1782816115150403300,5.3844033203125,-15.99841205151677,-2.5505346699014306,3.073496467731893
1782816115170485200,5.4044853515625,-15.009385816597938,-2.6442083943769332,2.7013316728293892
1782816115190567200,5.424567138671875,-11.105207463514803,-2.664495103341341,1.4278960833504795
1782816115210649300,5.4446494140625,-5.924684647768736,-3.1154002574816344,0.988180724005401
1782816115230732300,5.464732177734375,-1.9505133055269717,-2.490875443230569,-0.43017917697578667
1782816115250814200,5.484814208984375,-0.6657862144440412,-0.3329545185530558,-1.3295384388424456
1782816115270896000,5.504896240234375,1.2219774971812962,0.7704894285865127,-1.4632453368902205
1782816115290978300,5.524978271484375,3.2293682897061107,0.30105902219638225,-1.050735818248242
1782816115311060200,5.545060302734375,3.4708757833898067,-0.1296871410124004,-0.07649550292044878
1782816115331142100,5.56514208984375,2.205972167673707,-0.7592595940418541,0.7415031342074274
1782816115351224000,5.58522412109375,1.8785761965632437,-0.5145245166137814,1.6495868236690758
1782816115371306200,5.60530615234375,3.038839288109541,-0.2178444401539862,1.665649777458608
1782816115391388200,5.62538818359375,5.356061753481626,-0.30285438118055463,1.09485370385088
1782816115411470000,5.645469970703125,7.397635386115312,-1.1746861691743136,0.6982625428959727
1782816115431553000,5.665552978515625,8.067653539040684,-2.33900613489598,0.044709458287619054
1782816115451635200,5.68563525390625,7.79083741608858,-2.0100195335932076,0.015003160804603248
1782816115471717000,5.705717041015625,7.339481303310394,-1.3684525452569127,-0.25022742776665835
1782816115491799000,5.725799072265625,7.798013591328263,-0.8962594692204147,-0.25853443366717543
1782816115511881200,5.745881103515625,8.876593255922197,0.21347976040476932,-0.050560768998553975
1782816115531963100,5.765963134765625,9.089427612829208,1.1677931217249482,0.9302867534413933
1782816115552045000,5.786045166015625,8.66442759205699,1.454175018467009,0.5993512100279331
1782816115572127000,5.806126953125,7.027965622898936,0.6960746774628758,0.1639345707900822
1782816115592210200,5.826210205078125,5.896231875744462,1.1577408795922994,-0.3656951239643618
1782816115612292400,5.846292236328125,3.2065561539173126,0.7008307859487831,-0.6102190063271671
1782816115632374300,5.866374267578125,-6.774016580793261,-1.0767112403735517,0.17579773480221628
1782816115652456200,5.886456298828125,-16.082944438159466,0.09358706910535693,-1.1145610054921358
1782816115672538400,5.906538330078125,-21.270943288874626,2.7772078748077154,-0.9070689594611525
1782816115692620300,5.926620361328125,-19.076000464737415,0.27396398492399604,1.571331763730198
1782816115712702200,5.9467021484375,-17.18897909591198,-0.5937603312183171,0.6264678380776196
1782816115732784400,5.966784423828125,-15.669882692462204,-0.7524377121325582,-0.3024984804149717
1782816115752866300,5.9868662109375,-13.466792802226543,-0.8131346843533217,-0.39118060714825986
1782816115772948200,6.0069482421875,-8.721908890166878,-0.8151406904134899,-0.8587301682278513
1782816115793031200,6.02703125,-1.4421797525078057,-1.588048651383817,-1.8792796686574815
1782816115813113000,6.047113037109375,4.15407665849328,-2.618302676486969,-2.247793539837003
1782816115833195300,6.0671953125,5.196967170068621,-2.9335096126317977,-1.4815760894812642
1782816115853277200,6.087277099609375,3.8680753585666414,-2.306422400546819,-0.5100387860344723
1782816115873359000,6.107359130859375,3.6964421960979696,-1.7441396690666675,-0.061541131427325306
1782816115893441300,6.127441162109375,4.560523369964957,-0.5861564320858568,0.0287128842651844
1782816115913523200,6.147523193359375,5.880193179613351,0.019840426501631734,0.2776121321680024
1782816115933605000,6.167605224609375,6.628309886741638,-0.46279980926923453,0.7789328472830355
1782816115953687300,6.187687255859375,7.032940488702058,-0.8757822791852057,1.241202714394033
1782816115973770200,6.207770263671875,6.219121767607331,-1.023192708414793,1.9365489314518867
1782816115993852200,6.22785205078125,4.882208562213182,-0.3859280934475362,1.8367048477783798
1782816116013934000,6.24793408203125,3.7907694160461425,0.2751246810001321,1.8385298712484537
1782816116034016300,6.268016357421875,3.621784137737751,0.7695937949210405,1.7586219295360146
1782816116054098200,6.28809814453125,4.647666815888881,1.5111898681089282,1.1101862244740128
1782816116074180000,6.30818017578125,4.203336656224727,1.7531329767309127,0.7647552688486874
1782816116094262000,6.328261962890625,2.9358716655880213,2.283177280168235,0.4033176561983302
1782816116114344200,6.34834423828125,0.8534095577269792,2.758524801647663,0.36737777982167896
1782816116134426000,6.368426025390625,-2.6543425426393745,3.7520892645180224,0.3059576809581369
1782816116154508000,6.388508056640625,-3.2639643867909904,2.540494629663229,0.5387037029720843
1782816116174591000,6.408591064453125,-2.902835072904825,-1.0317986241966486,1.4848422516703605
1782816116194673200,6.428673095703125,-6.138634856963157,-0.5391214899927378,0.7255337039202451
1782816116214755000,6.448755126953125,-10.909804133880138,-0.18594751902520656,0.5941315026182681
1782816116234837000,6.4688369140625,-11.572598180770873,-1.0207599283099174,0.7015664067469537
1782816116254919200,6.488919189453125,-11.909373974645137,-1.3973942698419093,0.5346702096723019
1782816116275001000,6.5090009765625,-9.228660142430662,-1.0226403352290392,0.4394631016170606
1782816116295083000,6.5290830078125,-4.66079926918447,-1.281522157561779,-0.004185980447754264
1782816116315165000,6.5491650390625,-1.596805081552267,-1.0174541647627948,0.48226033307518806
1782816116335247000,6.5692470703125,1.730156736421585,-0.11265753414779901,0.6363396821420639
1782816116355329000,6.5893291015625,4.974086635443568,0.3203729406058788,0.5002078950349241
1782816116375412000,6.609411865234375,6.492821804365516,-0.12265227393954992,-0.6803656516775488
1782816116395494000,6.629493896484375,6.972056104150414,-1.0275292763143777,-2.1199190012045204
1782816116415576000,6.649576171875,5.350820930218696,-1.992645058813691,-3.1037121577754614
1782816116435658000,6.669657958984375,2.8355191940009594,-1.7772747536882758,-1.9960776636108755
1782816116455740200,6.689740234375,2.5751526860684155,-0.45338666875772177,-0.37936581232249733
1782816116475822300,6.709822265625,4.467072932851314,0.2948687161888927,0.4640402743170038
1782816116495904300,6.729904296875,6.797056680119037,0.20686386766266077,0.7866437139213085
1782816116515986200,6.749986083984375,8.032177736511827,-1.0257281451765448,0.32195838316641745
1782816116536068000,6.770068115234375,7.668434440734982,-1.5319835036821663,-0.3506918718282133
1782816116556150300,6.790150390625,6.142530110836029,-1.0133907147161663,-0.9154631321884691
1782816116576232200,6.810232177734375,5.516048901820183,0.1679527203902602,-0.5457650927256793
1782816116596315100,6.830315185546875,5.460621029108762,1.2235700270697474,-0.6565130669251084
1782816116616397000,6.85039697265625,5.727999461629986,1.4233746604032813,-0.6432979768473654
1782816116636479200,6.870479248046875,4.946064656051993,0.8933775571085512,-0.4537359205868095
1782816116656561200,6.89056103515625,3.44716523745656,0.4202230156287551,-0.18566044571213422
1782816116676643000,6.91064306640625,0.011204700103402137,0.856709914446622,0.1056770276106894
1782816116696725200,6.930725341796875,-6.569981031891703,0.06189633807316422,-0.2343949582647532
1782816116716807200,6.95080712890625,-10.200106881517172,0.26948081162795423,-0.5481889588717371
1782816116736889000,6.97088916015625,-12.796430365908146,0.8965230155274272,-0.2861170352607965
1782816116756971000,6.990970947265625,-13.834699062901734,0.3342822234928608,1.2909611631669102
1782816116777053200,7.01105322265625,-13.062862457489967,-0.2633460351999849,1.3809502077803015
1782816116797135000,7.031135009765625,-11.143189695906639,-0.647057767772302,0.40992359380200505
1782816116817218000,7.051218017578125,-8.549014913982152,-1.5081867407701908,-0.2267320224214345
1782816116837300000,7.071300048828125,-7.202721301302313,-0.5981826411725953,0.1676077063448727
1782816116857382100,7.091382080078125,-4.6986412163227795,0.7075387591548263,0.8333517621476203
1782816116877464000,7.111464111328125,-1.430528477680683,0.2513624596785754,0.7865330931536852
1782816116897546000,7.1315458984375,0.7146750407755375,-1.5048402068212627,1.0361397221408783
1782816116917628200,7.151628173828125,1.5178250683397054,-2.0173533836126327,1.0991627261564134
1782816116937710000,7.1717099609375,1.4223369879186152,-2.0144136768989265,1.3396777016714214
1782816116957792000,7.1917919921875,1.8918407518059015,-1.5214273306153714,1.5016086775541304
1782816116977874000,7.2118740234375,3.0776433582782743,-1.1181824839249253,1.1294929824903606
1782816116997956000,7.2319560546875,4.628470532509684,-1.4944725420638918,0.8626299521453679
1782816117018038000,7.2520380859375,6.604848347133398,-1.8800116361938415,0.2392670212805271
1782816117038121000,7.272120849609375,8.344628651946783,-2.5388380946278573,-0.6528738336399197
1782816117058203000,7.292202880859375,8.77054403399825,-2.838414038659632,-1.314086748819053
1782816117078285000,7.31228515625,8.130512438535689,-2.574434016405046,-1.7562680598862468
1782816117098367200,7.3323671875,6.8588032344579695,-2.0783761537216603,-2.268665209082514
1782816117118448600,7.35244873046875,6.021275720995664,-1.0909925714433193,-1.911131143209338
1782816117138530800,7.37253076171875,5.249626747110486,-0.3762278796229511,-1.229811990199238
1782816117158612700,7.39261279296875,4.892985976815224,-0.4732493070911616,-1.106782991901785
1782816117178694700,7.412694580078125,4.371943164348602,-1.1114474035162478,0.11122048708200453
1782816117198776800,7.43277685546875,1.863577364873886,-1.4135269278667866,2.300084137436002
1782816117218858800,7.452858642578125,-1.6491460941642522,2.431800153927505,1.9242568745031952
1782816117238940700,7.472940673828125,-8.796493883290886,4.470263837847114,0.7670384844150394
1782816117259023600,7.493023681640625,-14.168837494009733,3.0028485217958685,3.6120454185336826
1782816117279105500,7.51310546875,-8.680318988671898,3.874455122731626,2.47419172719419
1782816117299187700,7.533187744140625,-10.99590888440609,2.7563758069202304,0.025723392726154995
1782816117319269600,7.55326953125,-12.744521314972639,3.158349172370136,-1.8392508789993822
1782816117339351600,7.5733515625,-10.502137525224684,2.689845817697048,-2.846989267042279
1782816117359433700,7.593433837890625,-6.318190629124641,1.7824664771124719,-4.598739411112666
1782816117379515600,7.613515625,-6.655417089375853,1.0220964376106858,-3.268548207449913
1782816117399597600,7.63359765625,-3.628199265477061,0.7787759031556546,-2.6761463781684633
1782816117419679700,7.6536796875,0.20236673890650272,0.8957073882956057,-1.6046322680465877
1782816117439761700,7.67376171875,3.5890187632113695,0.5211416331985965,-0.8108996187776326
1782816117459843600,7.693843505859375,4.940238141855597,0.5415198929039761,-1.0079757039301096
1782816117479926800,7.7139267578125,5.723340237647295,0.9167056065302341,-0.8637646552637219
1782816117500008700,7.7340087890625,5.622742266866564,1.7533324448257683,-0.7466122939147055
1782816117520091000,7.7540908203125,6.323175431799888,1.933796564003825,-0.6308240605257451
1782816117540172800,7.7741728515625,6.9434987027078865,1.908195674279332,-0.693476477663219
1782816117560254700,7.794254638671875,7.045827442803978,1.366012458628416,-1.4015988819248975
1782816117580337000,7.8143369140625,6.111235977905988,0.814101337428391,-1.6605208901375532
1782816117600418800,7.834418701171875,4.103166555467248,0.3023743425786495,-0.5634494371719658
1782816117620500700,7.854500732421875,2.230095970582962,-0.12426730792075395,0.4843949704837054
1782816117640583000,7.8745830078125,0.9492886832922697,-1.2219243056893347,1.0966237822633236
1782816117660664800,7.894664794921875,0.81644380890131,-1.610091264104843,0.6718990713011473
1782816117680746800,7.914746826171875,1.38696756837368,-1.4543646958202123,-0.8864700427424163
1782816117700828700,7.93482861328125,1.0081097055733204,-1.2143716983526944,-0.9466982284076512
1782816117720911600,7.95491162109375,-3.0893805578231808,0.8574228850215673,0.044618473802227526
1782816117740993800,7.974993896484375,-7.921772657465934,3.2006177037790415,0.4107375405333936
1782816117761075700,7.99507568359375,-6.696887748405337,3.436537168197334,0.26200653022453185
1782816117781157600,8.01515771484375,-1.4279881455481052,1.6408298089787363,-0.3939786038363352
1782816117801239800,8.03523974609375,2.4449527732282874,-0.029742227312922476,-0.7730987343020737
1782816117821321700,8.05532177734375,3.6002754857629538,-1.04246381059587,-0.3981398882342502
1782816117841403600,8.075403564453126,3.05872121566534,-1.6499106487959623,0.9319560018278658
1782816117861485800,8.09548583984375,3.0640228292047977,-1.526800401955843,1.175520135780424
1782816117881567700,8.115567626953125,2.7316227661967276,-1.6191054684266446,0.9924935457032174
1782816117901649700,8.135649658203125,1.4442466219097374,-1.0508797567635775,0.38424350136145946
1782816117921731600,8.155731689453125,-0.5652028567105531,-0.3642416006878018,-0.1981446642320603
1782816117941814800,8.175814697265626,-2.015448426774144,0.24010902506262063,-0.4044045381195843
1782816117961896700,8.195896728515624,-2.3679952057540414,0.5194570045799016,-0.1998397777121514
1782816117981978600,8.215978515625,-1.1231558884233235,0.37578736931383605,0.17996153995078057
1782816118002060500,8.236060546875,0.1030915411621332,-0.049210021109879015,0.3133666055077687
1782816118022142700,8.256142822265625,0.8889303684413432,-0.45810967869162555,0.08890767911747098
1782816118042224600,8.276224609375,1.452351017910242,-0.5860591822564601,0.3116031394992024
1782816118062306600,8.296306640625,1.3063812890082598,-0.3680617434978485,0.5307871576938777
1782816118082388700,8.316388671875,0.34909809983074663,-0.11842442711144685,0.42603228642940516
1782816118102471000,8.336470947265624,-0.21907354355752467,-0.2213987716346979,0.2823748530577868
1782816118122552800,8.356552734375,0.11682663652598857,-0.5238496865808964,0.33564025050569324
1782816118142636000,8.376635986328125,0.5564940650761128,-0.7690329461678862,0.42098665694501247
1782816118162718000,8.396718017578126,0.19676234302818774,-0.7841402066677808,0.4761500700339675
1782816118182800100,8.416800048828126,-0.6032096390217543,-0.4566416519656777,0.3240694935688749
1782816118202882000,8.436882080078124,-1.0637029979795216,-0.20834873592555522,0.3139562054313719
1782816118222964000,8.4569638671875,-0.8620721721321344,-0.015542144785821436,0.5474768650796265
1782816118243046100,8.477046142578125,-0.5220370842009783,0.05601765529811382,0.7736055147804319
1782816118263128000,8.497128173828125,-0.34199440530538555,0.09063684099763632,0.9300569632735103
1782816118283210000,8.5172099609375,0.09924187999665736,-0.0975577263019979,0.8340447128478438
1782816118303292200,8.537292236328126,0.4451671950101852,-0.26839886161014437,0.7026871544051915
1782816118323374000,8.5573740234375,0.6108171914160251,-0.4046468224428594,0.43337351603768764
1782816118343456000,8.5774560546875,0.35624329541027544,-0.3215336549483239,0.2911341327704489
1782816118363539000,8.5975390625,0.060683309021592136,-0.16312530023381114,0.13371040517911315
1782816118383620900,8.617620849609375,0.22979250597059725,-0.18058453068733216,0.024153576993010937
1782816118403703000,8.637703125,0.37753567428588863,-0.28134777503237124,-0.02295189131936058
1782816118423785000,8.657784912109374,0.6242647020101547,-0.46451486955881116,-0.05330326350657269
1782816118443867000,8.677866943359374,0.6932312707304954,-0.5881542548395693,-0.03353311662902124
1782816118463949000,8.697948974609375,0.8495704179555177,-0.6351832786485553,-0.12132069654222577
1782816118484031000,8.718031005859375,0.6658458356767892,-0.5656105607286095,-0.06702438514400273
1782816118504113000,8.73811279296875,-0.16722060672342776,-0.07529153395816683,-0.03379005281544523
1782816118524195000,8.758195068359376,-0.4711579608350992,0.37755262542068957,0.10648570451191626
1782816118544277000,8.778277099609374,0.08940729920268058,0.45248833167850966,0.3706421884451061
1782816118564360000,8.79835986328125,0.5746721113234758,0.08498612175956367,0.4828628290129825
1782816118584441900,8.81844189453125,0.09546586858928204,-0.1991748109973967,0.4627287898596376
1782816118604523800,8.838523681640625,-0.4422416629523039,-0.3186163061968982,0.27337624816391615
1782816118624606000,8.85860595703125,-0.7747644755572081,-0.2070915754713118,0.3396006055040285
1782816118644688000,8.87868798828125,-1.2434960860282183,0.036625849346816536,0.3012343970295973
1782816118664769800,8.898769775390624,-1.3332096747010946,0.1365035430289805,0.30473679739367215
1782816118684852000,8.91885205078125,-1.145585746896267,-0.0709910602852702,0.12338018635530024
1782816118704934000,8.938933837890625,-0.6105179162085056,-0.2961011075280607,-0.10294106330815703
1782816118725015800,8.959015869140625,-0.22566636595129966,-0.43772272422313685,-0.23202002756064757
1782816118745098000,8.979097900390625,-0.12286357860267162,-0.5149227221511304,-0.27097298641446976
1782816118765181200,8.99918115234375,-0.32483225810229777,-0.43020124267712234,-0.25782034884737803
1782816118785263000,9.01926318359375,-0.3028758623600006,-0.31070874794274567,-0.30885617887862027
1782816118805345000,9.039344970703125,-0.07494213599860668,-0.21319486078247427,-0.6216575151864439
1782816118825427000,9.059427001953125,0.6573837122797965,-0.08748261475041508,-0.658943070551008
1782816118845509000,9.079509033203125,1.3945289435386656,0.21682693367451428,-0.36380499936882404
1782816118865591000,9.099591064453126,2.191986896941066,0.44517084827199577,-0.3266439106341451
1782816118885673000,9.1196728515625,2.771449165150523,0.6243795605614781,-0.44543764598201957
1782816118905755100,9.139755126953125,2.9920021336108444,0.8041577433019876,-0.5391279197335243
1782816118925837000,9.159837158203125,3.1560370960354804,1.08996556648314,-0.4599839846635237
1782816118945919000,9.1799189453125,3.9467841536223887,0.9880565131038427,-0.5518508789127692
1782816118966002000,9.200001953125,4.789539046344161,0.30027912386506794,-0.38521702256873247
1782816118986084000,9.220083984375,3.1066712998419996,-0.26443010410964485,-0.0015903653308283537
1782816119006166000,9.240166015625,-0.8772352544724941,-1.189539747174084,0.4053801782187074
1782816119026248000,9.260248046875,-6.873887406343221,-2.224422601121664,1.0634024075977504
1782816119046329900,9.280329833984375,-13.19264151456952,-1.5577739246293902,1.2852698196575045
1782816119066412000,9.300412109375,-14.949562339276074,-0.705088005001843,0.2475882749021053
1782816119086494000,9.320493896484376,-10.81291144735813,-2.20223590375483,0.45443493570163845
1782816119106576000,9.340575927734376,-8.715734000924229,-3.205308784204721,0.9389748676139861
1782816119126658000,9.360657958984374,-6.608553046870231,-4.474630216363072,1.7028158711619674
1782816119146740000,9.380739990234375,-6.309795141223073,-3.20197291778028,1.7794192183710633
1782816119166822000,9.40082177734375,-8.285895307949184,0.11175254813209175,0.9294629429031163
1782816119186904000,9.420904052734375,-6.510577825808524,1.5940256799668073,0.23933687164634465
1782816119206987000,9.440987060546876,-2.4528029022067783,1.1425929948210716,-0.9664147362686694
1782816119227069000,9.46106884765625,1.2724883717566728,0.7392372351020574,-1.258720543166995
1782816119247150800,9.48115087890625,3.415842462953925,0.735666390877962,-0.28231764297783374
1782816119267232800,9.501232666015625,5.400577187034488,1.4015765239626168,0.6210428173542022
1782816119287315000,9.52131494140625,6.99576781912744,1.5898118616640566,1.7487278736397622
1782816119307396900,9.54139697265625,7.7353551828414195,1.6938462366342544,1.8545787965126335
1782816119327478800,9.561478759765626,7.679332851368188,1.8781378051459787,1.5436916232630609
1782816119347561000,9.58156103515625,7.027296345335245,1.835956367498636,1.4180290615916251
1782816119367643000,9.601642822265624,6.453956943920255,1.996492381891608,1.6330920543335377
1782816119387724800,9.621724853515625,8.086065394043922,2.6950126989409324,0.7470366568066179
1782816119407807700,9.641807861328125,8.797937067836523,2.827636624057591,0.36174393865317106
1782816119427890000,9.661889892578126,8.339369708505272,3.276187324026227,0.7924920015580952
1782816119447971800,9.681971923828126,7.5134315105497835,3.7898666219875214,1.0261393563259393
1782816119468053800,9.7020537109375,7.926478643199801,4.0064360737696285,1.1012743114829062
1782816119488136000,9.722135986328125,7.4811834378957744,2.886372598403692,2.1828692322447893
1782816119508217900,9.7422177734375,3.9665684660226104,1.5322677274510264,3.0095220082104204
1782816119528301000,9.762301025390625,1.0972715055823326,0.7685290882989764,1.890012075074017
1782816119548383000,9.782383056640626,-1.6434177796453238,-0.24008739775270221,0.5859630284056068
1782816119568465000,9.80246484375,-4.624627301084995,-0.37513708871155976,0.4858404931169003
1782816119588547000,9.822547119140625,-3.495938912975788,-1.2499781415238975,0.350464419747889
1782816119608629000,9.84262890625,-5.703239114382863,-0.9835875509962438,-0.8896679620008915
1782816119628711000,9.8627109375,-9.137090112236141,-0.48731180777847766,-2.736025385069847
1782816119648793000,9.88279296875,-10.352971046108006,0.4975909174695611,-4.645018931728601
1782816119668875000,9.902875,-9.101896049258112,0.15881620486304163,-3.3950337759420273
1782816119688957000,9.92295703125,-5.207925201934576,-0.4939017075628042,-1.4639851954720913
1782816119709039900,9.943039794921875,-2.1389257533609864,-1.0710848518591374,0.07011573875546455
1782816119729122000,9.9631220703125,-0.2627607095927,-1.2658156159944831,0.7678716473035514
1782816119749204000,9.983203857421875,0.4440793997734785,-1.6336398974746464,0.7358886553265154
1782816119769286000,10.003285888671876,-0.05318330865502357,-1.1631571324873715,0.2796399482011795
1782816119789367800,10.023367919921874,-0.4124333846658468,-0.7845122548505663,0.3077635613363236
1782816119809450000,10.043449951171874,0.11358721621334553,-0.5685886266913265,0.38871984305791557
1782816119829532000,10.063531982421875,0.22645605502426622,-0.4706057337798178,0.4753097832849249
1782816119849613800,10.08361376953125,-0.2705903803050518,-0.4777154196545481,0.20639117211699484
1782816119869696000,10.103696044921875,-0.598241787481308,-0.6725364924218505,-0.15264336144700646
1782816119889779000,10.123779052734376,-0.3669412150353193,-0.8164238620918244,-0.3444809614241123
1782816119909860900,10.14386083984375,-0.030161329507827756,-0.8602081318259238,-0.22710969662740826
1782816119929942800,10.16394287109375,-0.4064952267885208,-0.5538985686901956,-0.041384332452900706
1782816119950025000,10.18402490234375,-0.5889104800343513,-0.08643668589405715,0.11679499927870929
1782816119970107000,10.20410693359375,-0.7313397598505019,0.2511371995553374,0.6573860503673553
1782816119990188800,10.224188720703125,-1.8333260189950464,0.7956671975281089,0.6008562077634036
1782816120010270700,10.244270751953126,-2.286928449395299,0.9848201615311205,0.00969933704175055
1782816120030353000,10.264352783203124,-0.9449515308707952,0.3496664743032306,-0.968512073874101
1782816120050434800,10.284434814453125,0.8524924428820609,-0.1389575851175934,-1.0821205520711838
1782816120070518000,10.30451806640625,2.1988953611552713,0.054130599442496895,0.45640492060035465
1782816120090600000,10.324599853515625,2.212602399468422,0.49034708382114767,0.5761359002657235
1782816120110682000,10.34468212890625,2.2702228137880565,0.12271920169591903,0.2764503583796322
1782816120130764000,10.364763916015624,1.9991098709136246,-0.18028620532788336,-0.45835203608013686
