time,seconds_elapsed,z,y,x
1782813964497258000,0.067258056640625,0.05132920522093773,-0.006128109225165099,0.01565448258649558
1782813964517340000,0.08733984375,0.030462942802906033,-0.010371646812744438,0.01268405194096267
1782813964537421800,0.107421875,-0.11950842295587062,0.008228990494553,0.02387910743318498
1782813964557504000,0.12750390625,0.054962593287229536,-0.013616017295140772,0.005289484710246324
1782813964577586000,0.1475859375,-0.06816285112202167,-0.003945139162894338,0.0187809805765748
1782813964597667800,0.167667724609375,-0.016727262917160986,0.011337824963778257,0.00965944342277944
1782813964617750000,0.18775,0.010232640200853347,-0.012558361468371004,0.01081120727378875
1782813964637832000,0.20783203125,-0.06204641406834125,0.011280066894553601,0.013452150236628949
1782813964657913900,0.227913818359375,0.003022562691569328,-0.01284673168938607,0.011676153540052473
1782813964677996000,0.24799609375,-0.031515082204341884,0.003248042010515928,0.017495543875917792
1782813964698078000,0.268077880859375,-0.033336452412605286,0.011981694091577082,0.01055993592645973
1782813964718160000,0.288159912109375,0.017541501909494397,-0.01580768212052062,0.012219210908189415
1782813964738241800,0.30824169921875,-0.04065934264659881,0.0000795680422335863,0.008611870598606765
1782813964758324000,0.328323974609375,-0.0053583121627569195,0.008203910852223634,0.008806077996455133
1782813964778406000,0.348406005859375,-0.016414543706178664,-0.005564063867926597,0.011384367519244551
1782813964798487800,0.36848779296875,-0.04889408702850342,0.015991349858045577,0.00829589998461306
1782813964818570000,0.388570068359375,-0.00341243879199028,-0.009472542548552156,0.015472550148330627
1782813964838652000,0.40865185546875,-0.04081950164437294,0.002834821567125618,0.0072353215483948585
1782813964858733800,0.42873388671875,-0.0296060337126255,0.0006219495569355785,0.027224070479534564
1782813964878816000,0.44881591796875,-0.007004325804114342,0.006017232729215174,0.022714155307039616
1782813964898898000,0.46889794921875,-0.02585691031217575,0.0073420333258807655,-0.002100479410588741
1782813964918979800,0.488979736328125,-0.004017418947815895,0.0102174791643396,0.011532689948752521
1782813964939061800,0.509061767578125,-0.02271802776455879,-0.002970850770641118,0.005489975718408823
1782813964959144000,0.52914404296875,-0.015835867035388945,-0.002301938533131033,0.018810243203677236
1782813964979225900,0.549225830078125,-0.014479191729426383,0.005308828731533139,0.0167469174657017
1782813964999307800,0.569307861328125,-0.042611645758152,0.005255034451372921,0.01001614790596068
1782813965019389000,0.589388916015625,-0.007149871754646301,-0.0026475188340991736,-0.001952668437734246
1782813965039470300,0.60947021484375,-0.010588614031672477,0.01592615740103647,0.007699431928806007
1782813965059552500,0.629552490234375,-0.03498597318530083,0.006741601481009274,0.013078933010064065
1782813965079634400,0.649634521484375,-0.026010055047273634,-0.009511230591125786,0.01545636619850993
1782813965099716400,0.66971630859375,-0.0035609073519706725,0.006228062468301505,0.015559936170838772
1782813965119798500,0.689798583984375,-0.02390928337574005,-0.005393712269701064,0.0038274128010496494
1782813965139880400,0.70988037109375,-0.028104981499910354,0.008166738913301379,0.010828815995715557
1782813965159962400,0.72996240234375,-0.013739187017083166,-0.0007050612631253897,0.012099603116512299
1782813965180044300,0.750044189453125,-0.007006079369783401,0.008792396530974656,0.009972491427324712
1782813965200126500,0.77012646484375,-0.037084991291165346,0.00538227756023407,0.011512450878322124
1782813965220208400,0.79020849609375,-0.02286532728075981,0.009582067337632179,0.0021892536725848914
1782813965240290300,0.810290283203125,-0.04112403754889965,-0.0037856925511732696,0.0078072762174531815
1782813965260372500,0.83037255859375,-0.0049181671798229215,0.00517462615892291,0.009872172858007252
1782813965280454400,0.850454345703125,0.004964344409108161,-0.010097524312790483,0.02833436980899423
1782813965300536300,0.870536376953125,-0.035140286964178084,0.01572544719716534,0.007769501490332186
1782813965320618500,0.890618408203125,-0.02436754853725433,0.008501633423473685,0.014484890817850827
1782813965340700400,0.910700439453125,-0.030498598638176916,0.009734170893114059,0.014427059683389962
1782813965360782300,0.9307822265625,-0.010150807136297225,-0.017034611833281813,0.01621105702333152
1782813965380864300,0.9508642578125,-0.025558219626545906,0.016256101741455493,0.02157696797065437
1782813965400946400,0.970946533203125,-0.025862755531072614,-0.00013858648678287863,0.010980134099908173
1782813965421028400,0.9910283203125,-0.005807224974036216,0.003359977952390909,0.015751330557093022
1782813965441110300,1.0111103515625,-0.022862989193201063,0.004699482927843928,0.016915077106840908
1782813965461192400,1.0311923828125,-0.00999766240119934,0.007351586605515331,0.010378734140656888
1782813965481274400,1.0512744140625,-0.0430693263977766,0.0039055012722499665,0.011476612379960715
1782813965501356300,1.071356201171875,-0.018536358165740965,-0.001656863828934729,0.02345368509534746
1782813965521438500,1.0914384765625,-0.007602291697263717,0.007813450229912996,0.00889996682498604
1782813965541520400,1.111520263671875,-0.028256957191228865,-0.001996270117443055,0.014290427691675722
1782813965561602300,1.131602294921875,-0.005966799449920654,-0.004160024022590369,0.014386033553257583
1782813965581684200,1.151684326171875,-0.0333446357190609,0.011061309577338398,0.009889014394953847
1782813965601766400,1.171766357421875,-0.028715806874632835,0.008274802397657184,0.009830635271221399
1782813965621848300,1.191848388671875,0.0062970543175935745,-0.006294606632180511,0.013588489967398344
1782813965641930200,1.21193017578125,-0.015991349858045577,0.002085574102401733,0.017776552774384616
1782813965662011400,1.232011474609375,-0.04816927988529205,0.0004611147057265043,0.00866794816739857
1782813965682093300,1.25209326171875,-0.014206220006942749,-0.0009279832988046109,0.019824936671555042
1782813965702175500,1.272175537109375,-0.012250409764051437,0.009882182795368134,0.011468209877796471
1782813965722257400,1.29225732421875,-0.03723988959193229,-0.00473824403565377,0.014529899003356694
1782813965742339300,1.31233935546875,-0.018981763845682145,0.002941916937101632,0.011228154044225811
1782813965762421200,1.332421142578125,-0.018081600135564802,-0.005696165814995766,0.015405622391961514
1782813965782503400,1.35250341796875,-0.009704816934466362,-0.002575092918705195,0.011774755076318979
1782813965802585300,1.37258544921875,-0.04022738097012043,-0.009463610323425381,0.011611965730041265
1782813965822667300,1.392667236328125,-0.030803719064593314,0.014810396445170043,0.006011113515682518
1782813965842749400,1.41274951171875,-0.0010234978288412094,-0.003747369834780693,0.0022580080598592757
1782813965862831400,1.432831298828125,-0.021228081467747687,0.008442085255961865,0.00381681834179908
1782813965882913300,1.452913330078125,-0.016290040543675423,0.0010020349157042802,0.006328070510365069
1782813965902995500,1.472995361328125,-0.03393324926197529,0.013754019260033964,0.007354965872690081
1782813965923077400,1.493077392578125,-0.038276831424236296,0.0022070267912931737,0.000676547554694116
1782813965943159300,1.5131591796875,0.009009820407629012,0.003549929300229996,0.014040873377397655
1782813965963241200,1.5332412109375,-0.034978374400734896,0.0029050737917423247,0.007668160007707774
1782813965983323400,1.553323486328125,-0.020472879186272618,-0.004445910025574267,0.006826156225614249
1782813966003405300,1.5734052734375,-0.01613105058968067,0.002515197691321373,0.0097881113037467
1782813966023487200,1.5934873046875,-0.03394260161221027,0.01316146019436419,0.008125183060206473
1782813966043570000,1.61356982421875,-0.009551672199368475,-0.005674447173532098,0.019424831438064574
1782813966063652000,1.633652099609375,-0.013586042281985282,0.004791746054869145,0.00542805293072015
1782813966083734000,1.653734130859375,-0.015237901142239569,0.010457918590400368,0.0031418416896834968
1782813966103816000,1.67381591796875,-0.02615793908536434,0.014633103649504481,0.007880414518900215
1782813966123898000,1.693898193359375,-0.024519524228572846,0.007528258346673101,0.014766484238207339
1782813966143980000,1.71397998046875,-0.019437106397747993,0.002460508362017572,0.013771116525307298
1782813966164061200,1.734061279296875,-0.027064532536268233,-0.005515091893356293,0.0016101386103779076
1782813966184143000,1.75414306640625,-0.02557283267378807,0.00838209869703278,0.006462035620957612
1782813966204225000,1.77422509765625,-0.01614332554936409,-0.005369107551407069,0.01257427142355591
1782813966224307000,1.794306884765625,-0.024974866780638694,-0.0005123699689283966,0.007441475112363696
1782813966244389000,1.81438916015625,-0.022431612038612363,0.00338003435973078,0.026967063511162993
1782813966264471000,1.834470947265625,-0.005824760630726814,0.002100625541061163,0.021688209792785344
1782813966284553000,1.854552978515625,-0.01823942104578018,0.004839841246604919,0.0039841377327218645
1782813966304635100,1.87463525390625,-0.01570142700076103,0.009847129748295992,0.017141871600039302
1782813966324717000,1.894717041015625,-0.018245266264677047,0.004450513135455548,0.014001710410788654
1782813966344799000,1.914799072265625,-0.03320668855309486,0.003997252942621708,0.013278949094191193
1782813966364881200,1.934881103515625,-0.037547932627797126,0.005749649567902088,0.007528020884655416
1782813966384963000,1.954963134765625,-0.0145002345174551,0.011669468070939182,0.029639789851754902
1782813966405045000,1.975044921875,-0.036495208704471586,0.005552501294296235,0.012973682537302375
1782813966425127000,1.995126953125,-0.03874795606732368,-0.0037124994507990775,0.016262933341041206
1782813966445209000,2.015208984375,-0.019741642302274702,0.0004031009081751108,0.01847947687935084
1782813966465291000,2.035291015625,-0.009120879566669463,0.011673340528458356,0.0013593056544661522
1782813966485373000,2.055373046875,-0.029473931765556335,0.012670790600590407,0.017137231957539915
1782813966505455000,2.075455078125,-0.029927520751953124,-0.0013686945373192429,0.022851591016352174
1782813966525537000,2.095537109375,-0.022595862689614294,-0.0012083528764545916,0.013497560280933976
1782813966545619000,2.115618896484375,-0.009427169036865234,0.011101404125709086,0.016084763762541116
1782813966565701000,2.135701171875,-0.024233693024516105,0.006828896171972155,0.008575812904536724
1782813966585783000,2.155782958984375,-0.05505845487713813,0.0007344334880821406,0.003588124152459204
1782813966605864000,2.175864013671875,0.009724106156826019,0.005292169857677072,0.009907646030187607
1782813966625946000,2.195946044921875,-0.011951719078421592,0.008213299735076725,0.014454824473150074
1782813966646028000,2.216028076171875,-0.0483282698392868,0.006909231399185955,0.007156959082558751
1782813966666110000,2.23610986328125,0.002097264540195465,0.002179316800460219,0.005326747980713844
1782813966686192000,2.256192138671875,-0.027528058394789695,-0.0023958273616619405,0.017716054758802054
1782813966706274000,2.276274169921875,-0.026189503267407415,0.008807868094742297,0.0003723039111122489
1782813966726356000,2.29635595703125,-0.01152092644572258,0.0024169980138540265,0.01917074707914144
1782813966746438100,2.316438232421875,-0.00748714088499546,0.012522395105846226,0.017788097081705926
1782813966766520000,2.33652001953125,-0.013766659545898436,-0.00586105578681454,0.0041563524944707745
1782813966786602000,2.35660205078125,-0.028282676154375075,0.005253536614030599,0.011251498387195169
1782813966806684000,2.376683837890625,-0.03277297331094742,0.007834840077813715,0.008622647720947861
1782813966826766000,2.39676611328125,-0.02004968533813953,0.0008821348630823194,0.0002231046987697482
1782813966846848000,2.416847900390625,-0.033362171375751495,0.015119699856359511,0.018450689176283775
1782813966866930000,2.436929931640625,-0.011671148571372032,-0.007382511466741562,0.014760602486692368
1782813966887012000,2.45701220703125,-0.01824818887412548,-0.002398603840637952,0.02192559874523431
1782813966907094000,2.477093994140625,-0.0447381363928318,0.0065178574614226815,0.014066263546980916
1782813966927176000,2.497176025390625,0.010016951623558997,0.002137724414747208,0.011297419888153672
1782813966947258000,2.517258056640625,-0.02093815861046314,0.004948032595124096,0.01268485565856099
1782813966967340000,2.537340087890625,-0.03650982175171375,-0.0012994834923185407,0.02108206059318036
1782813966987422000,2.557421875,-0.001637245813012123,0.003198138454183936,0.003217245013453066
1782813967007503000,2.577503173828125,-0.05116553909182548,-0.002016363057401031,0.008871800176426768
1782813967027585000,2.5975849609375,0.004638181194663048,0.00660365431504324,0.01183876022323966
1782813967047666700,2.617666748046875,-0.032602877441048624,0.011457323157601057,0.0021830796601250767
1782813967067748900,2.637748779296875,-0.020645897665619847,0.005030797241441906,0.01543630979117006
1782813967087830800,2.657830810546875,-0.014650456643104553,0.01113532466161996,0.021577771688252687
1782813967107912700,2.67791259765625,-0.037542087408900256,-0.00007399681797251106,0.01685183914490044
1782813967127995000,2.697994873046875,0.008099719825387,0.0038864129792898893,0.012246135447733104
1782813967148076800,2.718076904296875,-0.04411035988330841,0.0019563034332357346,0.020019107536785305
1782813967168158700,2.73815869140625,-0.03483984271287918,0.002859444551728666,0.019600443733297286
1782813967188240600,2.75824072265625,-0.010444821646809578,0.0057788025971502064,0.024262517260201275
1782813967208322800,2.77832275390625,-0.025111060380935666,0.0036638380034826694,0.010702741930633784
1782813967228404700,2.79840478515625,-0.020619594180583952,0.004588149774167686,0.006224244809709489
1782813967248486700,2.818486572265625,-0.027953005808591842,0.006861684196721762,0.01581584716066718
1782813967268568800,2.83856884765625,-0.009698971715569495,0.008992631810810416,0.013893610393814742
1782813967288650800,2.858650634765625,-0.024657471394538878,-0.0017860066339373587,0.016165025924518704
1782813967308732700,2.878732666015625,-0.040219197663664816,0.002554177994839847,0.008379851941019296
1782813967328814800,2.89881494140625,-0.017919687572121618,0.005920987546816468,0.015294197906740008
1782813967348896800,2.918896728515625,-0.020463526836037634,0.0078195511771366,0.022254282710328695
1782813967368978700,2.938978759765625,-0.009689034843444824,-0.010394936356786637,0.0011625409733504056
1782813967389059800,2.959059814453125,-0.020757541346549988,-0.0019706424858421086,0.0075907108573243015
1782813967409141800,2.979141845703125,-0.030033319213986394,0.013744867839198559,-0.0006572583323344588
1782813967429223700,2.9992236328125,-0.02360124033987522,0.0076287595790810875,0.012334032926894724
1782813967449305900,3.019305908203125,-0.03362988240122795,0.008657207577675581,0.01070818529073149
1782813967469387800,3.0393876953125,-0.022414660903811452,0.006581880874652415,0.017018062557280063
1782813967489469700,3.0594697265625,-0.01702244647145271,-0.017533117673639208,0.021955044035427272
1782813967509551900,3.0795517578125,-0.029143092375993728,0.00614418357713148,0.004735065697878599
1782813967529633800,3.0996337890625,-0.006405190867185592,-0.0002719670754857361,0.018543664689362048
1782813967549715700,3.1197158203125,0.0066261401414871215,0.012814564719144253,0.014506883453950285
1782813967569797600,3.139797607421875,-0.05951251167654991,0.015766875186096877,0.01648457673508674
1782813967589879800,3.1598798828125,0.016787468671798707,0.010688293280173093,-0.0011944339489564299
1782813967609961700,3.179961669921875,-0.003541618129611015,-0.004821465339697897,0.01290452629122883
1782813967630043600,3.200043701171875,-0.04919628484547138,0.006673431615624576,0.015894721083156763
1782813967650125800,3.220125732421875,-0.01267594169974327,0.008704553850740194,0.013667363889887927
1782813967670207700,3.240207763671875,-0.03377718191742897,0.02066812776373699,0.022070267912931738
1782813967690289700,3.26028955078125,-0.013876549661159514,-0.012229385242331772,0.0006282149009406566
1782813967710371800,3.280371826171875,-0.020305705925822256,0.01848307534223422,0.0067637950465083115
1782813967730453800,3.300453857421875,0.0009369885891675948,0.005415668373182416,0.020560740132816134
1782813967750534700,3.32053466796875,-0.01775660596489906,-0.004393394387047738,0.0006145882343873381
1782813967770616800,3.340616943359375,-0.028828619599342343,0.0077186298196204005,0.005828815751336515
1782813967790698800,3.36069873046875,-0.005180617508292198,0.00496419827863574,0.011169811453111468
1782813967810780700,3.38078076171875,-0.043186815297603605,0.004127783987112343,0.01911298900991678
1782813967830862800,3.40086279296875,-0.008625789526104927,-0.0005842296287417412,-0.006672974957898259
1782813967850944800,3.42094482421875,-0.028221301355957983,-0.0025789836425334214,0.010244586366973816
1782813967871026700,3.441026611328125,-0.01820142712295055,-0.007622001044731587,0.016225122081302105
1782813967891108900,3.46110888671875,-0.029871406650543213,-0.0032387809918262064,0.013601203318499028
1782813967911190800,3.481190673828125,-0.03720598732233047,0.005108246391825378,0.01878010379374027
1782813967931272700,3.501272705078125,-0.019392098212242127,0.003697009620722383,0.012323511532880365
1782813967951354600,3.521354736328125,-0.018486673805117607,0.0037177236151881513,0.007534706353768706
1782813967971436800,3.541436767578125,-0.011457798081636428,0.0010974033152684568,-0.007734978166222572
1782813967991518700,3.561518798828125,-0.02236731463074684,0.00842496972437948,0.013862448070570826
1782813968011600600,3.5816005859375,-0.031056817042827603,-0.004794632131699473,0.019171185470558703
1782813968031682800,3.601682861328125,-0.01384323191344738,-0.015361399657744914,0.011889504029788077
1782813968051764700,3.6217646484375,-0.04616963050067425,0.012301975554507225,0.011850596791505814
1782813968071846700,3.6418466796875,-0.015650573596358297,-0.000953866658732295,0.010154862256906927
1782813968091928800,3.6619287109375,-0.02207096203267574,0.01078285796213895,0.013301160925999284
1782813968112009500,3.682009521484375,-0.03599135083556175,0.008379870207328348,0.008397424130327999
1782813968132091600,3.702091552734375,-0.019224340429902075,-0.009721366210468112,0.016686565580591558
1782813968152173600,3.722173583984375,-0.035085341906547544,0.0016956614693626761,0.014558978967368602
1782813968172255700,3.742255859375,-0.014286884027719497,0.0048667840524576605,0.008195727545768023
1782813968192337700,3.762337646484375,-0.03523030333518982,0.005390022475272416,0.011492942460253834
1782813968212419800,3.782419921875,-0.0033656770408153533,0.016924191995058208,0.009916121597588062
1782813968232501800,3.802501708984375,-0.022660744619369507,-0.004664667342789471,0.0069885802457109085
1782813968252583700,3.822583740234375,-0.041220483660697936,-0.0013892806676216423,0.009736161920800804
1782813968272665900,3.842665771484375,-0.0011088380247354507,0.006208882843796164,0.010724040446989238
1782813968292747800,3.862747802734375,-0.019354104289412498,0.014640227510035037,0.014697985579259693
1782813968312829700,3.88282958984375,-0.029829321074485778,0.005566438488103449,0.02075344969332218
1782813968332911600,3.90291162109375,-0.010524316623806953,0.011495536276139319,0.01663154745772481
1782813968352993800,3.922993896484375,-0.021146832925081252,0.008619396317936479,0.002539090023562312
1782813968373075700,3.94307568359375,-0.014555764096975326,-0.003829476893972605,-0.006299355872534215
1782813968393157600,3.96315771484375,-0.03326397169828415,-0.01602243911605328,0.009166654937155544
1782813968413239800,3.98323974609375,0.006233925953507423,0.008138846259377896,0.006035078913159668
1782813968433320400,4.003320556640625,-0.02787467987537384,0.004334649937134236,0.021852460443787275
1782813968453402600,4.023402587890625,-0.0431435606777668,0.011766023780591784,0.011636954040825367
1782813968473484800,4.04348486328125,-0.023386720806360242,0.006218965846393257,0.004263429598137736
1782813968493566700,4.063566650390625,0.017760697618126868,0.006079082451667636,0.013732245819643139
1782813968513648600,4.083648681640625,-0.046424482044577595,-0.0009043101622723043,0.01124791819062084
1782813968533730800,4.103730712890625,-0.029977205112576483,-0.0027829635157249864,0.008380436462908984
1782813968553812700,4.123812744140625,0.0014525368958711623,0.01205046674516052,0.004524016763083637
1782813968573894700,4.143894775390625,-0.04179682224392891,0.008484590957127511,0.017954905015975235
1782813968593976800,4.163976806640625,-0.010972060391306876,-0.008905483250319958,0.007275945819728076
1782813968614058800,4.184058837890625,-0.022488310661911964,0.011107687736023216,0.00521053772252053
1782813968634140700,4.204140625,-0.009022095367312431,0.011218710362445563,0.01795885053873062
1782813968654222800,4.224222900390625,-0.022478958311676976,0.010797397944144903,0.009033822337724267
1782813968674304800,4.2443046875,-0.018449264404177664,0.002598108468111604,0.003511588317528367
1782813968694386700,4.26438671875,-0.0006388824254274368,0.0045141529561951756,0.014856354478746652
1782813968714468600,4.284468505859375,-0.030709026518464088,-0.006213632084149867,-0.0005053922388702631
1782813968734549500,4.304549560546875,-0.016501052945852277,0.012335439432691782,0.0035938597735017536
1782813968754631400,4.32463134765625,-0.02367138296663761,0.010583042807411402,0.01205331628937274
1782813968774713900,4.3447138671875,-0.017843115204572678,0.0015574951076880097,0.01512596520036459
1782813968794795800,4.364795654296875,-0.005869184294342994,-0.007719725798163562,0.011194982426986098
1782813968814877700,4.384877685546875,-0.027567221361398695,0.0162557912142016,0.010598258642852305
1782813968834960000,4.4049599609375,-0.008122516179084778,0.01260464829551056,-0.0010378186151385306
1782813968855041800,4.425041748046875,-0.00017827917635440825,0.020473262778762727,0.015096592975407839
1782813968875123700,4.445123779296875,-0.04432546393871307,0.015353947003651409,0.012004106852784751
1782813968895205600,4.46520556640625,-0.01754851617217064,0.00576404341943562,0.016206819239631295
1782813968915287800,4.485287841796875,-0.024423662638664245,0.006156549868360161,0.020664785029180347
1782813968935369700,4.50536962890625,-0.020377602118253707,0.00584640620695427,0.027709735104627906
1782813968955451600,4.52545166015625,-0.009596095862984657,-0.002269661965034902,0.005684767638146877
1782813968975533800,4.545533935546875,-0.03458382212519646,0.007544935486838221,0.0183981918040663
1782813968995615700,4.56561572265625,0.00656301177740097,0.006305091493576765,0.004663388701155781
1782813969015696600,4.585696533203125,-0.013781272593140602,0.006284633227437734,0.0025663798892870543
1782813969035778600,4.605778564453125,-0.03188742264807224,0.015882044264674187,0.0024054537065327166
1782813969055860500,4.625860595703125,-0.023063480201363562,-0.006891202552150934,0.01170388179719448
1782813969075942700,4.645942626953125,-0.020216274076700208,0.014302629586122929,0.009900814430601894
1782813969096024800,4.66602490234375,-0.04265782298743725,0.0034098997750319536,0.017419775225967167
1782813969116106800,4.686106689453125,-0.025896657800674436,0.006589479659218341,0.005168086820282042
1782813969136188700,4.706188720703125,-0.0027010756522417067,0.002942994649335742,0.013380984696559607
1782813969156270800,4.726270751953125,-0.007789338701963424,-0.008652841929811984,0.006408734531141817
1782813969176352800,4.746352783203125,-0.03397065866291523,-0.004033529832400381,0.00515727316532284
1782813969196434700,4.7664345703125,-0.027386604097485542,-0.012486994998902082,0.016131488981097935
1782813969216516600,4.7865166015625,-0.0009042553633451461,0.0076382032608613365,0.005958104686811566
1782813969236598800,4.806598876953125,-0.043853754773736,0.014299980971310288,0.004062536731176078
1782813969256680700,4.8266806640625,-0.01737023699581623,0.002016125595383346,-0.0014780366633087396
1782813969276762600,4.8467626953125,-0.006889759513735771,-0.005963310584891587,0.018864128815382717
1782813969296843500,4.866843505859375,-0.03068096946775913,-0.006377718338370323,0.01132872834187001
1782813969316925400,4.886925537109375,-0.02664718390703201,-0.007217183103505521,0.011397080870345234
1782813969337007600,4.907007568359375,0.001640168422460556,0.00964013593411073,0.013198467736504972
1782813969357089500,4.927089599609375,-0.0574649314969778,0.004211096622701734,0.008591010473668574
1782813969377171700,4.947171630859375,0.003573182311654091,0.0046871166366152465,0.004081606757827103
1782813969397253600,4.967253662109375,-0.01362403620481491,0.003113218383397907,0.01749459402784705
1782813969417335800,4.987335693359375,-0.030393969219923017,0.003713705027196556,0.009053696081973612
1782813969437417700,5.007417724609375,-0.01362929690182209,-0.0174260588362813,-0.005209295613504946
1782813969457499600,5.027499755859375,-0.03338146059811115,0.004921783909015357,0.006131634622812271
1782813969477581800,5.047581787109375,-0.009295651611685753,0.0071992638543248175,0.011434015347249806
1782813969497663700,5.067663818359375,-0.020656419059634206,0.0034489714100956917,0.0011028101427480578
1782813969517745700,5.08774560546875,-0.022308862441778182,0.00634509471040219,0.00402056075297296
1782813969537827800,5.107827880859375,-0.021252046865224836,-0.001943425685353577,0.00962466437034309
1782813969557908500,5.127908447265625,-0.03680675887167453,0.013615414506942033,0.011822503208182752
1782813969577990700,5.14799072265625,-0.021850012758374213,-0.017583149094134568,0.017476327718794343
1782813969598072600,5.168072509765625,-0.002838438296318054,0.011092983357235789,0.004435753957740963
1782813969618154500,5.188154541015625,-0.013166940087080001,0.00227815579874441,0.015108137282729148
1782813969638236400,5.208236328125,-0.008829787665605545,0.011412954292912036,0.0024582798723131417
1782813969658318600,5.228318603515625,-0.019601357048749924,-0.0012754815622232853,0.0005146715238690376
1782813969678400800,5.24840087890625,-0.013020809614658355,0.004821538404934108,0.01132555000409484
1782813969698482700,5.268482666015625,-0.014668576821684836,-0.0017350984306074679,0.001140913663432002
1782813969718564900,5.28856494140625,-0.01452419991493225,-0.00013204714814200996,0.013652568179555237
1782813969738646800,5.308646728515625,-0.0035948096215724945,0.005934047957789152,0.0114083329167217
1782813969758728700,5.328728759765625,-0.02079962692260742,0.008732556102517991,0.006487206594832241
1782813969779436500,5.3494365234375,-0.01017068088054657,-0.0054446204730309545,0.006652772420085966
1782813969799518500,5.3695185546875,-0.030676877814531326,-0.0027173326672986146,0.005318455076403916
1782813969819600600,5.3896005859375,-0.020804303097724915,-0.0020919673105701804,0.01982628837842494
1782813969839682600,5.4096826171875,-0.02633914087116718,-0.003743552176188677,0.01768631720766425
1782813969859764500,5.429764404296875,-0.021706804895401,0.017246336621511725,0.017705204571224747
1782813969879846700,5.4498466796875,-0.005542436558008194,-0.0021911716350354253,-0.0038564562324434515
1782813969899928600,5.469928466796875,-0.033521745851635934,0.019522866718750444,0.014885470975376664
1782813969920010500,5.490010498046875,-0.023803484913706777,-0.0008821348630823194,0.0031767303399741647
1782813969940092700,5.5100927734375,-0.0050993689656257625,0.007911759505234659,0.008299699376896024
1782813969960174600,5.530174560546875,-0.03263561066687107,0.00504636013675481,0.014386435412056742
1782813969980256500,5.550256591796875,-0.02485387074947357,0.005136540904548019,0.002296294243633747
1782813970000338400,5.57033837890625,-0.023660277050733564,-0.008125091728661209,0.017780680960230527
1782813970020420600,5.590420654296875,-0.020673954716324806,0.004218202216923236,0.003766987850703299
1782813970040501500,5.61050146484375,-0.011389993542432784,0.003730784026160836,0.017663922712765633
1782813970060584200,5.630584228515625,-0.02694879720211029,0.011679624138772486,0.0006308817820623516
1782813970080666400,5.650666259765625,-0.021415128472447396,0.014156352983228862,0.016529584920592606
1782813970100748300,5.670748291015625,-0.02470832479894161,0.004064052834827452,0.009790010999888181
1782813970120203300,5.690203369140625,-0.02695756503045559,0.007457403333857655,0.008675583484582602
1782813970140285200,5.71028515625,-0.021724340552091596,-0.004001746454648673,0.0014829320341348648
1782813970160367400,5.730367431640625,-0.02127192060947418,0.009598981939814984,0.004973587161488831
1782813970180449300,5.75044921875,-0.015587445232272148,0.005952296000532806,0.011652626533992587
1782813970200531200,5.77053125,-0.04654898520708084,-0.004027118357922882,-0.0011449322514235972
1782813970220613000,5.790613037109375,-0.018123685711622237,0.00107838808754459,-0.0017306597175076603
1782813970240695300,5.8106953125,-0.01048223104774952,0.002759473042283207,0.01587254578396678
1782813970260777200,5.830777099609375,-0.05058920050859451,0.0007496675898320972,0.002135696854442358
1782813970280859100,5.850859130859375,0.0065653498649597165,-0.0022135113310068843,0.016212518328055738
1782813970300941300,5.87094140625,-0.021402853512763977,0.007886077074706553,0.007178878653421998
1782813970321023200,5.891023193359375,-0.010789689561724661,0.00510205411305651,0.012981865843757986
1782813970341104400,5.9111044921875,-0.03756722185015678,-0.0002912745641544461,0.0031227351304143666
1782813970361186300,5.931186279296875,-0.03832067056596279,0.006254822611063718,0.016735007832199333
1782813970381268200,5.951268310546875,-0.003606500059366226,-0.01219182971091941,0.005121398134343326
1782813970401350100,5.97135009765625,-0.03577624678015709,0.013837733754422515,0.008581658123433589
1782813970421432300,5.991432373046875,-0.015285831937193869,0.007078322622086852,0.008577493404969572
1782813970441514200,6.01151416015625,0.002375496959686279,0.011353680120036005,0.012608685149811208
1782813970461596200,6.03159619140625,-0.041918987318873405,0.004091598428878933,0.006876571238599717
1782813970481678300,6.05167822265625,-0.016637246546149252,-0.006911843481380492,0.023868476441316306
1782813970501760300,6.07176025390625,-0.005856324812769889,-0.007064020102098584,0.000047528936155140396
1782813970521842200,6.09184228515625,-0.016626725152134893,0.004933602210972458,-0.00940554172694683
1782813970541924400,6.11192431640625,-0.017680618119239808,-0.005613894359022379,0.009589556524343788
1782813970562006300,6.13200634765625,-0.013488427126407623,-0.010559387937188148,0.0152117803202942
1782813970582088200,6.152088134765625,-0.002862403693795204,-0.000029627953283488747,0.0071444649271667
1782813970602169300,6.17216943359375,-0.014983634120225905,0.01463768849307671,0.014483794839307665
1782813970622251300,6.192251220703125,-0.018423545441031454,-0.0006461158838123082,0.013303243285231291
1782813970642333200,6.212333251953125,-0.01214227321445942,0.005817764634359628,0.009111929075233638
1782813970662415400,6.232415283203125,-0.014237784188985823,-0.0009580496435053647,0.008907565609551965
1782813970682497300,6.252497314453125,-0.04087327765822411,-0.00016216829176992178,0.01218231296390295
1782813970702579200,6.2725791015625,-0.013349895438551902,-0.005964132568798959,0.015572247663140295
1782813970722661400,6.292661376953125,-0.008848492366075515,-0.001116509874537587,0.008961780014820396
1782813970742743300,6.312743408203125,-0.037432781815528865,0.009520747338142245,0.019389869722537697
1782813970762825200,6.3328251953125,-0.011097732597589493,-0.013071224627643823,0.01348645436502993
1782813970782907100,6.3529072265625,-0.0275496857047081,0.009294007643871009,0.00550170268882066
1782813970802989300,6.3729892578125,-0.009757423904538154,0.008955149344634265,0.0072910703236237166
1782813970823071200,6.3930712890625,-0.01827566140294075,-0.0063782480613328515,0.014864939644001424
1782813970843153200,6.413153076171875,-0.028754969841241835,0.005860982721578329,0.004254223378375172
1782813970863235300,6.4332353515625,-0.013639233773946761,-0.0033980084078386423,0.01024933560732752
1782813970883316200,6.453316162109375,-0.03278291018307209,-0.0083184406099841,0.008873224948532878
1782813970903398400,6.4733984375,-0.014532383221387862,-0.00345638753157109,0.020590587281808254
1782813970923480300,6.493480224609375,-0.02963525980710983,0.00863033783705905,0.0120962421156466
1782813970943562200,6.513562255859375,-0.002555529701709747,0.003588270282931626,0.008167560897208749
1782813970963644200,6.53364404296875,0.008069324687123298,-0.009471263906918466,0.0011462108930572867
1782813970983726300,6.553726318359375,-0.03637070554196834,0.00780740408161655,-0.0004589227486401796
1782813971003808300,6.573808349609375,0.0017816227197647093,-0.004524436888191849,0.0053379269618541
1782813971023890200,6.59389013671875,-0.037405893808603284,0.009198511380143463,0.016966916891932485
1782813971043972400,6.613972412109375,-0.03621405367553234,0.001646305902302265,0.013487659941427409
1782813971064053500,6.634053466796875,-0.0031371289819478987,0.009030717065185307,-0.001980287097021937
1782813971084135400,6.654135498046875,-0.03575345042645931,-0.006292451207712292,0.011010163911990821
1782813971104217600,6.674217529296875,0.010184709405899047,-0.004197049831040203,0.018914872621931134
1782813971124298500,6.694298583984375,-0.0320025734603405,0.0044776203380897635,0.017308643001690507
1782813971144380700,6.714380615234375,-0.03380348540246486,0.0003324468247592449,0.007269881405122578
1782813971164462600,6.734462646484375,-0.01764203967452049,-0.007711633823253214,0.007016527698561549
1782813971184544500,6.75454443359375,-0.02377250525355339,-0.002090378141682595,0.011190781175903976
1782813971204626700,6.774626708984375,-0.007314122405648231,-0.013840418901853262,0.0036588878337293863
1782813971224708600,6.79470849609375,-0.01718377451300621,0.0012890534298494458,0.008719824485108257
1782813971244790500,6.81479052734375,-0.025864509096741675,-0.0063240701886825255,0.007417692377977072
1782813971264872400,6.83487255859375,-0.008655600142478943,0.004420939981099218,0.010557049849629402
1782813971284954600,6.85495458984375,-0.03544073121547699,-0.004718918280676007,0.005836670264229178
1782813971305036500,6.87503662109375,0.011242694026231764,-0.006476192010473459,0.015552812310308218
1782813971325118500,6.895118408203125,-0.014935118803381919,-0.0008410174014046788,-0.0038873993599787353
1782813971345200600,6.91520068359375,-0.025714286971092223,-0.005832688208855688,0.011922931375354528
1782813971365282600,6.935282470703125,-0.016140987461805343,0.0008491641752421856,0.007927797324582934
1782813971385363500,6.955363525390625,-0.031101240706443784,-0.006466291670966893,0.01732628825623542
1782813971405445600,6.975445556640625,-0.009554010286927223,-0.0056207076922990375,0.012298852015659213
1782813971425527600,6.995527587890625,-0.02136778219938278,0.004657525215949863,0.0069493807464838025
1782813971445609500,7.015609375,-0.019581483304500578,-0.004580697120074182,0.010106383472681045
1782813971465691600,7.035691650390625,0.007947159612178801,-0.002714209128450602,0.003626118075288832
1782813971485773600,7.055773681640625,-0.02556581841111183,-0.0004888429628685117,0.015427432364970444
1782813971505855500,7.07585546875,-0.02347439908981323,-0.002613854026515037,0.02123776261154562
1782813971525937700,7.095937744140625,-0.03678513156175613,0.00019698387682437897,0.008658376621454954
1782813971546019600,7.11601953125,-0.0269178175419569,-0.0070563665186055,0.009871990194916724
1782813971566101500,7.1361015625,0.008550386202335357,-0.006133534318953752,-0.002062558552995324
1782813971586183400,7.156183349609375,-0.035732407638430594,0.0018160912449471651,0.007976860630698501
1782813971606264600,7.1762646484375,-0.005219780474901199,-0.014337481703795492,0.008056501738168298
1782813971626346500,7.196346435546875,-0.003867196822166443,0.011372019494324922,0.010968224466405808
1782813971646428700,7.2164287109375,-0.033797640183568,-0.0011256978279910981,0.01117624119389802
1782813971666510600,7.236510498046875,-0.029307927548885344,-0.004481291866209358,0.0028120252134278415
1782813971686592500,7.256592529296875,-0.01988075851202011,-0.00003466945458203554,0.005375701688975096
1782813971706674700,7.2766748046875,-0.01629062506556511,0.0019699666324071584,0.013553162925690412
1782813971726756600,7.296756591796875,-0.02975333322882652,0.002052932208124548,0.0039681729786098
1782813971746838500,7.316838623046875,-0.016888590958714485,-0.01153707386292517,0.01709481758791953
1782813971766920400,7.33692041015625,-0.005959785187244415,-0.004761898905877024,0.008470014442503452
1782813971787002600,7.357002685546875,-0.03274199365079403,-0.008409735622629522,0.009180756527744234
1782813971807084500,7.37708447265625,-0.02481120065152645,-0.009085917851142584,0.03079085958302021
1782813971827165700,7.397165771484375,-0.012541501665115355,-0.010163739683106542,0.005387574789859354
1782813971847247600,7.41724755859375,-0.031841245418787,0.003430449372716248,0.017053243468515573
1782813971867329500,7.43732958984375,-0.02107669029831886,0.005714505189284682,0.004358414405211806
1782813971887411700,7.45741162109375,-0.011195347753167151,-0.011739555898774415,0.003645809156447649
1782813971907493600,7.47749365234375,-0.011195347753167151,-0.004264744772389531,0.01248988107573241
1782813971927575600,7.497575439453125,-0.010296353086829186,-0.0024669381028041243,0.007212890520878135
1782813971947657500,7.517657470703125,-0.03872574423551559,0.0013031732867471873,0.01910082364808768
1782813971967739600,7.53773974609375,-0.005962707796692848,0.004804240210261196,0.007100881513766944
1782813971987821600,7.557821533203125,-0.03213584445118904,-0.00813252611644566,0.02049198574554175
1782813972007903500,7.577903564453125,-0.035735914769768715,-0.00027057883599773046,0.019426402340643106
1782813972027985700,7.597985595703125,0.008266893085837364,-0.00006667202804237604,0.010272058895789086
1782813972048066300,7.61806640625,-0.04126373828053474,0.003972739555872976,0.0190604551050812
1782813972068148500,7.6381484375,-0.015837620601058006,0.0030417971150018272,0.02576908589825034
1782813972088230400,7.65823046875,-0.015822423031926155,0.008685721286106854,0.013185060265660286
1782813972108312300,7.678312255859375,-0.04111877685189247,-0.000553944088332355,0.0032703634401783344
1782813972128394200,7.698394287109375,0.007955342918634414,-0.007390840903669595,0.014687683380953966
1782813972148476400,7.718476318359375,-0.029747488009929657,-0.002064860107935965,0.0031042496256530284
1782813972168558300,7.738558349609375,-0.015091770669817924,-0.008420129152480513,0.019349683842621743
1782813972188640300,7.75864013671875,-0.01822597704231739,-0.005912055321689695,0.014950718231312929
1782813972208722400,7.778722412109375,-0.03663315587043762,-0.010299275696277617,0.003908149887062609
1782813972228804400,7.798804443359375,-0.01374386319220066,-0.0162338533770293,0.009218823515810073
1782813972248886300,7.81888623046875,-0.04007306719124317,0.009266918707545846,0.008984576368518174
1782813972268967400,7.838967529296875,-0.01524140827357769,0.006145864077564328,0.019996786107122896
1782813972289049300,7.85904931640625,-0.00670505059659481,0.0014106887818314134,0.0005513137398287653
1782813972309131300,7.87913134765625,-0.0222732066065073,-0.005816175465472042,0.0014753332495689392
1782813972329213400,7.89921337890625,0.0031663550764322278,-0.006730714760813862,0.004137026739493012
1782813972349295400,7.91929541015625,-0.040219197663664816,-0.004089534335955977,0.00441730498559773
1782813972369377300,7.939377197265625,-0.02436287236213684,0.004173888151161372,0.004628390453010797
1782813972389459500,7.95945947265625,-0.019272271224856377,0.001963737821020186,0.014020195915549993
1782813972409541400,7.979541259765625,-0.028556816920638082,0.0027956951331347224,0.017042393280938265
1782813972429623300,7.999623291015625,-0.013138883036375046,0.005989760200399905,0.021711955994553864
1782813972449705500,8.01970556640625,-0.021213468420505522,0.0011040522517636417,0.0010919599551707506
1782813972469786400,8.039786376953124,-0.02361293077766895,-0.009001472704391927,0.00855330881178379
1782813972489868300,8.059868408203124,-0.01822422347664833,-0.011507518974877893,0.015533486555330454
1782813972509950500,8.079950439453125,-0.03303600816130638,-0.001981310010328889,0.00232899093683809
1782813972530032400,8.100032470703125,-0.03527998769581318,-0.014992219285480677,0.009999635162577033
1782813972550114300,8.1201142578125,-0.0120820674598217,0.00527284410269931,0.009920505511760712
1782813972570196500,8.140196533203126,-0.017167992421984673,-0.00727894149441272,0.01435110837034881
1782813972590278400,8.1602783203125,-0.010880290454626082,-0.003802862881682813,0.0062429129775613545
1782813972610360300,8.1803603515625,-0.011624386820197105,0.0016280943921767174,0.0036399274049326775
1782813972630442500,8.2004423828125,-0.04050152173638344,-0.004528108416311442,0.01320149994380772
1782813972650524400,8.2205244140625,0.0021411036819219587,0.003358918506465852,0.010032477986253797
1782813972670605300,8.240605224609375,-0.032118308794498444,-0.006207677267398685,0.013168949381075799
1782813972690687500,8.2606875,-0.02240004785656929,-0.002408230185508728,0.012393325366079807
1782813972710769400,8.280769287109376,-0.028680735561251638,-0.006950403659790754,0.01814461890179664
1782813972730851300,8.300851318359374,-0.010723638588190079,-0.0003115136345848441,0.01659044826235622
1782813972750933500,8.32093359375,-0.01640343779027462,-0.001694163632020354,0.003113638508506119
1782813972771015400,8.341015380859375,-0.03555295941829681,-0.002003101717028767,0.014901070403307676
1782813972791097300,8.361097412109375,-0.007727379381656646,-0.015336831472069025,0.01374083098489791
1782813972811179500,8.381179443359375,-0.026872809356451033,0.0033677776663564142,0.010982289524376392
1782813972831261400,8.401261474609376,-0.0093763156324625,-0.005462923314701765,0.018547573679499326
1782813972851342300,8.42134228515625,0.0015653496205806732,0.004754482784401625,0.004474295869842171
1782813972871424500,8.441424560546874,-0.041083121016621586,-0.009223591022472829,0.014003208248130975
1782813972891506400,8.46150634765625,-0.0029302082329988478,0.00225925016887486,0.011180734705924986
1782813972911588400,8.48158837890625,-0.021322774013876913,-0.015645824356004596,0.010359335320442914
1782813972931670500,8.50167041015625,-0.031498715591430665,0.00285670460537076,-0.0059910205757245415
1782813972951752400,8.52175244140625,-0.005606149443984031,-0.012700089760310947,0.01676153051294386
1782813972971834400,8.54183447265625,-0.02774433149397373,0.00027426863042637705,-0.0007574673037976026
1782813972991916500,8.56191650390625,-0.005015197813510895,0.005675890211947262,0.01974547822717577
1782813973011998500,8.58199853515625,-0.012186696878075599,-0.008075772694218903,0.013854191698879003
1782813973032080400,8.602080322265625,-0.05349193621277809,0.0071867149000056085,0.0005454685209318995
1782813973052161800,8.622161865234375,0.0015659341424703597,-0.003830426742043346,0.017211173976585267
1782813973072243700,8.64224365234375,-0.035227380725741386,0.0036765148219652473,0.006153919519856572
1782813973092325600,8.66232568359375,-0.03404489294290542,-0.002333192187920213,0.013384199566952883
1782813973112407800,8.68240771484375,-0.0020107553005218504,0.009236158243101089,0.008264080074243247
1782813973132489700,8.70248974609375,-0.04645838431417942,0.011829974128585307,0.01683861433714628
1782813973152571600,8.722571533203125,0.011743629285693167,-0.0056745019724592565,0.006132986329682171
1782813973172653600,8.742653564453125,-0.04405599934756756,0.004027739412430674,0.001655000665411353
1782813973192735700,8.76273583984375,-0.016086042404174803,-0.009369557098113,0.006006035481765866
1782813973212817700,8.782817626953126,0.003229483440518379,-0.013019987630750983,0.004716434062644839
1782813973232898800,8.80289892578125,-0.05961480300724506,0.005147171896416693,0.017827844570204615
1782813973252980700,8.822980712890624,-0.0035042087286710735,-0.01703930627470836,0.005945866259746253
1782813973273062700,8.843062744140624,-0.00423895274400711,0.0020142441655509173,0.02253419563025236
1782813973293144600,8.86314453125,-0.039410219368338585,0.010047017968259752,0.004936141227930784
1782813973313226800,8.883226806640625,-0.017420505878329277,-0.01785449511511251,0.009795856218785048
1782813973333308700,8.90330859375,-0.012180851659178734,0.004137848723400384,0.0173592406777665
1782813973353390600,8.923390625,-0.01712882945537567,0.0034325865308754144,-0.003336195218004286
1782813973373472800,8.94347265625,-0.033579613518714906,0.002764003086928278,0.007580627854727208
1782813973393554700,8.9635546875,-0.03882335939109325,0.002032145148422569,0.01491210325397551
1782813973413635800,8.9836357421875,0.008456278178095817,-0.007192450521048158,-0.0017790654364973305
1782813973433717800,9.0037177734375,-0.04406009100079536,0.004568860551808029,0.02408712416067719
1782813973453799700,9.023799560546875,-0.018334113591909406,-0.004493493760656565,0.008517360715568065
1782813973473881600,9.043881591796875,-0.01099368770122528,-0.0051433542378246785,0.023658596550300715
1782813973493963800,9.0639638671875,-0.04151800530254841,-0.0006687478407286107,0.0075915145749226205
1782813973514045700,9.084045654296874,-0.0038210195928812026,0.003630648119933903,0.008245375373773277
1782813973534127600,9.104127685546874,-0.005611410140991211,-0.0013874723030254245,0.015415303535759449
1782813973554209800,9.124209716796875,-0.02791033571064472,0.007504475612286478,0.010526398983038962
1782813973574291700,9.144291748046875,-0.0210357737660408,-0.010825509793777019,0.013081965217366813
1782813973594372900,9.164372802734375,-0.013847908088564872,-0.0017553922999650239,0.0036111762344837187
1782813973614454800,9.184454833984375,-0.03569908989071846,-0.00010819134851917624,0.01931373574640602
1782813973634536700,9.20453662109375,-0.005924129351973533,-0.004623823875747621,0.010284005061909556
1782813973654618600,9.22461865234375,-0.016691022560000417,-0.005481554949935526,0.008702325361035764
1782813973674700800,9.24470068359375,-0.02462473816871643,-0.002462919514812529,0.013556889252737164
1782813973694782700,9.26478271484375,-0.006365443378686905,-0.01156514917993918,0.005207542047835886
1782813973714864600,9.28486474609375,-0.027019524350762367,0.009757442170847206,-0.003182173700071871
1782813973734946800,9.30494677734375,-0.014159458255767822,-0.01052632591780275,0.016027042225934564
1782813973755028700,9.32502880859375,-0.026122867771983145,-0.005454575611464679,0.016791048868373036
1782813973775110000,9.34510986328125,-0.02059095260798931,0.00628068770468235,0.011720650268904865
1782813973795191800,9.36519189453125,-0.004728197565674781,-0.010797251813672483,0.014464870943129062
1782813973815273700,9.385273681640625,-0.030315058764815328,0.0015343882267363368,0.023381971566006538
1782813973835355600,9.405355712890625,-0.0186567696750164,-0.00353186392057687,0.014920651886612176
1782813973855437800,9.425437744140625,-0.024335984355211258,-0.00901688946923241,0.008477394031360745
1782813973875519700,9.445519775390625,-0.017312369328737257,0.006930237654596567,0.005616488174907863
1782813973895601700,9.4656015625,-0.011173720443248748,-0.00489425658127293,0.018923859645985065
1782813973915682800,9.485682861328126,-0.03421206620335579,0.01089607254564762,0.018291297363489865
1782813973935764700,9.5057646484375,-0.033466216272115705,-0.0018903072586283086,-0.0004105170296505093
1782813973955847000,9.525846923828125,-0.011027005448937416,-0.005415065584983676,0.011042787539958953
1782813973975928800,9.5459287109375,0.006035773032903671,-0.00802424343638122,0.002182860464416444
1782813973996010800,9.5660107421875,-0.02208966673314571,0.004117591386660934,0.005756152373924851
1782813974016092700,9.5860927734375,-0.026129882034659383,-0.006151928492169827,0.013112616083957255
1782813974036174800,9.6061748046875,-0.020592121651768682,-0.0004468304520472884,0.010965228791721165
1782813974056256500,9.626256591796874,-0.006084288349747657,0.006675440909620374,0.006742350399680435
1782813974076338400,9.64633837890625,-0.021337387061119078,-0.005290105764754117,0.005047675311006606
1782813974096419600,9.666419677734375,-0.04663607896864414,-0.006397957408800721,0.011090060747787355
1782813974116501500,9.68650146484375,-0.01115969191789627,-0.009665142511203885,-0.002821121835336089
1782813974136583700,9.706583740234375,-0.036598669078946114,-0.0024129611595533787,0.002099383432045579
1782813974156665600,9.72666552734375,0.013674305087327957,-0.0032465259068645536,0.002524623106792569
1782813974176747500,9.74674755859375,-0.05349427430033683,-0.0037602475826628502,0.00747694828454405
1782813974196829400,9.766829345703124,-0.04319616764783859,0.008879727754555642,0.019582323554717004
1782813974216911600,9.78691162109375,0.02683715352118015,-0.01078839265378192,-0.0037353506034240123
1782813974236993500,9.80699365234375,-0.028071663752198217,0.005987275982368737,0.007333923084661364
1782813974257075500,9.827075439453125,-0.011468319475650787,-0.0025130240005441008,0.016856149993836878
1782813974277157600,9.84715771484375,-0.037194296884536744,-0.0042124117969535285,0.014906440698169172
1782813974297238500,9.867238525390626,-0.03032674920260906,0.006658416709583252,0.0021549130115658044
1782813974317320700,9.88732080078125,-0.019996493846178055,0.002408832973707467,0.020844525510258973
1782813974337402600,9.907402587890624,-0.03002747399508953,0.0005231470912694931,0.0029984511636197567
1782813974357484500,9.927484619140625,-0.016862871995568275,0.002996423603314906,0.010233042059652506
1782813974377566500,9.94756640625,-0.0285299289137125,0.006260375569015741,0.010108465831913053
1782813974397648600,9.967648681640625,-0.010724223110079764,0.00906326762791723,0.008591266201995313
1782813974417730600,9.98773046875,-0.011470657563209533,-0.0027417547225020824,0.004867350308038294
1782813974437812500,10.0078125,-0.018964812710881233,-0.0017583331757225096,0.012145341954380273
1782813974457894700,10.027894775390624,-0.0033966567009687423,0.005890921202115714,-0.000021152385883033274
1782813974477975600,10.0479755859375,-0.03272971869111061,-0.010512626186013221,0.014044965030625462
1782813974498057700,10.0680576171875,0.011549568018317222,0.012023743135016411,0.009355236311815679
1782813974518139600,10.0881396484375,-0.031388240954279896,-0.008076576411817223,0.014448358199745416
1782813974538221600,10.1082216796875,-0.045907764694094653,0.00026378376903012394,0.005290324960462748
1782813974558303500,10.128303466796876,-0.029143676897883414,-0.003651636109035462,0.014320676699467003
1782813974578385700,10.1483857421875,-0.020312720188498497,0.0007011888056062161,0.006027333998121321
1782813974598467600,10.168467529296874,-0.010294599521160125,0.003461483831796795,0.005085084711946547
1782813974618549500,10.188549560546875,-0.0319938056319952,0.00031302973823621867,0.005440437488257885
1782813974638631700,10.208631591796875,0.008100888869166373,-0.005949756983574479,0.00335917423479259
1782813974658713600,10.228713623046875,-0.030489246287941932,0.00006305529884994029,0.01238437487464398
1782813974678794500,10.24879443359375,-0.04920271458625793,0.009661434450466185,0.0165275390939787
1782813974698876700,10.268876708984376,-0.01687397791147232,-0.013099720069766044,0.022130400602333247
1782813974718958600,10.28895849609375,-0.1825339111894369,0.09758295207479968,-0.07043927162140608
1782813974739040500,10.30904052734375,-0.059248892304301255,0.13221304276082663,0.10985537274125963
1782813974759122700,10.329122802734375,0.3678776191025972,-0.3653186553347856,-0.005680529854446649
1782813974779204600,10.34920458984375,0.18943711470663546,0.03326917759636417,0.010941628720425069
1782813974799286500,10.36928662109375,-0.5868149690598249,0.14375682035917414,0.050988063633069396
