time,seconds_elapsed,z,y,x
1782813988033152000,0.070152099609375,-0.0008660175953991711,0.0042205797508358955,-0.011695057153701782
1782813988053234200,0.090234130859375,-0.0023715561255812645,-0.007284858729690313,0.008688192814588547
1782813988073316000,0.110316162109375,-0.0008366622496396303,0.004918739665299654,-0.005220444407314062
1782813988093398000,0.13039794921875,0.0006504417397081852,-0.0010836627334356308,-0.00012779911048710346
1782813988113479000,0.15047900390625,0.0019827312789857388,-0.002668533707037568,0.004713601432740688
1782813988133560800,0.170560791015625,-0.00010715413372963667,0.0029263077303767204,-0.005022103898227215
1782813988153643000,0.19064306640625,0.0016197547083720565,-0.0005451969336718321,0.0026689167134463787
1782813988173725000,0.210724853515625,-0.00016087690892163664,-0.0009189813863486052,-0.0015530185773968697
1782813988193805800,0.230805908203125,-0.0019533459562808275,0.0016667046584188938,-0.0025826357305049896
1782813988213888000,0.250887939453125,-0.0005239939200691879,-0.0017455308698117733,0.003528221510350704
1782813988233970000,0.270969970703125,0.00020918616792187095,0.002989036962389946,-0.003282546531409025
1782813988254051800,0.2910517578125,-0.0009724817937240005,-0.000519387423992157,0.000556315528228879
1782813988274133000,0.311133056640625,0.00037173822056502104,-0.00038283923640847206,0.0016796234995126724
1782813988294215000,0.33121484375,0.000865430454723537,0.002137091476470232,-0.004169912077486515
1782813988314297000,0.351297119140625,-0.0004262006841599941,-0.0009262457024306059,0.002111834939569235
1782813988334379000,0.37137890625,-0.0002292852004757151,0.002285018563270569,-0.002899831160902977
1782813988354460000,0.3914599609375,-0.0009664864628575742,0.0010555582121014595,0.0021732894238084555
1782813988374542000,0.4115419921875,-0.00020008088904432952,-0.0007455865852534771,0.0028427562210708857
1782813988394624000,0.4316240234375,-0.0003816056705545634,0.00028028804808855057,0.00003884988836944103
1782813988414706000,0.451705810546875,0.0002847964351531118,-0.0002278946340084076,0.0013834743294864893
1782813988434787000,0.471787109375,-0.0010092422598972917,-0.00007093418389558792,-0.0013808284420520067
1782813988454869000,0.491868896484375,-0.00003675042535178363,0.0002369023859500885,0.0018614333821460605
1782813988474951000,0.511950927734375,-0.0008955076918937266,-0.0021642788778990507,-0.001847472507506609
1782813988495033000,0.532033203125,0.0002931214403361082,-0.0005370364524424076,0.0007919478230178356
1782813988515114000,0.552114013671875,0.00024053448578342795,0.0003417101688683033,-0.0016516074538230896
1782813988535196200,0.572196044921875,-0.00038454317837022245,0.0004447987303137779,0.0035803543869405985
1782813988555278000,0.592278076171875,-0.0005100963753648102,0.0016463198699057102,-0.0016723927110433578
1782813988575360000,0.612360107421875,0.0011719181202352047,-0.0005517313256859779,0.000023306580260396004
1782813988595441200,0.632441162109375,-0.00017730510444380343,0.0009528328664600849,0.0005330161657184362
1782813988615523000,0.652523193359375,-0.001109717064537108,0.0002506212331354618,0.0012578766327351332
1782813988635605000,0.67260498046875,-0.0009767940500751138,-0.0015670533757656813,0.0019253817154094577
1782813988655687200,0.692687255859375,-0.0008453724440187216,0.0021509663201868534,-0.0006444323807954788
1782813988675767800,0.712767822265625,0.0001718109124340117,-0.002178814262151718,0.00065651535987854
1782813988695850000,0.73285009765625,0.0007010045810602605,0.0032038274221122265,-0.0007709749042987823
1782813988715932000,0.752931884765625,-0.00007288774941116571,-0.0023702834732830524,0.001625533914193511
1782813988736013800,0.773013916015625,0.00031767907785251737,-0.0008411339949816465,0.0005361534422263503
1782813988756095000,0.793094970703125,0.00082942727021873,0.0004420722834765911,-0.0018188559915870428
1782813988776177000,0.813177001953125,-0.0007628077873960137,-0.0015913378447294235,0.0009828670881688595
1782813988796258800,0.8332587890625,-0.00040820823051035404,0.0015398557297885418,-0.003674422623589635
1782813988816341000,0.853341064453125,-0.0012625157833099365,-0.000372153939679265,0.0022593357134610415
1782813988836422000,0.873421875,-0.0002209047815995291,0.0018316227942705154,0.00010491604916751385
1782813988856504000,0.893504150390625,0.0007156063220463693,0.0009152097627520561,-0.0013604597188532352
1782813988876586000,0.9135859375,0.0006326236762106419,-0.0003484324552118778,0.00211652391590178
1782813988896668000,0.93366796875,-0.0005273857386782765,0.0005928752943873405,-0.0031629404984414577
1782813988916749000,0.9537490234375,0.0005559096462093294,-0.0021973908878862858,-0.0018510776571929455
1782813988936831000,0.9738310546875,0.0007926857797428966,0.0012299949303269386,-0.0032095909118652344
1782813988956913000,0.993912841796875,-0.00015513115795329213,-0.0005490179173648357,0.0024408414028584957
1782813988976995000,1.0139951171875,-0.000655926822219044,0.00012606848031282425,0.0020520566031336784
1782813988997076000,1.034075927734375,0.0009073215187527239,0.002302133943885565,-0.003498339094221592
1782813989017158100,1.054158203125,-0.0005818138597533107,0.00043435394763946533,0.0033655655570328236
1782813989037240000,1.074239990234375,-0.0006007429328747094,-0.0026396301109343767,-0.002831811085343361
1782813989057322000,1.094322021484375,-0.00016829901142045856,0.0027797166258096695,-0.0004758574068546295
1782813989077403100,1.114403076171875,-0.00020001699158456177,-0.0029353585559874773,-0.0009553958661854267
1782813989097485000,1.134485107421875,-0.001053066342137754,0.0028232941403985023,-0.00142485904507339
1782813989117567000,1.15456689453125,0.00067512335954234,-0.0012165945954620838,-0.0005609956569969654
1782813989137649200,1.174649169921875,-0.0003833795490209013,0.00025359727442264557,0.0007280177669599652
1782813989157730000,1.19472998046875,-0.0008200963493436575,-0.0001118713989853859,-0.0027546901255846024
1782813989177812200,1.214812255859375,-0.0006331175100058317,-0.00007772492244839668,0.0011333141010254622
1782813989197894100,1.23489404296875,-0.0006138625321909785,0.0011560618877410889,-0.004303404130041599
1782813989217976000,1.25497607421875,0.0008158996351994574,0.001017124392092228,-0.0004227410536259413
1782813989238057200,1.27505712890625,-0.0014110151678323746,-0.0014788720291107893,0.0022592220921069384
1782813989258139100,1.29513916015625,0.00027385848807170987,0.0021146987564861774,-0.003037171671167016
1782813989278221000,1.315220947265625,0.00021593942074105144,-0.0010369305964559317,0.00179874780587852
1782813989298303200,1.33530322265625,-0.0010169430170208216,-0.0003139963373541832,0.00027670012786984444
1782813989318383900,1.3553837890625,0.001350723672658205,0.0012026350013911724,-0.00229959306307137
1782813989338466000,1.375466064453125,-0.0006418921402655542,-0.0005755559541285038,0.003027654020115733
1782813989358548200,1.39554833984375,0.0011019667144864798,0.000957251526415348,-0.0011759726330637932
1782813989378630100,1.415630126953125,-0.00040180826908908784,0.0010778275318443775,0.0010648127645254135
1782813989398711000,1.4357109375,-0.00034924797364510596,-0.0014574516098946333,-0.00018923566676676273
1782813989418793000,1.45579296875,-0.0004267171025276184,0.0009266585111618042,-0.00008712639100849628
1782813989438875000,1.475875,-0.0009009868372231722,-0.00004735775291919708,0.0006681092781946063
1782813989458956000,1.4959560546875,-0.001411700388416648,-0.0004203799180686474,-0.001840720884501934
1782813989479038000,1.516037841796875,-0.0010643834248185158,0.000516268890351057,-0.002217559376731515
1782813989499119900,1.536119873046875,-0.0015246715629473329,-0.0011524464935064316,0.0016972555313259363
1782813989519202000,1.5562021484375,0.0011417659698054194,-0.0005884512793272734,-0.0008775154128670692
1782813989539283000,1.576282958984375,0.00009496315033175051,0.0005378550849854946,-0.0005534125957638025
1782813989559365000,1.596365234375,-0.0009195000166073442,-0.0010950583964586258,-0.000017661135643720627
1782813989579447000,1.616447021484375,0.00024027127074077725,0.0006995419971644878,0.0001787880901247263
1782813989599529000,1.636529052734375,0.0007646069279871881,-0.0018760641105473042,-0.0012426290195435286
1782813989619610000,1.656610107421875,-0.0011260173050686717,-0.00029455777257680893,-0.0013418877497315407
1782813989639692000,1.676692138671875,0.0003589894331526011,0.000567954033613205,0.0006651738658547401
1782813989659774000,1.69677392578125,-0.0003381835122127086,-0.0004979036748409271,-0.0005806242115795612
1782813989679856000,1.716856201171875,-0.00013686521560885012,0.0010481327772140503,-0.0007181006949394941
1782813989699937000,1.73693701171875,-0.0006099921301938593,-0.00017461925745010376,0.0009378233226016164
1782813989720019200,1.757019287109375,-0.00006397138349711895,-0.0007529349531978369,-0.0021439052652567625
1782813989740101000,1.77710107421875,0.0007994741317816079,0.0021780701354146004,-0.0039061156567186117
1782813989760183000,1.79718310546875,-0.000520997098647058,-0.0034761440474539995,0.0025942183565348387
1782813989780264200,1.81726416015625,0.0006315627251751721,0.0016626440919935703,-0.0016947602853178978
1782813989800346000,1.83734619140625,-0.0005363948876038194,-0.0006631454452872276,-0.0008266931399703026
1782813989820428000,1.857427978515625,-0.0012800535187125206,-0.0009113634005188942,0.0013348531210795045
1782813989840510200,1.87751025390625,0.00022151105804368854,0.0006122770719230175,-0.0026439873035997152
1782813989860590800,1.8975908203125,-0.00017746661615092307,-0.003026832826435566,0.0006529446691274643
1782813989880673000,1.917673095703125,0.000139379728352651,0.0016793343238532543,-0.0027529015205800533
1782813989900755000,1.9377548828125,-0.0007029316620901227,-0.0008269876707345247,-0.00010314304381608963
1782813989920836000,1.957836181640625,-0.0006699232617393136,0.0001638699322938919,0.0002482959534972906
1782813989940918000,1.97791796875,-0.0006379324477165937,-0.0005720900371670723,0.0014907231088727713
1782813989961000000,1.998,-0.000009663403034210205,0.0006453986279666424,0.0017018017824739218
1782813989981081900,2.018081787109375,0.0009588823886588216,0.000231071375310421,-0.002880347892642021
1782813990001163000,2.0381630859375,0.00213810708373785,-0.00040998728945851326,0.0009254018077626824
1782813990021245000,2.058244873046875,0.00003246995038352907,0.001572007779031992,-0.001553226262331009
1782813990041327000,2.0783271484375,0.00014171277871355414,-0.00034905620850622654,0.0008091208292171359
1782813990061409300,2.0984091796875,-0.0014934124192222953,-0.000681254081428051,0.001127498340792954
1782813990081490000,2.118489990234375,0.0003503967891447246,0.001016457099467516,-0.002156349830329418
1782813990101572000,2.138572021484375,-0.0008785343961790204,0.0019935122691094875,0.0028740279376506805
1782813990121654000,2.158654052734375,0.0013753324747085571,0.000045509543269872665,0.0007109266007319093
1782813990141736000,2.17873583984375,0.000965187675319612,-0.00112437573261559,-0.0013552326709032059
1782813990161817000,2.198817138671875,0.00035445421235635877,0.0015691984444856644,-0.002500890986993909
1782813990181899000,2.21889892578125,0.0008783353841863573,-0.0031650816090404987,0.002469200175255537
1782813990201981200,2.238981201171875,-0.0013202729169279337,0.0017666826024651527,-0.0033313618041574955
1782813990222062000,2.25906201171875,0.00027397950179874897,0.0004506935365498066,0.001816134317778051
1782813990242144000,2.27914404296875,0.0001733953831717372,-0.0013219292741268873,0.0009914032416418195
1782813990262226200,2.29922607421875,-0.0015411892673000693,0.0010826601646840572,-0.0039926255121827126
1782813990282308000,2.31930810546875,0.0006750314496457577,-0.0017129862681031227,0.003392650978639722
1782813990302389200,2.33938916015625,0.00044096296187490225,0.001603282056748867,-0.004263878799974918
1782813990322471200,2.35947119140625,-0.0000704474514350295,-0.0015341474208980799,0.0016891492996364832
1782813990342553000,2.379552978515625,-0.0009514434495940804,-0.00013498077169060707,-0.001850830391049385
1782813990362635000,2.399635009765625,-0.00046746234875172377,0.00220341794192791,-0.005812359042465687
1782813990382716200,2.419716064453125,-0.00040733820060268044,-0.001439967192709446,0.004814865067601204
1782813990402798000,2.439798095703125,-0.0004411916306708008,0.0024195616133511066,-0.005416827276349068
1782813990422880300,2.45988037109375,0.001852329121902585,-0.0007106764242053032,0.0008074226789176464
1782813990442962200,2.479962158203125,0.0000010526564437896013,-0.0006560336332768202,-0.0006883377209305763
1782813990463043300,2.500043212890625,-0.0004361896135378629,0.0009239423088729382,0.0018158650491386652
1782813990483125200,2.520125244140625,0.0002000218373723328,-0.0010825982317328453,0.0014359906781464815
1782813990503207200,2.540207275390625,0.0005526866298168898,0.0025181844830513,-0.00242630229331553
1782813990523288000,2.5602880859375,-0.0005399608635343611,0.000059437938034534454,0.0007149596931412816
1782813990543370200,2.580370361328125,0.0007863187929615378,-0.0006164815276861191,0.0006771087646484375
1782813990563452200,2.6004521484375,-0.0016608373261988163,0.0012349532917141914,-0.0005223341286182404
1782813990583534300,2.620534423828125,0.0000025172194000333548,0.00040638167411088943,0.000019001774489879608
1782813990603615000,2.640614990234375,-0.0004180479736533016,0.0014447160065174103,-0.0010887281969189644
1782813990623697200,2.660697265625,0.00028173794271424413,-0.0023014508187770844,0.001338777830824256
1782813990643779000,2.680779052734375,-0.0013171641621738672,-0.00027918675914406776,-0.001825722400099039
1782813990663861000,2.700861083984375,0.0017438813811168075,0.0005910885520279408,-0.0010292476508766413
1782813990683942100,2.720942138671875,-0.0007825406501069665,-0.0009958173613995314,0.00179905048571527
1782813990704024000,2.741024169921875,0.0009571245755068958,0.0006830650381743908,-0.001782942796126008
1782813990724106000,2.76110595703125,0.0003915601409971714,0.00047757336869835854,0.0005864980630576611
1782813990744188200,2.781188232421875,0.00009153879364021122,0.0005441918037831783,-0.0014397164341062307
1782813990764269000,2.80126904296875,0.00001668426557444036,0.000777720008045435,0.0014616339467465878
1782813990784351200,2.821351318359375,0.0006664263783022761,-0.001238859724253416,-0.0007615732029080391
1782813990804433200,2.84143310546875,0.0008214495610445738,0.002105569001287222,-0.0004465854726731777
1782813990824515000,2.86151513671875,0.0005122383590787649,-0.0005262722261250019,0.001194413867779076
1782813990844596200,2.88159619140625,0.0009291127789765596,0.0008160793222486973,0.0006456467090174556
1782813990864678100,2.90167822265625,-0.0014034039340913296,-0.00039056711830198765,0.001269955188035965
1782813990884760000,2.921760009765625,-0.000041322928154841065,-0.0002244948409497738,0.0019159731455147266
1782813990904841200,2.94184130859375,0.00041331734973937273,-0.0009015731047838926,-0.00240635359659791
1782813990924923100,2.961923095703125,-0.0020198714919388294,0.0014228196814656258,-0.0009269220754504204
1782813990945005000,2.982005126953125,0.0012352893827483058,-0.0013950003776699305,-0.0006484461482614279
1782813990965087200,3.002087158203125,0.0003079756861552596,-0.00032623461447656155,0.002228027442470193
1782813990985168100,3.022168212890625,-0.0005561331054195762,0.0005359952338039875,-0.0029860350769013166
1782813991005250300,3.042250244140625,-0.0006995326839387417,0.00015718163922429085,0.0005681433249264956
1782813991025332200,3.062332275390625,0.000055333744967356324,-0.000316043384373188,-0.0004799037706106901
1782813991045414100,3.0824140625,0.0021529195364564657,0.000059855636209249496,-0.0007895808666944504
1782813991065496000,3.10249609375,-0.0004527232376858592,-0.000957112293690443,0.00014141714200377464
1782813991085578000,3.122577880859375,-0.00020367746765259653,-0.00005897181108593941,0.0007178003434091806
1782813991105660000,3.142659912109375,-0.0005178258870728314,-0.0007129134610295296,-0.0004967334680259228
1782813991125740800,3.16274072265625,-0.0006990518304519355,0.0011614207178354263,-0.0009512149263173342
1782813991145822700,3.18282275390625,0.0014791078865528107,0.0007155416533350945,-0.0002692833077162504
1782813991165904600,3.202904541015625,0.0015445651952177286,-0.0005223080515861511,-0.0018320234958082438
1782813991185987000,3.222987060546875,0.000498577777761966,0.0018007401376962662,-0.0017463620752096176
1782813991206067700,3.243067626953125,-0.0010062858927994967,-0.0014644521288573742,0.004109966568648815
1782813991226150000,3.26314990234375,0.0005674196872860193,0.00012326054275035858,-0.00010854844003915787
1782813991246231800,3.283231689453125,-0.0006619482883252203,0.0009292564354836941,-0.002856879262253642
1782813991266313700,3.303313720703125,-0.00008253307896666229,-0.0029934453777968884,0.0008424040861427784
1782813991286395000,3.323394775390625,0.0008799227653071284,0.004420301876962185,-0.006531844846904278
1782813991306476800,3.343476806640625,0.0004819714231416583,-0.004905762616544962,0.0046792542561888695
1782813991326558700,3.363558837890625,-0.0014899809611961246,0.0036889277398586273,0.0003915864508599043
1782813991346641000,3.383640869140625,0.00022389646619558334,-0.0004306766204535961,-0.002898224163800478
1782813991366721800,3.4037216796875,0.0019858647137880325,-0.0003657066263258457,0.006787923164665699
1782813991386804000,3.423803955078125,-0.00039260752964764833,0.0025469637475907803,-0.005580082535743713
1782813991406886000,3.443885986328125,-0.0003235931508243084,-0.0013805299531668425,0.0031869057565927505
1782813991426967800,3.4639677734375,-0.0020273225381970406,-0.0006377187091857195,-0.002167736878618598
1782813991447049000,3.484049072265625,-0.00019344055908732116,0.0005926922895014286,0.00025965715758502483
1782813991467131000,3.504130859375,0.00015686987899243832,-0.0013230706099420786,0.0007498414488509297
1782813991487212800,3.524212890625,0.000039884005673229694,0.002076582983136177,0.0014223807957023382
1782813991507294000,3.5442939453125,-0.0010021486086770892,-0.001647244207561016,0.0001646245364099741
1782813991527376000,3.5643759765625,-0.00028400629526004195,0.0018661590293049812,0.00031859870068728924
1782813991547458000,3.5844580078125,0.0005264882929623127,0.0003738752566277981,-0.0020803145598620176
1782813991567540000,3.6045400390625,0.0008311955025419593,-0.001977785723283887,0.0019440108444541693
1782813991587620900,3.624620849609375,-0.00104160001501441,0.0006700074300169945,-0.0000944014173001051
1782813991607703000,3.644703125,0.000552270095795393,0.002399126533418894,0.00037421961314976215
1782813991627785000,3.664784912109375,-0.0010793921537697315,-0.0003465020563453436,-0.00225786748342216
1782813991647865900,3.684865966796875,0.0005863428814336658,-0.00015872623771429062,0.001964499708265066
1782813991667947800,3.70494775390625,-0.00021555408602580428,-0.0006955666467547417,-0.0017055661883205175
1782813991688029700,3.72502978515625,0.00016541453078389168,0.00033379625529050827,0.002094740280881524
1782813991708112000,3.74511181640625,0.001179950893856585,0.000031800009310245514,-0.000983452657237649
1782813991728192800,3.76519287109375,0.001027646940201521,0.0008956198580563068,0.0010148573201149702
1782813991748274700,3.785274658203125,0.0003027509374078363,-0.00025981152430176735,-0.0008910992182791233
1782813991768356900,3.80535693359375,-0.0014613622333854437,-0.0025410496164113283,0.0018177053425461054
1782813991788438800,3.825438720703125,-0.0013047629036009312,0.0017866352573037148,-0.0007111246231943369
1782813991808520000,3.84552001953125,-0.00030195078579708934,-0.0019450171384960413,0.0007001091726124287
1782813991828601900,3.865601806640625,-0.0013052471913397312,0.0009143510833382607,-0.0004068699199706316
1782813991848683800,3.885683837890625,0.00047396053560078144,-0.002085770247504115,-0.0005189334042370319
1782813991868766000,3.905765869140625,0.0005678744055330753,0.0010629240423440933,0.0021551880054175854
1782813991888846800,3.925846923828125,0.0004229910555295646,0.000765691976994276,-0.002287269104272127
1782813991908928800,3.9459287109375,-0.0006812710780650377,-0.0005125366151332855,0.0033946619369089603
1782813991929011000,3.966010986328125,0.0009940951131284237,-0.0010729397181421518,-0.003194955410435796
1782813991949091800,3.986091796875,0.0012397220125421882,0.0011694850400090218,-0.0031212065368890762
1782813991969174000,4.006174072265625,0.0015439488925039768,-0.0027956049889326096,0.0016435160068795085
1782813991989256000,4.026255859375,-0.0001878034381661564,0.00016121938824653625,-0.0005758064799010754
1782813992009337900,4.046337890625,-0.0017705871723592281,-0.00015777256339788437,0.0028178661596029997
1782813992029419000,4.0664189453125,-0.0004910539137199521,-0.0014617762062698603,-0.002148818224668503
1782813992049501000,4.0865009765625,0.0006966394139453769,0.001692943274974823,-0.0019733812659978867
1782813992069582000,4.10658203125,0.0018463516607880592,-0.0021794913336634636,-0.000810322118923068
1782813992089664000,4.1266640625,-0.0013145538978278637,-0.0000018239952623844147,0.0018634413136169314
1782813992109745000,4.146744873046875,0.00038564548594877124,-0.001450014067813754,-0.0030745859257876873
1782813992129826800,4.166826904296875,-0.0016403686022385955,0.00019763875752687454,0.0005947877652943134
1782813992149908700,4.18690869140625,-0.00026672217063605785,0.0003161202184855938,-0.0003110331017524004
1782813992169990000,4.206989990234375,-0.00027693642186932266,0.0003629615530371666,0.0006438124692067504
1782813992190071800,4.22707177734375,0.0006069029914215207,-0.0008406995330005884,-0.0010025580413639545
1782813992210153700,4.24715380859375,-0.0005872072651982307,-0.00013709766790270805,0.0027876892127096653
1782813992230236000,4.26723583984375,0.0008487515151500702,-0.0021194876171648502,0.0007284870371222496
1782813992250316800,4.28731689453125,-0.0006832771468907595,0.0023537222295999527,-0.00271422415971756
1782813992270399000,4.30739892578125,0.0011343052610754967,0.0007139560766518116,0.0014200524892657995
1782813992290481000,4.32748095703125,0.00019630705355666578,-0.0006297212094068527,0.0012162034399807453
1782813992310562800,4.347562744140625,0.0003163608198519796,-0.00010553700849413872,0.00044725381303578615
1782813992330644000,4.36764404296875,0.00009979796595871449,-0.001149921678006649,-0.0006184321828186512
1782813992350726000,4.387725830078125,0.00037593382876366377,-0.0004132087342441082,-0.003659580135717988
1782813992370807800,4.407807861328125,-0.0003727321745827794,-0.0003399108536541462,0.0031742374412715435
1782813992390889000,4.427888916015625,-0.0006302488036453724,3.855675458908081e-7,-0.0023884891998022795
1782813992410971000,4.447970947265625,0.0004990374436601996,0.0002870047464966774,-0.0026711970567703247
1782813992431052800,4.468052734375,0.001330995000898838,-0.003473348682746291,-0.0007467919494956732
1782813992451135000,4.488135009765625,0.0007626670994795859,-0.00017914455384016037,-0.0027154688723385334
1782813992471215900,4.5082158203125,-0.0001149895106209442,-0.000537151237949729,0.0003506049979478121
1782813992491298000,4.528298095703125,-0.0011603322345763445,0.0017512068152427673,0.0005374194588512182
1782813992511380000,4.5483798828125,-0.0005937762325629592,-0.00007489509880542755,-0.001492226030677557
1782813992531460900,4.5684609375,-0.0003889489744324237,0.00012649362906813622,-0.00003883871249854565
1782813992551543000,4.58854296875,0.0007404176285490394,0.0007380652241408825,-0.003967141732573509
1782813992571625000,4.608625,0.000468655489385128,-0.0007704689633101225,-0.00008122902363538742
1782813992591707000,4.628706787109375,0.0006987268570810556,-0.0014816317707300186,0.0016960244392976165
1782813992611787800,4.648787841796875,0.00011563571752049029,0.002354672644287348,-0.0025672621559351683
1782813992631869700,4.66886962890625,-0.00016773439710959792,-0.0022047969978302717,0.0010536608751863241
1782813992651951900,4.688951904296875,-0.0018976556602865458,-0.00012978445738554,0.00007021869532763958
1782813992672033800,4.70903369140625,-0.0009532363037578762,-0.001873883418738842,-0.002378059783950448
1782813992692115000,4.729114990234375,0.000619315542280674,-0.00024508917704224586,0.0017019626684486866
1782813992712196900,4.74919677734375,0.0005763762164860964,-0.001822879072278738,-0.0009886284824460745
1782813992732278800,4.76927880859375,-0.0019409875385463238,0.0006974712014198303,-0.0003161085769534111
1782813992752360000,4.78935986328125,0.0006073128897696733,-0.0018713604658842087,-0.0005534936208277941
1782813992772441900,4.80944189453125,-0.0010767088970169425,-0.0003225412219762802,-0.00288679008372128
1782813992792523800,4.829523681640625,-0.000022376218112185597,-0.0002761627547442913,0.001848391373641789
1782813992812606000,4.84960595703125,-0.0015275334008038044,0.00020835129544138908,0.0013776103733107448
1782813992832686800,4.869686767578125,0.0009224647074006498,0.0012876824475824833,-0.0011571608483791351
1782813992852769000,4.88976904296875,-0.002247491152957082,-0.001126978313550353,0.0004800233291462064
1782813992872851000,4.909850830078125,-0.000279014406260103,0.0004407656379044056,0.0005317502655088902
1782813992892931800,4.929931884765625,-0.0011146999895572662,0.0015868470072746277,-0.0006119755562394857
1782813992913014000,4.950013916015625,0.0001229755871463567,-0.0014174713287502527,-0.0009762602858245373
1782813992933096000,4.970095947265625,0.0010058495681732893,-0.00034032296389341354,-0.00004106992855668068
1782813992953177900,4.990177734375,0.00011076373630203307,0.00033698510378599167,0.0012134835124015808
1782813992973259000,5.010259033203125,0.0015828453470021486,-0.00011349795386195183,-0.00048415036872029305
1782813992993341000,5.0303408203125,-0.0002667028165888041,-0.00027075596153736115,-0.00016096909530460835
1782813993013422800,5.0504228515625,-0.00032754617859609425,-0.0008204772602766752,0.002906723413616419
1782813993033505000,5.070505126953125,0.0011377250775694847,0.0005085463635623455,-0.0034613157622516155
1782813993053585700,5.090585693359375,0.00039795233169570565,-0.0004283373709768057,-0.0021218645852059126
1782813993073668400,5.11066845703125,0.0006151545676402748,-0.0037130664568394423,-0.0004843883216381073
1782813993093750500,5.13075048828125,-0.0012003707233816385,0.0012268251739442348,-0.00024731759913265705
1782813993113831400,5.15083154296875,0.00002393595059402287,0.0008518197573721409,-0.0025393106043338776
1782813993133913600,5.17091357421875,-0.0009279320947825909,-0.0009993568528443575,0.0014710683608427644
1782813993153995500,5.19099560546875,0.00042701666825450957,0.0005242251791059971,-0.0038300910964608192
1782813993174077400,5.211077392578125,0.0006102880579419434,0.0004921397194266319,0.0006379521219059825
1782813993194158300,5.231158447265625,-0.0015894505195319653,0.0017100367695093155,-0.001196444733068347
1782813993214240300,5.251240234375,0.00011212605750188231,-0.0020016415510326624,0.0011390470899641514
1782813993234322400,5.271322509765625,-0.0002292072749696672,0.0007417784072458744,0.0014425412518903613
1782813993254403300,5.2914033203125,-0.0022579235956072807,0.0011956114321947098,-0.0020424057729542255
1782813993274485200,5.3114853515625,-0.0002099146950058639,-0.002880039159208536,-0.00160936638712883
1782813993294567400,5.3315673828125,-0.0008697891607880592,0.0011850716546177864,-0.0015544265042990446
1782813993314649300,5.3516494140625,-0.00016919335757847875,-0.0030068347696214914,0.0006350127514451742
1782813993334730500,5.37173046875,-0.0005539926933124661,-0.00031676236540079117,-0.00016723177395761013
1782813993354812400,5.3918125,-0.00004541222006082535,0.0034533138386905193,-0.004101317375898361
1782813993374894300,5.411894287109375,-0.00024031184148043394,-0.0027839308604598045,0.0018672076985239983
1782813993394975500,5.4319755859375,0.00005402174429036677,0.002896526362746954,-0.0019498385954648256
1782813993415057400,5.452057373046875,0.0014658079016953707,-0.0030350242741405964,0.0005082248244434595
1782813993435139300,5.472139404296875,0.0009415869135409594,0.0011385767720639706,-0.0003027368802577257
1782813993455221500,5.492221435546875,-0.0008990628994069993,-0.0002850806340575218,-0.0013635270297527313
1782813993475302400,5.512302490234375,0.0012430235510692,0.0008531422354280949,0.002061947016045451
1782813993495384600,5.532384521484375,0.00035840802593156695,-0.00005841953679919243,-0.00030621537007391453
1782813993515466500,5.552466552734375,-0.0003752021584659815,0.00004050927236676216,0.0006138115422800183
1782813993535547400,5.57254736328125,-0.00022863253252580762,-0.00018259650096297264,-0.0014410107396543026
1782813993555629600,5.592629638671875,0.0002611614763736725,-0.00037915725260972977,0.0022216741926968098
1782813993575711500,5.61271142578125,0.0013169624144211411,-0.0008207689970731735,0.0001213843934237957
1782813993595793400,5.63279345703125,-0.0008185473852790892,-0.0005079684779047966,-0.002070536371320486
1782813993615874600,5.65287451171875,-0.0017142952419817448,-0.000040212180465459824,0.00271333078853786
1782813993635956500,5.67295654296875,0.0002667473745532334,0.0006158170290291309,-0.001856058370321989
1782813993656038400,5.693038330078125,0.0025684682186692953,-0.0005910734180361032,-0.0001547273714095354
1782813993676120600,5.71312060546875,0.0001601408002898097,0.0016992175951600075,-0.0004249981138855219
1782813993696202500,5.733202392578125,-0.001017130445688963,-0.0015761011745780706,0.0010407984955236316
1782813993716283400,5.753283447265625,-0.0003733499615918845,0.0003430997021496296,0.002010384341701865
1782813993736365300,5.773365234375,0.0006945253117009997,0.00006249453872442245,-0.0010269901249557734
1782813993756447200,5.793447265625,-0.0019116809125989676,-0.0016506039537489414,0.0024796421639621258
1782813993776528400,5.8135283203125,0.0005035413196310401,0.00005851965397596359,-0.0012515662238001823
1782813993796610300,5.8336103515625,-0.00044807285303249955,-0.0018797519151121378,-0.0023309560492634773
1782813993816692500,5.8536923828125,-0.0001336366549367085,-0.0005236482247710228,-0.0037140361964702606
1782813993836774400,5.8737744140625,-0.002086398657411337,-0.0001321970485150814,-0.0001561492681503296
1782813993856855300,5.893855224609375,0.0006512855179607868,0.0004761889576911926,-0.000018580816686153412
1782813993876937500,5.9139375,-0.000157295391545631,-0.0005641432944685221,0.0004938528873026371
1782813993897019400,5.934019287109375,-0.00037747027818113565,0.000026127323508262634,-0.0002487630117684603
1782813993917101300,5.954101318359375,-0.00004442047793418169,0.0004974198527634144,-0.001052173087373376
1782813993937182500,5.974182373046875,-0.0006303467089310288,-0.0018066002521663904,0.001603196025826037
1782813993957264400,5.994264404296875,0.0016145574627444148,0.0017452859319746494,-0.0021022632718086243
1782813993977346300,6.01434619140625,0.000630802649538964,-0.0004451798740774393,0.00003749481402337551
1782813993997428500,6.034428466796875,0.0003677444765344262,0.0008271336555480957,-0.0002870289608836174
1782813994017509400,6.05450927734375,0.0003967510419897735,-0.001006933394819498,0.001346953329630196
1782813994037591600,6.074591552734375,-0.0001926668337546289,0.001301392912864685,-0.001366718439385295
1782813994057673500,6.094673583984375,-0.0004328350769355893,-0.001443051965907216,-0.0024463755544275045
1782813994077755400,6.11475537109375,-0.0009000451536849141,0.00046853767707943916,0.001998279709368944
1782813994097836500,6.13483642578125,-0.0009678957867436111,0.001283546444028616,-0.0023612414952367544
1782813994117918500,6.15491845703125,-0.00022868739324621856,0.0003087911754846573,0.0033786059357225895
1782813994138000400,6.17500048828125,-0.0017016436904668808,0.0007769358344376087,0.001674864673987031
1782813994158082600,6.19508251953125,-0.0014574180822819471,-0.000005008187144994736,-0.001174124889075756
1782813994178163200,6.2151630859375,-0.0010206552688032389,0.002921806648373604,-0.0019725607708096504
1782813994198245400,6.235245361328125,-0.000935897056479007,-0.002644324442371726,0.005439836531877518
1782813994218327300,6.255327392578125,-0.0012578839669004083,0.0028963852673768997,-0.0024325477425009012
1782813994238409200,6.2754091796875,-0.0003061496536247432,-0.0002594101242721081,0.003619444090873003
1782813994258490400,6.295490478515625,-0.00012993122800253332,0.00048452103510499,0.0009341675322502851
1782813994278572300,6.315572265625,-0.0007055990863591433,-0.0008674184791743755,-0.001243702368810773
1782813994298654200,6.335654296875,-0.00034929276444017887,-0.0014793016016483307,0.0004958236822858453
1782813994318736400,6.355736328125,-0.0007242377614602447,0.0015022405423223972,-0.0029314851853996515
1782813994338817300,6.3758173828125,-0.0010607754811644554,-0.0018758168444037437,0.0024998255539685488
1782813994358899500,6.3958994140625,0.0007143240654841065,0.0012334426864981651,-0.002252053003758192
1782813994378981400,6.4159814453125,0.0007542630191892385,-0.000027492642402648926,-0.000807436415925622
1782813994399063300,6.436063232421875,-0.0003805868327617645,-0.0001795678399503231,0.00009570945985615253
1782813994419144400,6.45614453125,-0.0006561295595020056,0.0013787560164928436,-0.0011055872309952974
1782813994439226400,6.476226318359375,-0.0011221782770007849,-0.0006936462596058846,-0.000060385093092918396
1782813994459308300,6.496308349609375,-0.0006629053968936205,0.000043589621782302856,-0.0012106329668313265
1782813994479390500,6.516390380859375,-0.0002347514673601836,-0.0009088593069463968,0.00010501849465072155
1782813994499471400,6.536471435546875,-0.00021803149138577282,-0.0013577782083302736,-0.0006234359461814165
1782813994519553500,6.556553466796875,-0.0004270267381798476,-0.00013861339539289474,0.0009327507577836514
1782813994539635500,6.576635498046875,0.000017067359294742346,-0.002282350789755583,0.002681417390704155
1782813994559717400,6.59671728515625,-0.0008045154390856624,-0.0008231312967836857,-0.00040166708640754223
1782813994579798500,6.616798583984375,0.0006127565866336226,0.0010516121983528137,-0.002066739136353135
1782813994599880400,6.63688037109375,0.0005469550378620625,-0.000007763039320707321,0.0002042574342340231
1782813994619962400,6.65696240234375,-0.0003008038329426199,-0.0007589326705783606,-0.0010658430401235819
1782813994640044500,6.67704443359375,0.0010105628753080964,-0.0006271419115364552,0.002126353792846203
1782813994660125400,6.69712548828125,0.0001798997982405126,0.0007773255929350853,-0.0026810630224645138
1782813994680207600,6.71720751953125,0.0004466714453883469,-0.0018638679757714272,0.0013903221115469933
1782813994700289500,6.73728955078125,0.00002304589725099504,0.00047646742314100266,0.0006383671425282955
1782813994720371500,6.757371337890625,-0.0007286948966793716,0.003305843099951744,-0.00461282953619957
1782813994740452400,6.777452392578125,-0.0006560222827829421,-0.003264357801526785,0.0023344065994024277
1782813994760534300,6.7975341796875,0.0012671120930463076,0.0032871305011212826,-0.0017599188722670078
1782813994780616200,6.8176162109375,0.0004816825967282057,-0.002120376331731677,-0.0005359442438930273
1782813994800698400,6.837698486328125,0.0014470836613327265,0.0015858658589422703,0.002249407349154353
1782813994820779300,6.857779296875,-0.001644469564780593,0.00013029808178544044,-0.0026404696982353926
1782813994840861400,6.877861328125,0.00018031225772574544,-0.0016879334580153227,0.0011532865464687347
1782813994860943400,6.897943359375,-0.0013488441472873092,0.0017469893209636211,-0.001691470853984356
1782813994881024300,6.918024169921875,0.0006743403500877321,-0.00041635800153017044,0.002171435859054327
1782813994901106400,6.9381064453125,0.0011973328655585647,0.001359749585390091,0.0013294428354129195
1782813994921188400,6.958188232421875,-0.0018478597048670053,-0.00034442590549588203,-0.0004872055724263191
1782813994941270300,6.978270263671875,-0.0006438543787226081,-0.0008867047727108002,0.0023607320617884398
1782813994961351400,6.998351318359375,0.0004053913871757686,0.0007273340597748756,-0.00044589140452444553
1782813994981433300,7.018433349609375,0.0007005103398114443,-0.0007224443834275007,0.00394446961581707
1782813995001515300,7.038515380859375,-0.001276181312277913,-0.0012421519495546818,-0.0015093395486474037
1782813995021597400,7.058597412109375,-0.00045710254926234484,0.0011804895475506783,-0.0009507136419415474
1782813995041678300,7.07867822265625,-0.00030304372194223106,-0.0016575395129621029,0.00315700750797987
1782813995061760500,7.098760498046875,-0.0005561011494137347,0.00039666006341576576,0.0008634899277240038
1782813995081842400,7.118842529296875,0.0006507108337245882,-0.00008709309622645378,0.000053387600928545
1782813995101924400,7.13892431640625,-0.0012055386323481798,0.000025628600269556046,-0.001077163964509964
1782813995122005500,7.159005615234375,0.0012257784837856889,-0.0015973590780049562,-0.00011992640793323517
1782813995142087400,7.17908740234375,0.0016669363249093294,0.001197341363877058,-0.0013750537764281034
1782813995162169300,7.19916943359375,-0.0003949225938413292,-0.0007199356332421303,0.0017491260077804327
1782813995182250200,7.219250244140625,-0.00013189396122470498,0.0001376052387058735,-0.001480442937463522
1782813995202332400,7.23933251953125,-0.00032310010283254087,-0.00029493682086467743,-0.0021303954999893904
1782813995222414600,7.25941455078125,-0.0001919924543472007,-0.00022091157734394073,0.0005226051434874535
1782813995242496500,7.27949658203125,0.0005307069513946772,0.0003287671133875847,-0.002204000251367688
1782813995262577400,7.299577392578125,0.0002058218524325639,-0.0003577517345547676,0.0003713930491358042
1782813995282659300,7.319659423828125,0.0009976106230169535,0.0016086036339402199,-0.0020264347549527884
1782813995302741200,7.3397412109375,0.0001184539869427681,-0.0017600003629922867,0.0030364571139216423
1782813995322823200,7.3598232421875,0.0009143531206063926,0.001767521258443594,0.0002471276093274355
1782813995342904300,7.379904296875,-0.000752681284211576,-0.00015900935977697372,0.0012274475302547216
1782813995362986200,7.399986328125,0.001303238794207573,0.0017559481784701347,-0.00021076202392578125
1782813995383068400,7.420068359375,-0.0014147311449050903,-0.0013088658452033997,-0.0004303441382944584
1782813995403149300,7.4401494140625,0.000038468599086627364,-0.0007239298429340124,0.0011530249612405896
1782813995423231500,7.4602314453125,-0.00004057105979882181,-0.000413352157920599,-0.0027380436658859253
1782813995443313400,7.4803134765625,0.0011061555705964565,0.0018494543619453907,-0.0017623845487833023
1782813995463395300,7.500395263671875,-0.0004952941089868546,-0.0033907932229340076,0.002836262807250023
1782813995483476500,7.5204765625,0.0006381494458764791,0.002276003360748291,-0.006858259439468384
1782813995503558400,7.540558349609375,-0.00004169999738223851,-0.0030504465103149414,0.0015245279064401984
1782813995523640300,7.560640380859375,-0.0007744222530163825,0.0020220018923282623,-0.0019266426097601652
1782813995543722500,7.580722412109375,0.00020519742975011468,-0.0004123910330235958,-0.0008422678802162409
1782813995563803400,7.600803466796875,0.00015785935102030635,-0.002296815626323223,0.00508950836956501
1782813995583885300,7.62088525390625,0.0012035710969939828,0.0019063092768192291,-0.003267415566369891
1782813995603967500,7.640967529296875,-0.00011115387314930558,-0.0008450858294963837,0.00414607860147953
1782813995624048400,7.66104833984375,0.0005943056894466281,0.00001528160646557808,-0.00044346414506435394
1782813995644130600,7.681130615234375,-0.0004044146044179797,0.000980728305876255,-0.004571683704853058
1782813995664212500,7.70121240234375,-0.0008286315714940429,-0.001519942656159401,0.00365762272849679
1782813995684294400,7.72129443359375,0.0003434238024055958,0.0019122869707643986,-0.0010113753378391266
1782813995704375300,7.741375244140625,-0.001896430621854961,-0.000537344254553318,0.0014847290003672242
1782813995724457200,7.761457275390625,0.0005960913840681314,0.0008496767841279507,-0.0006110409740358591
1782813995744539100,7.7815390625,0.0005107112810947001,0.000544888898730278,-0.002187025733292103
1782813995764621600,7.80162158203125,-0.0006490357336588204,-0.0013464873190969229,0.0007747509516775608
1782813995784702200,7.8217021484375,-0.0015046574408188462,-0.0005640808958560228,-0.0011637751013040543
1782813995804784400,7.841784423828125,0.00020173139637336135,0.0013309372588992119,0.0017181597650051117
1782813995824866300,7.8618662109375,-0.0004052543663419783,-0.0009435610845685005,0.0013193030608817935
1782813995844947500,7.881947509765625,-0.001307549886405468,0.00011275708675384521,-0.0019093432929366827
1782813995865029400,7.902029296875,0.00013435533037409186,-0.0012982827611267567,-0.001366196433082223
1782813995885111300,7.922111328125,0.0009930001106113195,-0.0009054886177182198,-0.0016401070170104504
1782813995905193200,7.942193115234375,-0.0004918770282529294,0.0012348229065537453,-0.003013882553204894
1782813995925274400,7.9622744140625,0.00010450650006532669,-0.0016797955613583326,0.003575843060389161
1782813995945356300,7.982356201171875,-0.0002702418132685125,0.0016280259005725384,-0.004830734804272652
1782813995965438500,8.0024384765625,-0.0006340687396004796,-0.0022898861207067966,0.0018907119520008564
1782813995985519400,8.022519287109375,0.0005120488349348307,0.0005814931355416775,-0.0012898806016892195
1782813996005601300,8.042601318359376,0.00037918100133538246,0.001734007615596056,-0.0012828924227505922
1782813996025683500,8.062683349609374,0.0011133661027997732,-0.0022814315743744373,0.0009777898667380214
1782813996045765400,8.082765380859374,0.0011771549470722675,0.0029569528996944427,-0.003491004928946495
1782813996065846800,8.1028466796875,-0.00040624893154017627,-0.0035562152042984962,0.004190840292721987
1782813996085928700,8.1229287109375,-0.0006772303022444248,0.00010010693222284317,0.002500968985259533
1782813996106010600,8.1430107421875,-0.00014834757894277573,0.00041392771527171135,-0.0029619415290653706
1782813996126092800,8.1630927734375,0.0005944634322077036,-0.0022031147964298725,0.000153861241415143
1782813996146173700,8.183173583984376,-0.0004610584583133459,0.0003284313715994358,-0.0015781947877258062
1782813996166255600,8.203255615234376,0.00041195336962118745,0.000507730059325695,-0.0015970279928296804
1782813996186337800,8.223337890625,0.0001324857585132122,-0.0011242544278502464,0.0006888208445161581
1782813996206418400,8.24341845703125,-0.001294918591156602,0.0019644773565232754,-0.0027669297996908426
1782813996226500600,8.26350048828125,-0.0005450400058180094,-0.0002801287919282913,0.001512470655143261
1782813996246582800,8.283582763671875,-0.0016430525574833155,0.00013081636279821396,0.0025528932455927134
1782813996266664700,8.303664794921875,-0.0014086959417909384,0.0023254132829606533,-0.003443725174292922
1782813996286745600,8.32374560546875,0.00018131278920918703,-0.0020894843619316816,0.004504255019128323
1782813996306827500,8.34382763671875,0.0007257992401719093,0.0012524737976491451,-0.004366489127278328
1782813996326909400,8.363909423828124,0.00008761405479162931,-0.00015799328684806824,0.0014273456763476133
1782813996346990600,8.383990478515624,0.000659036508295685,-0.0007711898069828749,0.0006198215996846557
1782813996367072500,8.404072509765625,-0.0006287203868851066,0.00087366858497262,-0.0010526857804507017
1782813996387154700,8.42415478515625,0.0008441755780950189,-0.001823590835556388,0.003517990466207266
1782813996407236600,8.444236572265625,-0.00038268149364739656,0.001137512270361185,-0.003590848995372653
1782813996427317500,8.4643173828125,-0.00019670810434035957,0.0011182655580341816,0.00019134022295475006
1782813996447399700,8.484399658203126,-0.000008684699423611164,-0.0022849272936582565,0.0018245517276227474
1782813996467481600,8.504481689453126,-0.0009823297150433064,0.0012798267416656017,-0.000013765646144747734
1782813996487563500,8.5245634765625,0.00006925984052941203,-0.0005791089497506618,0.0015790070174261928
1782813996507644700,8.544644775390625,0.0005806461558677256,0.0003750240430235863,-0.0004240628331899643
1782813996527726600,8.5647265625,0.0014100999105721712,0.0002095736563205719,-0.00044510187581181526
1782813996547808800,8.584808837890625,0.00047359088785015047,-0.0012186754029244184,0.000781997456215322
1782813996567889700,8.6048896484375,-0.0008930197218433022,0.00201580673456192,-0.0026768518146127462
1782813996587971600,8.6249716796875,0.0006684829713776708,0.0003459048457443714,-0.0008081016130745411
1782813996608053800,8.6450537109375,0.00044752092799171805,-0.002306474605575204,0.0034056585282087326
1782813996628135700,8.6651357421875,-0.00002842195681296289,0.0034193932078778744,-0.004248649813234806
1782813996648216800,8.685216796875,0.0007733875536359847,-0.0018139586318284273,0.0019966759718954563
1782813996668298800,8.705298828125,0.0013759604189544916,-0.0009493657853454351,0.001179213635623455
1782813996688380700,8.725380615234375,0.0015505527844652534,0.001342953648418188,-0.004834004677832127
1782813996708461600,8.745461669921875,-0.0004708380438387394,-0.0017906446009874344,0.0039660390466451645
1782813996728543500,8.76554345703125,0.00005276268348097801,0.0016545802354812622,-0.0024157792795449495
1782813996748625400,8.78562548828125,-0.0013787945499643683,-0.0005023488774895668,0.004008670337498188
1782813996768707600,8.80570751953125,-0.00017825252143666148,-0.0016636194195598364,-0.00010986486449837685
1782813996788788500,8.82578857421875,-0.001193277770653367,0.0027823178097605705,-0.0021112740505486727
1782813996808870700,8.84587060546875,-0.0008939262479543686,-0.003213038668036461,0.0025921135675162077
1782813996828952600,8.86595263671875,-0.0009553233976475894,0.002282042521983385,-0.0037199584767222404
1782813996849033500,8.886033447265625,0.0005478380480781198,-0.0017901707906275988,0.0008003091206774116
1782813996869115600,8.90611572265625,0.00007873473805375397,-0.000592236639931798,-0.0006405436433851719
1782813996889197600,8.926197509765625,0.0005458758678287268,0.00011962372809648514,-0.00005556340329349041
1782813996909279500,8.946279541015626,0.0005027077277190983,-0.0005391058512032032,0.0015317148063331842
1782813996929360600,8.966360595703126,0.0008475266513414681,0.0012847958132624626,-0.00100812129676342
1782813996949442600,8.986442626953124,0.00046767995809204876,-0.001842300407588482,0.0017200284637510777
1782813996969524700,9.006524658203125,-0.0008428380242548883,-0.0009865120518952608,0.0028715520165860653
1782813996989605600,9.026605712890625,0.000304675311781466,0.0019005173817276955,-0.0034529916010797024
1782813997009687600,9.0466875,0.00011785776587203145,-0.002262535272166133,0.003950969781726599
1782813997029769700,9.066769775390625,0.0002760456409305334,0.002624520566314459,-0.0022838127333670855
1782813997049851600,9.0868515625,0.00023844590759836137,-0.002080315025523305,0.001745190704241395
1782813997069932300,9.106932373046876,-0.00022854810231365263,-0.0008630417287349701,0.00007013324648141861
1782813997090014200,9.12701416015625,-0.0006952674011699855,0.0008583595044910908,-0.0005623633041977882
1782813997110096100,9.14709619140625,0.00012894562678411603,-0.002241340931504965,0.0004570491146296263
1782813997130177300,9.16717724609375,-0.00019269109179731458,0.0016948729753494263,-0.0012957844883203506
1782813997150259200,9.18725927734375,-0.0003416140971239656,-0.0009673626627773046,0.0025876464787870646
1782813997170341400,9.20734130859375,-0.000940475263632834,-0.0005594107788056135,0.0012781943660229445
1782813997190423300,9.22742333984375,-0.0002606161287985742,-0.0009218105114996433,0.00042329938150942326
1782813997210504200,9.247504150390625,-0.0015767829027026892,0.00033059902489185333,0.0006681657396256924
1782813997230586400,9.26758642578125,0.0002997805713675916,0.0008201655000448227,-0.005296353250741959
1782813997250668300,9.287668212890624,-0.0005508518079295754,-0.0005471110343933105,0.0013876580633223057
1782813997270749400,9.30774951171875,-0.0008096394594758749,0.00026538874953985214,-0.004513464868068695
1782813997290831400,9.327831298828125,0.00014912604819983244,0.00028187455609440804,0.0012894209939986467
1782813997310913300,9.347913330078125,0.00013650735490955412,-0.0011247715447098017,0.0005526033928617835
1782813997330994400,9.367994384765625,0.0017104583093896508,-0.0006808578036725521,-0.0001827329397201538
1782813997351076400,9.388076416015625,0.00029687798814848065,0.0008966559544205666,-0.001378288958221674
1782813997371158300,9.408158203125,-0.0010811984539031982,-0.000546138733625412,-0.0011635988485068083
1782813997391239400,9.428239501953126,0.00016606313874945045,-0.00025304779410362244,-0.0002381233498454094
1782813997411321300,9.4483212890625,-0.0005745022790506482,0.00015186890959739685,0.0003136489540338516
1782813997431403500,9.468403564453125,-0.0007436508312821388,-0.0008267310913652182,0.0007827433291822672
1782813997451485400,9.4884853515625,-0.00030566976056434214,0.000009447801858186722,0.0008881745161488652
1782813997471566000,9.508566162109375,0.0012627283576875925,-0.0008228591177612543,-0.0003743036650121212
1782813997491648300,9.528648193359375,-0.001284971134737134,-0.0010134507901966572,-0.0006760489195585251
1782813997511730200,9.548730224609375,-0.0010285351891070604,-0.0012800784315913916,-0.0003807882312685251
1782813997531811300,9.568811279296876,-0.0004118547076359391,-0.0005267106462270021,0.0020396243780851364
1782813997551893200,9.588893310546876,-0.0008222456090152264,-0.000039185862988233566,-0.001700007589533925
1782813997571975200,9.60897509765625,0.0013570389710366726,0.0007470352575182915,-0.000017466489225625992
1782813997592056300,9.629056396484375,0.002468898892402649,-0.000489786034449935,-0.0004748147912323475
1782813997612138200,9.64913818359375,-0.00003779403050430119,-0.0014569552149623632,-0.0003131967969238758
1782813997632220200,9.66922021484375,-0.00024254678282886744,0.0016989815048873425,-0.003188325557857752
1782813997652302300,9.68930224609375,-0.0003836388932541013,-0.002258660737425089,-0.00036901957355439663
1782813997672384300,9.70938427734375,-0.0011131605133414268,0.000733077060431242,0.0002909516915678978
1782813997692465400,9.72946533203125,0.0001428714022040367,-0.0006852042861282825,-0.002111515961587429
1782813997712547300,9.74954736328125,-0.00021369141177274287,0.000662914477288723,0.001116840518079698
1782813997732629200,9.769629150390625,-0.0003804297302849591,-0.001941092312335968,0.0009652792941778898
1782813997752710400,9.78971044921875,0.0005252314149402082,0.000014798250049352646,0.001916858833283186
1782813997772792300,9.809792236328125,-0.0004262636066414416,0.00032311584800481796,-0.002957007847726345
1782813997792874200,9.829874267578125,-0.000635353266261518,-0.0021608108654618263,0.0026862905360758305
1782813997812955400,9.849955322265625,0.0003880121512338519,-0.0004936198238283396,-0.0005730642005801201
1782813997833037300,9.870037353515626,-0.0003587538958527148,0.0005980413407087326,0.000992892892099917
1782813997853119500,9.890119384765624,-0.000761784496717155,0.001091756857931614,0.0020649523939937353
1782813997873201400,9.910201416015624,0.0001782999315764755,0.00015880214050412178,-0.0014819414354860783
1782813997893282300,9.9302822265625,0.000263903581071645,0.00014392146840691566,0.0012265624245628715
1782813997913364500,9.950364501953125,0.0002898648090194911,-0.0003930516541004181,-0.0008381912484765053
1782813997933446400,9.9704462890625,-0.00039021752309054136,-0.0000614747405052185,0.0017391392029821873
1782813997953528300,9.9905283203125,-0.0006543692434206605,0.0010958574712276459,-0.0003549046814441681
1782813997973609200,10.010609130859375,-0.0010840663453564048,0.0038204481825232506,0.0016854400746524334
1782813997993691100,10.030691162109376,-0.0009389822953380644,0.0003107651136815548,0.0007447958923876286
1782813998013773300,10.050773193359374,-0.0014075839426368475,-0.0004512129817157984,-0.0011991034261882305
1782813998033854200,10.070854248046874,-0.0013725473545491695,0.0030448907054960728,0.00394419627264142
1782813998053936000,10.09093603515625,0.0003492400865070522,0.0013102320954203606,-0.0009053067769855261
1782813998074017800,10.111017822265625,0.0030033295042812824,0.005485277622938156,0.005781109444797039
1782813998094099700,10.131099609375,0.0012410618364810944,0.020325077697634697,0.018360497429966927
1782813998114180900,10.151180908203125,-0.00004136771894991398,0.020297836512327194,0.06470321863889694
1782813998134262800,10.1712626953125,0.0012729971203953028,0.008038610219955444,0.003183590015396476
1782813998154344700,10.1913447265625,-0.000010063115041702986,-0.03050665184855461,-0.051051948219537735
1782813998174425900,10.21142578125,-0.0027782265096902847,-0.02140018902719021,-0.04280271381139755
