time,seconds_elapsed,z,y,x
1782812383706423800,0.062423828125,-0.0004750834486912936,-0.0001800640020519495,0.000650403555482626
1782812383726506800,0.0825068359375,0.0012186397798359394,-0.00048465654253959656,-0.00018610386177897453
1782812383746588700,0.102588623046875,-0.0005302219651639462,-0.00012680049985647202,-0.0007269899360835552
1782812383766672000,0.122671875,-0.00189588766079396,0.00014231819659471512,0.0007235751254484057
1782812383786753800,0.14275390625,0.0009808449540287256,-0.0011149863712489605,0.0012098380830138922
1782812383806836700,0.162836669921875,0.0019180236849933863,0.0004550372250378132,-0.0012597849126905203
1782812383826919000,0.1829189453125,0.0006844592280685902,0.0015871734358370304,0.0010995394550263882
1782812383847001900,0.203001953125,-0.0016660111723467708,0.00016397656872868538,0.00011997157707810402
1782812383867084300,0.223084228515625,-0.00031523319194093347,-0.0009718348737806082,-0.0017503516282886267
1782812383887167200,0.243167236328125,0.00031017104629427195,-0.00014618877321481705,-0.00037623406387865543
1782812383907249200,0.263249267578125,0.0003173446166329086,0.0003739502280950546,-0.0012907779309898615
1782812383927332000,0.28333203125,0.002106728497892618,-0.0005935633089393377,0.00016851606778800488
1782812383947414300,0.303414306640625,-0.0008464378188364208,-0.000028070993721485138,-0.00020798109471797943
1782812383967497500,0.32349755859375,-0.0003808359324466437,0.0008493112400174141,-0.0005375288892537355
1782812383987579400,0.343579345703125,-0.00010800325981108472,-0.0007368046790361404,0.0002328080590814352
1782812384007662300,0.363662353515625,0.00036655322765000165,-0.0014480049721896648,0.0003333010245114565
1782812384027744300,0.383744140625,0.0019095706520602107,0.0003747488372027874,-0.0012338210362941027
1782812384047827200,0.4038271484375,0.00021125742932781577,0.0005177976563572884,-0.0014693783596158028
1782812384067909000,0.4239091796875,-0.00017088762251660228,0.00011443160474300385,-0.0002013728953897953
1782812384087992000,0.443991943359375,-0.0002936550881713629,-0.0001036045141518116,-0.0007539342623203993
1782812384108074200,0.46407421875,-0.00043022524914704263,-0.000020920298993587494,0.0005492086056619883
1782812384128157400,0.484157470703125,0.0006284008268266916,-0.0017675110138952732,-0.0019407735671848059
1782812384148239400,0.5042392578125,0.0002879645908251405,0.0004214942455291748,0.00016002031043171883
1782812384168322300,0.524322265625,0.0001161702093668282,-0.0003998647443950176,-0.0005600100848823786
1782812384188404200,0.544404296875,-0.0019701425917446613,-0.0002989177592098713,-0.0004067299887537956
1782812384208487200,0.564487060546875,0.0006522606126964092,-0.0006151874549686909,0.0006898706778883934
1782812384228569300,0.5845693359375,0.00017272189143113792,-0.0009807173628360033,-0.00010105827823281288
1782812384248651300,0.6046513671875,-0.000048337555199395865,0.00023032212629914284,0.0007160283857956529
1782812384268734200,0.624734130859375,0.0008414335316047072,0.0007400009781122208,0.00018364819698035717
1782812384288816000,0.644816162109375,0.00009655237226979807,0.0006282245740294456,0.0010364369954913855
1782812384308899000,0.664899169921875,-0.0007437010062858462,-0.00018235482275485992,-0.0006513278931379318
1782812384328981200,0.684981201171875,-0.0005356960464268923,-0.00003146659582853317,-0.0011772126890718937
1782812384349064400,0.705064453125,0.00042060992564074695,0.00035463832318782806,0.0007985247066244483
1782812384369146400,0.725146484375,-0.00016450035036541522,-0.0012300903908908367,-0.0006408269982784986
1782812384389229300,0.745229248046875,-0.00002618683356558904,-0.00029420782811939716,-0.001294323243200779
1782812384409311200,0.765311279296875,0.0005466554430313408,-0.0002959449775516987,0.00006874138489365578
1782812384429394200,0.785394287109375,-0.0004264796734787524,0.0005554412491619587,-0.0002676460426300764
1782812384449476400,0.805476318359375,0.0003618441987782717,-0.0007107758428901434,-0.0006226883269846439
1782812384469559300,0.825559326171875,-0.0005928929895162582,-0.0002801294904202223,0.00014817831106483936
1782812384489641200,0.84564111328125,-0.0006777135422453284,0.00020331842824816704,0.001280052587389946
1782812384509724400,0.865724365234375,-0.00046492699766531587,-0.0005197299178689718,-0.0014930970501154661
1782812384529806300,0.885806396484375,0.00014409158029593527,0.0009562256745994091,0.0017269453965127468
1782812384549889300,0.90588916015625,0.0006974698626436293,0.000532869715243578,-0.0011097067035734653
1782812384569971200,0.92597119140625,0.0008157407864928246,0.000044625718146562576,-0.00024752202443778515
1782812384590054400,0.946054443359375,-0.00044445658568292856,-0.0009100281167775393,0.00006133108399808407
1782812384610136300,0.96613623046875,0.00012759433593600988,-0.0013725431635975838,0.00032689236104488373
1782812384630219300,0.98621923828125,0.0007742383750155568,-0.0005801357328891754,0.0005329148843884468
1782812384650301200,1.00630126953125,-0.0017774029402062297,-0.0006590411067008972,0.00033807125873863697
1782812384670384000,1.026384033203125,0.00029121118132025003,0.0005616606213152409,-0.0018746405839920044
1782812384690466000,1.046466064453125,-0.0006951502873562276,0.00021843891590833664,-0.0006718444637954235
1782812384710549200,1.06654931640625,0.0016082688234746456,0.000031608156859874725,-0.0001615290530025959
1782812384730631400,1.08663134765625,-0.0008288949029520154,-0.0016740495339035988,-0.001345279160887003
1782812384750714400,1.10671435546875,0.001376709551550448,-0.00022014323621988297,0.0009246793342754245
1782812384770796300,1.12679638671875,-0.00044757366413250566,-0.000750671373680234,0.0010450237896293402
1782812384790879200,1.146879150390625,0.0006281188689172268,-0.00012775510549545288,0.00012548104859888554
1782812384810961200,1.166961181640625,0.000520399771630764,0.0013342774473130703,0.00016577215865254402
1782812384831044000,1.187044189453125,-0.00066950055770576,-0.000719019677489996,0.00022356281988322735
1782812384851126300,1.207126220703125,-0.0006652555894106627,-0.0002695044968277216,-0.00007181195542216301
1782812384871219000,1.227218994140625,0.0003189615672454238,0.0007307678461074829,0.0012435147073119879
1782812384891300900,1.24730078125,0.0006068702205084264,-0.00007346738129854202,-0.0006183895748108625
1782812384911383000,1.267383056640625,0.0008244389318861067,-0.0010932816658169031,-0.00012616370804607868
1782812384931466000,1.287466064453125,0.0018904968164861202,-0.00007336726412177086,-0.0003688223659992218
1782812384951548200,1.307548095703125,0.00019012895063497126,0.001062070019543171,0.00012620515190064907
1782812384971631000,1.327631103515625,0.0008461144752800465,0.00040006358176469803,-0.00017210841178894043
1782812384991713000,1.347713134765625,0.00021676343749277294,-0.0005395570769906044,0.00013009016402065754
1782812385011796000,1.3677958984375,-0.00008254311978816986,-0.0002670625690370798,0.0012840990675613284
1782812385031878000,1.3878779296875,0.0009195850579999387,-0.0016078639309853315,0.00038291397504508495
1782812385051960800,1.4079609375,-0.0007155666826292872,-0.000645078020170331,0.0015867232577875257
1782812385072043000,1.42804296875,0.0007558386423625052,0.0006026569753885269,0.00031091482378542423
1782812385092126200,1.448126220703125,0.0009875635150820017,0.0007432405836880207,0.000705439830198884
1782812385112208100,1.4682080078125,0.0009129343670792878,0.000265754759311676,0.00033720582723617554
1782812385132291000,1.488291015625,0.00012704958498943597,-0.0006137208547443151,0.0010343920439481735
1782812385152373000,1.508373046875,0.0005869395681656897,0.0005416814237833023,0.0012597085442394018
1782812385172456000,1.5284560546875,-0.000920409569516778,-0.0001680511049926281,-0.000256961677223444
1782812385192538000,1.5485380859375,-0.0008463675621896982,-0.0010031412821263075,0.0019561704248189926
1782812385212621000,1.56862109375,0.0011539750266820192,-0.00031609879806637764,-0.0007842988707125187
1782812385232703000,1.588702880859375,0.0010451802518218756,0.0010973033495247364,0.0002002534456551075
1782812385252786000,1.608785888671875,0.0003927196958102286,0.0003503127954900265,-0.00008307653479278088
1782812385272867800,1.628867919921875,-0.00077348347986117,0.0003989720717072487,0.0009888011263683438
1782812385292951000,1.648950927734375,0.0009067143546417356,-0.0011505682487040758,0.0006157810566946864
1782812385313033200,1.669033203125,-0.0011713596759364009,0.00047993240877985954,-0.000605367124080658
1782812385333116200,1.6891162109375,-0.000696013099513948,0.00023127952590584755,0.0003857412375509739
1782812385353198000,1.709197998046875,0.0005693098064512014,0.0010662698186933994,-0.0008535583037883043
1782812385373280000,1.729280029296875,0.00015975686255842447,0.00016311323270201683,-0.0004385432694107294
1782812385393363000,1.749363037109375,0.00047159576206468046,-0.0007322048768401146,-0.000014169840142130852
1782812385413445000,1.769445068359375,-0.0004434490983840078,0.00024167634546756744,0.0003870365908369422
1782812385433528000,1.789528076171875,-0.0007401383481919765,-0.00008118804544210434,0.00011626677587628365
1782812385453610000,1.80960986328125,-0.0006631581345573068,0.00042963260784745216,-0.001109822653234005
1782812385473693200,1.829693115234375,-0.0010476269526407123,0.0001457473263144493,0.0019236011430621147
1782812385493775000,1.849775146484375,0.0008015874773263931,0.0011399979703128338,0.0003126068040728569
1782812385513858000,1.869858154296875,-0.0008728050743229687,0.00018334761261940002,-0.0011547536123543978
1782812385533940000,1.88993994140625,-0.0022994056344032288,-0.0017467550933361053,0.0011335705639794469
1782812385554023000,1.91002294921875,0.0009980847826227546,-0.00034286617301404476,0.0007478392217308283
1782812385574105000,1.93010498046875,-0.00027249084087088704,-0.0007508988492190838,-0.0004203550051897764
1782812385594188000,1.95018798828125,-0.0007681457209400833,0.0014930744655430317,-0.0002696290612220764
1782812385614270000,1.97027001953125,0.0016478602774441242,-0.0012304226402193308,-0.0010111674200743437
1782812385634353000,1.990352783203125,-0.000821465568151325,0.0015189829282462597,-0.0011640684679150581
1782812385654434800,2.010434814453125,0.00024140617460943758,-0.0001270398497581482,-0.0012865294702351093
1782812385674518000,2.03051806640625,0.0006675017066299915,-0.002143409103155136,0.001041413634084165
1782812385694600200,2.05060009765625,-0.0003423774032853544,0.0009898492135107517,-0.0012113398406654596
1782812385714683100,2.07068310546875,0.0005110229249112308,0.0007780957967042923,-0.00008166348561644554
1782812385734765000,2.09076513671875,0.0010364418849349022,-0.0003001184668391943,0.0004797588335350156
1782812385754848000,2.110847900390625,-0.00010068967822007835,0.0009517599828541279,0.0005860216915607452
1782812385774930000,2.130929931640625,0.001678667962551117,0.000985944177955389,-0.00030862423591315746
1782812385795012900,2.151012939453125,0.0008317744941450655,0.0002831229940056801,0.00005687912926077843
1782812385815095000,2.171094970703125,-0.0005157963023521006,-0.0007466722745448351,-0.0008877301588654518
1782812385835178000,2.191177978515625,0.0010227294405922294,0.0008829426951706409,-0.001805424690246582
1782812385855260200,2.21126025390625,0.00011252315016463399,-0.0002393038012087345,0.0010020298650488257
1782812385875332900,2.231332763671875,0.0006545062642544508,0.0006599007174372673,-0.0008357358165085316
1782812385895414800,2.251414794921875,0.00018531376554165035,-0.0012480169534683228,-0.00043062889017164707
1782812385915496700,2.27149658203125,0.001182131003588438,-0.00045873201452195644,0.0007046328391879797
1782812385935580000,2.291579833984375,-0.00023522422998212278,-0.0002957233227789402,0.0007466950919479132
1782812385955661800,2.311661865234375,-0.0010346842464059591,0.0005071964114904404,-0.0012173706199973822
1782812385975744800,2.331744873046875,-0.00021070794900879264,0.0011170469224452972,-0.0016529452987015247
1782812385995826700,2.35182666015625,-0.0014391436707228422,0.0009227246046066284,0.0006847030017524958
1782812386015909600,2.37190966796875,0.0014118123799562454,-0.00007457099854946136,0.0008805341785773635
1782812386035991600,2.391991455078125,-0.0007335874252021313,0.00022593513131141663,0.0004478276241570711
1782812386056074800,2.41207470703125,-0.00031146086985245347,0.00009726732969284058,0.00045994576066732407
1782812386076157000,2.432156982421875,0.0005436718929558992,-0.0003554204013198614,-0.0008998499251902103
1782812386096239900,2.452239990234375,-0.000798291526734829,-0.00043810438364744186,-0.0011963190045207739
1782812386116321800,2.47232177734375,0.0002533117076382041,0.0003663427196443081,-0.00002813548780977726
1782812386136404700,2.49240478515625,-0.0003564866492524743,-0.000009418930858373642,0.00030331267043948174
1782812386156486700,2.512486572265625,0.00020742793276440352,-0.00008052447810769081,-0.000035629142075777054
1782812386176569600,2.532569580078125,0.00012884299212601036,-0.0003077397122979164,-0.00012711784802377224
1782812386196651800,2.55265185546875,-0.0009155467269010842,-0.0005965894088149071,0.0011218969011679292
1782812386216735000,2.57273486328125,0.0005668062949553132,-0.0020371086429804564,0.0012422761647030711
1782812386236817000,2.59281689453125,-0.0013067075051367283,0.0008055567741394043,0.00042845727875828743
1782812386256899800,2.61289990234375,0.0008640214218758047,0.0001375456340610981,0.0010059039341285825
1782812386276981800,2.632981689453125,0.0003868143248837441,-0.0002401638776063919,-0.0014780245255678892
1782812386297064700,2.653064697265625,-0.0001763763721100986,-0.0011028305161744356,-0.00007684272713959217
1782812386317147000,2.67314697265625,0.0013419084716588259,-0.0004967954009771347,0.0005497700767591596
1782812386337229800,2.693229736328125,-0.0002692844718694687,-0.0007191798649728298,0.0007874862058088183
1782812386357311700,2.713311767578125,0.0006548084784299135,0.0003003263846039772,-0.0002807218115776777
1782812386377394700,2.733394775390625,0.0007362712058238685,-0.00012996699661016464,-0.0008389209397137165
1782812386397476600,2.7534765625,0.0009192130528390408,0.0005365950055420399,-0.0011902227997779846
1782812386417558800,2.773558837890625,0.0005181432934477925,-0.0011596349067986012,0.0000035096891224384308
1782812386437642000,2.79364208984375,-0.0018028967315331101,0.000587129034101963,0.002053085947409272
1782812386457724000,2.813723876953125,-0.0005946384044364095,0.0014298530295491219,0.0010006336960941553
1782812386477806800,2.833806884765625,0.0003990112745668739,-0.000060414429754018784,0.00024099089205265045
1782812386497888800,2.853888671875,0.001016841153614223,-0.00020672660320997238,0.0016049182740971446
1782812386517971700,2.8739716796875,0.00010423167259432375,0.00041283154860138893,0.0004207313759252429
1782812386538053600,2.8940537109375,-0.0003123448695987463,0.0007550045847892761,-0.00016858428716659546
1782812386558136600,2.914136474609375,0.0003347317688167095,-0.0004011555574834347,-0.00007553352043032646
1782812386578218800,2.93421875,0.0010656678350642323,0.00024640094488859177,0.00018443469889461994
1782812386598301700,2.9543017578125,-0.00004781218012794852,0.00022387783974409103,0.0005132455844432116
1782812386618384000,2.9743837890625,-0.000989203224889934,-0.0006188058760017157,0.0014592211227864027
1782812386638466800,2.994466796875,0.0012909467332065105,0.0016167527064681053,-0.00006964453496038914
1782812386658548700,3.014548828125,-0.001171428244560957,0.0002982579171657562,0.0007720473222434521
1782812386678631700,3.034631591796875,0.0005807584384456277,-0.0002298988401889801,0.002428049687296152
1782812386698713900,3.0547138671875,0.001574791269376874,0.0010089441202580929,0.0006819039117544889
1782812386718796800,3.074796875,0.0004173110064584762,-0.0005047442391514778,0.000283203786239028
1782812386738878700,3.094878662109375,-0.0013837015721946955,-0.0007710505742579699,-0.00019221403636038303
1782812386758961700,3.114961669921875,0.0005612220847979188,-0.00038232910446822643,-0.0006465783808380365
1782812386779043600,3.135043701171875,0.0010621625697240233,-0.0007288064807653427,0.00013719010166823864
1782812386799126800,3.155126708984375,0.0007204520516097546,0.001980044413357973,0.0005518870893865824
1782812386819209000,3.175208984375,-0.00008405349217355251,-0.0004354396369308233,0.000016903970390558243
1782812386839292000,3.1952919921875,0.0004762626485899091,0.0003597727045416832,-0.0008272186387330294
1782812386859373800,3.215373779296875,-0.00043146254029124975,-0.0007045406382530928,0.00011428166180849075
1782812386879457300,3.235457275390625,0.0009940365562215447,-0.0010444060899317265,-0.0012475685216486454
1782812386899539200,3.255539306640625,0.000767677731346339,0.0007208902388811111,-0.00033188471570611
1782812386919622100,3.2756220703125,0.00012530811363831162,-0.0002977317199110985,0.000825657625682652
1782812386939704000,3.2957041015625,0.00020062821567989886,-0.0007390209939330816,0.00005808682180941105
1782812386959786200,3.3157861328125,-0.0004134399932809174,0.00019378913566470146,0.00007007806561887264
1782812386979869200,3.335869140625,0.001859373995102942,-0.00019338075071573257,-0.0003749355673789978
1782812386999951000,3.355951171875,-0.0001675721723586321,-0.000129584688693285,-0.0013081817887723446
1782812387020034000,3.376033935546875,0.001224946929141879,0.0005595111288130283,-0.0014060274697840214
1782812387040116000,3.396115966796875,0.0010772175155580044,0.0009725475683808327,0.0008779641939327121
1782812387060199200,3.41619921875,0.0012524431804195046,0.00029861461371183395,0.0003550958354026079
1782812387080281300,3.43628125,-0.0007822065381333232,0.0005919053219258785,-0.0007274339441210032
1782812387100364300,3.4563642578125,-0.0005002584657631814,0.0002551525831222534,0.0010899797780439258
1782812387120446200,3.4764462890625,0.0005941598210483789,0.00017339549958705902,-0.00047163665294647217
1782812387140529200,3.496529052734375,-0.00019771997176576406,-0.0006232927553355694,0.0005926849553361535
1782812387160611000,3.516611083984375,-0.0009719223016873002,0.00038527045398950577,0.000183075200766325
1782812387180694000,3.536694091796875,0.0007769969524815679,0.0008939104154706001,0.00013701803982257843
1782812387200776200,3.556776123046875,0.00022438028827309608,-0.00040020933374762535,0.00004254933446645737
1782812387220859400,3.576859375,-0.001811796217225492,0.000600180123001337,-0.0006474140100181103
1782812387240941300,3.59694140625,-0.000014062999980524182,-0.0016814419068396091,-0.000867397291585803
1782812387261024300,3.617024169921875,-0.000059093901654705405,-0.002487565390765667,-0.0007059527561068535
1782812387281106200,3.637106201171875,-0.0004479559720493853,0.0006899754516780376,-0.001030046259984374
1782812387301189000,3.657189208984375,0.00031451345421373844,-0.00013819150626659393,0.0019063996151089668
1782812387321271300,3.677271240234375,-0.0006681602098979056,0.00010481895878911018,0.00028543872758746147
1782812387341354200,3.697354248046875,0.0004455632879398763,0.0005156551487743855,0.00033691106364130974
1782812387361436200,3.717436279296875,-0.000937407836318016,0.000439708586782217,-0.0004579564556479454
1782812387381519000,3.73751904296875,-0.0010271453065797687,-0.0011349210981279612,-0.0004191361367702484
1782812387401601000,3.75760107421875,-0.0015712934546172619,-0.00044780317693948746,-0.001023824093863368
1782812387421684200,3.777684326171875,-0.00032276869751513004,0.0009489511139690876,-0.0005327353719621897
1782812387441766100,3.79776611328125,-0.0020333542488515377,-0.0005119226407259703,0.0004229675978422165
1782812387461849000,3.81784912109375,0.0009084073826670647,0.0003674435429275036,-0.00015823612920939922
1782812387481931300,3.83793115234375,-0.0003541253099683672,-0.000802518567070365,0.001668400363996625
1782812387502014200,3.85801416015625,-0.0012091259704902768,-0.0003490746021270752,0.0000831920187920332
1782812387522096000,3.87809619140625,-0.0008571083890274167,-0.0004434280563145876,0.0006180678028613329
1782812387542179000,3.898178955078125,-0.0005031658220104873,0.0012638745829463005,0.0003235077019780874
1782812387562261000,3.918260986328125,0.0006965555949136615,-0.0014834320172667503,-0.0022615212947130203
1782812387582344200,3.93834423828125,-0.0019556886982172728,-0.00013527646660804749,0.002629270777106285
1782812387602426400,3.95842626953125,0.002228704746812582,-0.0005145841278135777,-0.00007143896073102951
1782812387622508300,3.97850830078125,0.000836233957670629,-0.0003234683535993099,-0.000014035031199455261
1782812387642591200,3.99859130859375,-0.00046405341709032655,-0.0007845552172511816,-0.0002503679133951664
1782812387662673200,4.018673095703125,-0.00044418469769880176,0.0003503700718283653,0.0000030114315450191498
1782812387682756000,4.038756103515625,-0.000975723029114306,-0.00033841002732515335,-0.0013737226836383343
1782812387702838300,4.05883837890625,-0.00019195833010599017,0.00013735750690102577,-0.00017311074770987034
1782812387722921200,4.078921142578125,0.0009041950106620789,-0.000354135874658823,0.00048448273446410894
1782812387743003100,4.099003173828125,0.0012377819512039423,-0.0002723822835832834,-0.0002864708658307791
1782812387763086000,4.119086181640625,0.0012872982770204544,0.0001002172939479351,0.00175642897374928
1782812387783168000,4.13916796875,0.000700948410667479,-0.0009306794963777065,0.00137164699845016
1782812387803251200,4.159251220703125,0.00021863303845748305,5.243346095085144e-7,0.0019662566483020782
1782812387823333400,4.17933349609375,0.0019264831207692623,-0.00026711286045610905,-0.0009665812831372023
1782812387843416300,4.199416259765625,0.0003184687811881304,-0.0001729005016386509,0.00017655105330049992
1782812387863498200,4.219498291015625,0.0001743570319376886,0.0010727629996836185,0.00028067920356988907
1782812387883581400,4.23958154296875,-0.00056239910190925,-0.00035773497074842453,0.0003816637909039855
1782812387903663400,4.259663330078125,0.000009015871910378337,-0.0007920761127024889,-0.0000023799948394298553
1782812387923746300,4.279746337890625,0.0003463422181084752,-0.00003091339021921158,0.001405136426910758
1782812387943828200,4.299828125,0.0012728541623800993,0.0016301628202199936,-0.00031723338179290295
1782812387963911200,4.3199111328125,-0.00005474472709465772,-0.0007657057140022516,-0.00000636884942650795
1782812387983993300,4.339993408203125,-0.0015101622557267547,0.00039010588079690933,-0.000015956349670886993
1782812388004076500,4.36007666015625,0.00001805138890631497,-0.001149920281022787,0.0010738405399024487
1782812388024158500,4.380158447265625,0.00045107907499186695,-0.000419865595176816,-0.0010560285300016403
1782812388044241400,4.400241455078125,-0.0003324646386317909,0.0005194353871047497,-0.0010788952931761742
1782812388064323300,4.4203232421875,0.001883133314549923,0.0003175763413310051,0.0009650519350543618
1782812388084406300,4.44040625,-0.00046657706843689084,0.0013986793346703053,0.0009906772756949067
1782812388104488400,4.460488525390625,-0.0006647162372246385,-0.0012295939959585667,-0.000775797525420785
1782812388124571400,4.4805712890625,-0.000059467609389685094,0.0006412719376385212,0.0005682547343894839
1782812388144653300,4.5006533203125,0.0013075877213850617,0.00032795732840895653,-0.0005287134554237127
1782812388164736500,4.520736572265625,-0.0008637184510007501,-0.0005844237748533487,-0.0006071566604077816
1782812388184818400,4.540818359375,-0.0017367196269333363,-0.0008506616577506065,0.0015359324170276523
1782812388204901400,4.5609013671875,0.001252828980796039,0.00014759879559278488,-0.0013576170895248652
1782812388224983600,4.580983642578125,0.0006267775897867978,0.00009330082684755325,0.00016228435561060905
1782812388245066500,4.60106640625,-0.0008563760202378035,0.0005736835300922394,0.00011729844845831394
1782812388265148400,4.6211484375,0.00029357505263760686,0.0018406123854219913,-0.0003184983506798744
1782812388285231400,4.6412314453125,0.0005561645957641304,0.0007265489548444748,-0.0009596839081496
1782812388305313300,4.661313232421875,0.00020676327403634787,-0.0011671488173305988,0.0002853886689990759
1782812388325396200,4.681396240234375,0.00016713942750357091,-0.001271999441087246,0.00001872214488685131
1782812388345478400,4.701478515625,-0.00011774121958296746,0.0005460688844323158,-0.00018667709082365036
1782812388365561600,4.7215615234375,0.0006256573833525181,-0.0005522659048438072,-0.00014727399684488773
1782812388385643500,4.7416435546875,0.00044800873729400337,-0.00010330276563763618,0.0012622596696019173
1782812388405726500,4.7617265625,-0.000566427013836801,0.00036995066329836845,0.0006237347843125463
1782812388425808400,4.781808349609375,0.0003731639008037746,0.0003952905535697937,0.00013149529695510864
1782812388445891300,4.801891357421875,-0.0007656801026314497,0.00048391101881861687,0.0013068374246358871
1782812388465973500,4.821973388671875,-0.00031878805020824075,-0.0004016545135527849,-0.0003857784904539585
1782812388486056400,4.842056396484375,0.00010711481445468962,-0.0009334280621260405,0.0003497826401144266
1782812388506138400,4.862138427734375,0.0006416464457288384,-0.0004516863264143467,-0.0002475806977599859
1782812388526221300,4.88222119140625,0.0013026116648688912,0.00026976969093084335,0.0007523334352299571
1782812388546303500,4.902303466796875,-0.000286534137558192,-0.0006097988225519657,0.0002271556295454502
1782812388566385400,4.922385498046875,-0.0006410201312974095,-0.000852114288136363,-0.0005203918553888798
1782812388586468400,4.94246826171875,0.0002098805853165686,-0.00021475926041603088,-0.0018742671236395836
1782812388606550500,4.962550537109375,-0.000650310714263469,0.0011933897621929646,-0.0002081983257085085
1782812388626633500,4.982633544921875,0.0007929169805720448,0.00013516750186681747,0.0005430092569440603
1782812388646715400,5.00271533203125,0.0014968421310186386,0.00046358536928892136,-0.0014191644731909037
1782812388666798300,5.02279833984375,0.00009442155715078115,-0.00038356613367795944,-0.0019195727072656155
1782812388686880300,5.04288037109375,0.0005016386858187616,0.0005004396662116051,-0.0013320045545697212
1782812388706963200,5.062963134765625,-0.00009362446144223213,-0.0005798814818263054,-0.000517864478752017
1782812388727045400,5.08304541015625,-0.0006382418796420097,0.0005777804180979729,0.0010911113349720836
1782812388747128600,5.103128662109375,-0.0012201321078464389,0.0007612118497490883,0.0005101088900119066
1782812388767210500,5.12321044921875,0.0000397943367715925,-0.0003295058850198984,0.0000048174988478422165
1782812388787293400,5.14329345703125,0.000378312892280519,-0.0008565685711801052,-0.0004947746638208628
1782812388807375400,5.163375244140625,0.0005005602142773569,0.00016103871166706085,0.00021164445206522942
1782812388827458300,5.183458251953125,-0.001278437441214919,-0.000012409873306751251,0.00011971988715231419
1782812388847540500,5.20354052734375,0.000007621158147230744,0.0002974271774291992,-0.0002755338791757822
1782812388867623000,5.223622802734375,0.0007296855328604579,-0.0001608068123459816,0.0011841928353533149
1782812388887704800,5.243704833984375,0.0004956665216013789,0.00047364644706249237,0.0007899273186922073
1782812388907787800,5.263787841796875,-0.000563490204513073,-0.0002715329173952341,-0.0006846957840025425
1782812388927869700,5.28386962890625,-0.0007738330168649554,-0.002521887421607971,-0.0020538982935249805
1782812388947953000,5.303952880859375,-0.00038289689109660685,-0.0006226873956620693,0.0008963806321844459
1782812388968035000,5.32403515625,0.0009039611904881895,-0.00039148470386862755,0.0002890913747251034
1782812388988743700,5.34474365234375,0.00009102252079173923,-0.000028125010430812836,0.00021521351300179958
1782812389008827000,5.364826904296875,-0.0005426805000752211,0.00020419852808117867,-0.00031883828341960907
1782812389028909000,5.384908935546875,0.000735485868062824,-0.00027533271349966526,0.0007521695224568248
1782812389048992000,5.404991943359375,-0.0019609371665865183,-0.00027754995971918106,-0.0010365555062890053
1782812389069074000,5.425073974609375,-0.0002735672751441598,0.0011006859131157398,0.00044311105739325285
1782812389089156900,5.445156982421875,-0.0007353504188358784,-0.0009638464543968439,0.000419128336943686
1782812389109238800,5.46523876953125,-0.00034600860089994967,0.0002563917078077793,0.000008550472557544708
1782812389129321700,5.48532177734375,-0.000701816170476377,-0.000408948864787817,-0.00036971038207411766
1782812389149404000,5.50540380859375,-0.000977874849922955,-0.0009662439115345478,0.001396823674440384
1782812389169487000,5.525487060546875,0.00031215345370583236,0.000028788577765226364,-0.0016876845620572567
1782812389189569000,5.545569091796875,0.000599479884840548,-0.00016448344103991985,0.0006021010922268033
1782812389209652000,5.56565185546875,0.0003848328778985888,-0.0018242914229631424,0.00013492349535226822
1782812389229734000,5.58573388671875,0.00035917325294576585,-0.0002334991004317999,-0.0016703298315405846
1782812389249816800,5.60581689453125,0.0009941384196281433,-0.00007729232311248779,-0.00004264037124812603
1782812389269899000,5.62589892578125,-0.00033748341957107186,0.001437487080693245,0.0004285543691366911
1782812389289982000,5.64598193359375,0.00004712020745500922,0.000169308390468359,0.0012524279300123453
1782812389310063900,5.66606396484375,0.0009507539798505604,0.0003043701872229576,-0.0007349103689193726
1782812389329519900,5.685519775390625,-0.00005675433203577995,0.00021223491057753563,0.0003616143949329853
1782812389349602000,5.70560205078125,-0.0009233981254510581,-0.00033560534939169884,0.0003669772995635867
1782812389369685000,5.72568505859375,0.0008361749351024628,0.0002250918187201023,0.0007416157750412822
1782812389389767000,5.745766845703125,0.0009346806327812374,0.0007779705338180065,-0.0008881413377821445
1782812389409849900,5.765849853515625,-0.0006399427074939013,-0.0018985909409821033,-0.0001084357500076294
1782812389429931800,5.785931884765625,0.00008353017619810998,0.0010168910957872868,0.0002888126764446497
1782812389450014700,5.8060146484375,0.00009711689199320972,0.00010456843301653862,0.001326957019045949
1782812389470097000,5.826096923828125,0.0006247551064006984,0.0004209214821457863,0.0006784893339499831
1782812389490179800,5.846179931640625,-0.00024302095698658377,0.00003479933366179466,-0.0002634392585605383
1782812389510261800,5.86626171875,0.0004966700216755271,0.0010786294005811214,-0.0003008674830198288
1782812389530345000,5.886344970703125,0.0008472483023069799,0.00025904085487127304,-0.0005498849786818027
1782812389550427000,5.906427001953125,0.0001142131513915956,0.0003034798428416252,-0.00007927604019641876
1782812389570509800,5.926509765625,-0.0007608025916852057,-0.00013677915558218956,0.0006253848550841212
1782812389590592000,5.946592041015625,-0.000022990861907601357,-0.0006002748850733042,-0.0014507900923490524
1782812389610675000,5.966675048828125,-0.0001844309881562367,-0.00036272197030484676,0.0015335561474785209
1782812389630756900,5.9867568359375,-0.0008463743724860251,0.00041614286601543427,0.0004732485394924879
1782812389650839800,6.00683984375,-0.00018422827997710556,0.0010687606409192085,-0.0009517651051282883
1782812389670921700,6.026921630859375,0.00006717315409332514,-0.0005408150609582663,-0.0012001788709312677
1782812389691005000,6.0470048828125,0.00011876705684699118,0.000017260201275348663,0.0011198545107617974
1782812389711087000,6.067087158203125,-0.0004440959310159087,0.0005464795976877213,0.000050367554649710655
1782812389731170000,6.087170166015625,0.0011982691939920187,-0.0004421570338308811,-0.00006106309592723846
1782812389751252000,6.107251953125,0.0004623842251021415,0.00022828299552202225,-0.0006224464159458876
1782812389771335000,6.1273349609375,-0.0006776893278583884,-0.0009875490795820951,0.001887555350549519
1782812389791416800,6.147416748046875,0.0009436174295842648,-0.0002652006223797798,-0.0012759859673678875
1782812389811499800,6.167499755859375,-0.00005371795850805938,0.00122119951993227,9.26898792386055e-7
1782812389831582000,6.18758203125,-0.0011013788171112537,-0.00009731389582157135,0.00024776370264589787
1782812389851665000,6.207664794921875,-0.0005413835751824081,-0.0009035812690854073,-0.00025465735234320164
1782812389871746800,6.227746826171875,0.00024408107856288552,0.0014192434027791023,-0.00037974491715431213
1782812389891829800,6.247829833984375,0.00028293990180827677,0.0005268543027341366,0.000794041552580893
1782812389911911700,6.26791162109375,0.0021280013024806976,-0.0007070244755595922,0.00024183676578104496
1782812389931994600,6.28799462890625,0.0007397625595331192,-0.0006467208731919527,-0.00010695145465433598
1782812389952076800,6.308076904296875,0.0011659959563985467,-0.0003104149363934994,-0.000013979151844978333
1782812389972159700,6.32815966796875,0.0002746574464254081,-0.0005498405080288649,-0.0004626307636499405
1782812389992242000,6.348241943359375,0.0002579907886683941,0.0002513062208890915,0.0011079636169597507
1782812390012324900,6.368324951171875,-0.00010113778989762068,-0.0004807664081454277,0.00006668106652796268
1782812390032406800,6.38840673828125,-0.00039968997589312494,-0.00036593456752598286,0.00012954534031450748
1782812390052489700,6.40848974609375,-0.0007653470383957028,0.00015617161989212036,0.0010228288592770696
1782812390072571600,6.428571533203125,-0.001098553417250514,-0.0006088768132030964,0.00033926847390830517
1782812390092654600,6.448654541015625,-0.0007857891614548862,0.00014103110879659653,0.00031831907108426094
1782812390112736800,6.46873681640625,0.00034336847602389753,0.0016690585762262344,-0.0016931253485381603
1782812390132819700,6.48881982421875,-0.000746820354834199,-0.0007358740549534559,-0.00012380932457745075
1782812390152901600,6.508901611328125,0.000840993772726506,-0.00013845553621649742,0.0004641348496079445
1782812390172984800,6.52898486328125,-0.0009641700307838619,-0.0006682139355689287,0.00046160444617271423
1782812390193066800,6.549066650390625,-0.0011167647317051888,0.00027249380946159363,-0.0008702848572283983
1782812390213149700,6.569149658203125,0.0016096309991553426,0.0003862716257572174,0.000471988576464355
1782812390233232000,6.58923193359375,0.0015354795614257455,-0.0009790214244276285,0.00019799917936325073
1782812390253314800,6.609314697265625,-0.0014330322155728936,0.000911748968064785,0.0007263902807608247
1782812390273396700,6.629396728515625,0.0010719753336161375,-0.001537353964522481,0.00030749780125916004
1782812390293479700,6.649479736328125,-0.00012504875485319644,-0.00008784141391515732,0.0010324452305212617
1782812390313561600,6.6695615234375,-0.0005820430815219879,0.0001250854693353176,0.0006326464936137199
1782812390333644800,6.689644775390625,0.000512694357894361,-0.0019355479162186384,0.00033388962037861347
1782812390353727700,6.709727783203125,0.0010780744487419724,-0.00015634344890713692,0.0005133314989507198
1782812390373810000,6.729809814453125,-0.0006802612915635109,-0.000524038914591074,-0.0006086803041398525
1782812390393892900,6.749892822265625,0.00003536240546964109,-0.00045352173037827015,-0.0013137324713170528
1782812390413974800,6.769974853515625,-0.0012063567992299795,0.00012305565178394318,0.000652565504424274
1782812390434056700,6.790056640625,-0.00037115978193469346,0.0007354868575930595,0.0005893534980714321
1782812390454139600,6.8101396484375,-0.0005146318580955267,0.000046255532652139664,0.0014841670636087656
1782812390474222600,6.83022265625,-0.000597235863097012,-0.0004443076904863119,-0.00024267565459012985
1782812390494304800,6.8503046875,-0.0012565797660499811,-0.0013706847093999386,-0.0008667570073157549
1782812390514388000,6.870387939453125,-0.000853717268910259,0.00009428057819604874,0.00043017463758587837
1782812390534470000,6.890469970703125,-0.0006895441329106688,0.0005425629206001759,-0.0000812129583209753
1782812390554552800,6.910552734375,0.00025659712264314294,0.0013182093389332294,-0.00012977095320820808
1782812390574634800,6.930634765625,0.0002608100767247379,0.00018278509378433228,-0.000497256638482213
1782812390594717700,6.9507177734375,-0.0008500084513798356,-0.0002872580662369728,-0.0014266993384808302
1782812390614799600,6.970799560546875,-0.0008655831916257739,0.0003264830447733402,0.0012978487648069859
1782812390634882800,6.9908828125,-0.00004588888259604573,0.00020393263548612595,0.0008422057144343853
1782812390654964700,7.01096484375,-0.0003470086958259344,-0.0003801095299422741,-0.0004901657812297344
1782812390675048000,7.0310478515625,0.0013827161164954305,-0.00015380303375422955,0.0019176732748746872
1782812390695129900,7.0511298828125,0.0002594006364233792,0.00039998767897486687,-0.00003696419298648834
1782812390715212800,7.071212890625,-0.0007739454158581793,0.0006008632481098175,0.0008274955907836556
1782812390735294700,7.091294677734375,0.000016680278349667788,-0.00021190079860389233,0.0003371390048414469
1782812390755377700,7.111377685546875,-0.00003750657197088003,-0.00012366753071546555,-0.001439802348613739
1782812390775459800,7.1314599609375,-0.0005870096501894295,0.00012772111222147942,-0.0005320750642567873
1782812390795542800,7.151542724609375,-0.0010126559063792229,0.0007310798391699791,-0.0007288514170795679
1782812390815624700,7.171624755859375,-0.0005782905500382185,0.00020790845155715942,-0.0003826997708529234
1782812390835707600,7.191707763671875,0.0030197077430784702,0.00025327643379569054,-0.0012420963030308485
1782812390855789600,7.21178955078125,-0.0005571317160502076,-0.00006851460784673691,0.00009830319322645664
1782812390875873300,7.231873291015625,-0.00022196435020305216,-0.0007895100861787796,0.0005511934868991375
1782812390895955200,7.251955078125,-0.0010269766207784414,-0.0006785772275179625,-0.00040075392462313175
1782812390916038400,7.272038330078125,0.0007828304078429937,-0.0003753933124244213,-0.0014135732781141996
1782812390936120300,7.292120361328125,0.00017506210133433342,0.00012510083615779877,0.00008087186142802238
1782812390956203300,7.312203369140625,-0.000370558729628101,0.0015266123227775097,-0.0008811908774077892
1782812390976285200,7.33228515625,-0.0004582547990139574,0.0001953369937837124,-0.00013526645489037037
1782812390996368100,7.3523681640625,-0.0013882670318707824,-0.0008946969173848629,-0.00033357972279191017
1782812391016450000,7.372449951171875,0.000021538144210353494,-0.0013497991021722555,0.0002541877329349518
1782812391036533200,7.392533203125,-0.0009102284675464034,-0.001233487157151103,0.0006530855316668749
1782812391056615400,7.412615478515625,0.0007689164485782385,0.00028663408011198044,-0.0005049195606261492
1782812391076698400,7.432698486328125,0.0006464426987804472,0.0013154535554349422,0.0000012612435966730118
1782812391096780300,7.4527802734375,0.0004374049021862447,-0.0012034012470394373,-0.0012617416214197874
1782812391116863200,7.47286328125,-0.000410327163990587,0.0013677622191607952,0.0005843782564625144
1782812391136945200,7.492945068359375,-0.00022361744777299464,-0.0012530316598713398,0.00017338106408715248
1782812391157028000,7.513028076171875,0.0008358539780601859,0.0003292066976428032,-0.0013988115824759007
1782812391177110300,7.5331103515625,-0.00008681911276653409,0.0014882632531225681,-0.0017092821653932333
1782812391197193500,7.553193359375,-0.0010032567661255598,0.00047398125752806664,0.0006249388679862022
1782812391217275400,7.573275390625,-0.0010173285845667124,-0.00007070833817124367,0.00018552038818597794
1782812391237358300,7.5933583984375,-0.00006182317156344652,0.0015877149999141693,-0.0003838792908936739
1782812391257440300,7.613440185546875,-0.00045252684503793716,-0.0005533038638532162,0.000005468027666211128
1782812391277523200,7.633523193359375,-0.0006443059537559748,0.0011639711447060108,-0.0005730215925723314
1782812391297605400,7.65360546875,-0.0014781501377001405,-0.0006477055139839649,-0.0012959640007466078
1782812391317688300,7.673688232421875,0.0003249092842452228,-0.00017173797823488712,-0.00028512394055724144
1782812391337770200,7.693770263671875,-0.00017627447959966958,-0.0009324366692453623,0.0001273718662559986
1782812391357853200,7.713853271484375,0.000014401302905753255,0.0006882869638502598,0.0016085770912468433
1782812391377935000,7.73393505859375,-0.0011979051632806659,-0.0003598886542022228,-0.001400199020281434
1782812391398018300,7.754018310546875,-0.0006039394065737724,0.0013423506170511246,0.0007934665773063898
1782812391418100500,7.7741005859375,-0.0008421086822636425,-0.001478360965847969,-0.000078234588727355
1782812391438183400,7.794183349609375,0.0007246112800203264,-0.0013234822545200586,-0.00014090235345065594
1782812391458265300,7.814265380859375,0.00007620235555805266,0.0004503452219069004,-0.0005343875382095575
1782812391478348300,7.834348388671875,-0.001022140495479107,-0.00024008937180042267,-0.0014254709240049124
1782812391498430200,7.85443017578125,-0.0001309278013650328,-0.0007076023612171412,-0.00031653186306357384
1782812391518513200,7.87451318359375,-0.00005099028203403577,-0.000818904023617506,0.00018239370547235012
1782812391538595000,7.894594970703125,-0.0002795663895085454,0.0007935627363622189,-0.000059492653235793114
1782812391558678300,7.91467822265625,0.002271088305860758,0.0018030847422778606,-0.00020369840785861015
1782812391578760400,7.934760498046875,0.0007663978030905128,-0.0009356364607810974,-0.0006221903022378683
1782812391598843400,7.954843505859375,-0.0016981149092316628,0.0004468970000743866,0.0003321673721075058
1782812391618925300,7.97492529296875,-0.00008305717346956953,0.00015440862625837326,-0.0020430805161595345
1782812391639008300,7.99500830078125,0.00014719209866598248,0.0004383604973554611,0.0004953647730872035
1782812391659090200,8.015090087890625,0.00023283361224457622,0.0001114923506975174,-0.0013105976395308971
1782812391679173000,8.035173095703126,-0.0005986375035718083,-0.0004368752706795931,-0.0015644417144358158
1782812391699255300,8.05525537109375,0.00027105549816042185,0.0005687731318175793,-0.0011716126464307308
1782812391719338200,8.075338134765625,0.000913444731850177,-0.0003518403973430395,-0.0017327144742012024
1782812391739420200,8.095420166015625,-0.00037839775905013084,0.00015866104513406754,-0.0007783782202750444
1782812391759503400,8.11550341796875,0.00037052412517368793,0.0013307016342878342,0.0013905430678278208
1782812391779585300,8.135585205078126,0.0004841968766413629,0.000059281475841999054,0.00011702696792781353
1782812391799668200,8.155668212890625,-0.0008223827462643385,0.000656448770314455,0.00005192565731704235
1782812391819750400,8.17575048828125,0.00006125336221884936,-0.00037856120616197586,-0.00032976968213915825
1782812391839833300,8.195833251953125,0.00030156210414133966,0.0004768236540257931,0.0011259622406214476
1782812391859915300,8.215915283203126,-0.0013101240620017052,-0.0005123582668602467,-0.0010248338803648949
1782812391879998200,8.235998291015624,0.000306561152683571,-0.0007243026047945023,0.000035346485674381256
1782812391900080000,8.256080078125,0.0007102915551513433,-0.00009122677147388458,0.00002550729550421238
1782812391920163000,8.2761630859375,-0.00021569336240645498,0.0005946634337306023,-0.0007933555170893669
1782812391940245200,8.296245361328126,-0.0005460217362269759,-0.0008428788278251886,-0.00045192218385636806
1782812391960328200,8.316328125,-0.00009384854638483375,0.0004917709156870842,-0.00043640099465847015
1782812391980410000,8.33641015625,-0.0004772295942530036,0.0004312652163207531,-0.001947029260918498
1782812392000493000,8.3564931640625,0.0016521408688277006,0.000008511822670698166,-0.0010465369559824467
1782812392020575000,8.376574951171875,-0.0004948690766468644,-0.001244730083271861,-0.00010037189349532127
1782812392040658200,8.396658203125,-0.00013397051952779293,0.0011916705407202244,-0.0026930898893624544
1782812392060740400,8.416740234375,0.0011811194708570838,0.0010077888146042824,-0.00027054152451455593
1782812392080823300,8.4368232421875,-0.0014179720310494304,-0.000851975753903389,-0.001143885776400566
1782812392100905200,8.4569052734375,0.001957542961463332,0.00110193295404315,0.0006142978090792894
1782812392120988200,8.47698828125,4.4881744543090463e-7,0.0008589006029069424,-0.0008273159619420767
1782812392141070000,8.497070068359376,-0.00026578293181955814,-0.000515037914738059,-0.0007141598034650087
1782812392161153000,8.517153076171875,-0.0008052662597037852,0.0007484634406864643,-0.0008112157229334116
1782812392181235200,8.537235107421875,0.0006651033763773739,-0.000668275635689497,-0.000008784467354416847
1782812392201318100,8.557318115234375,0.0014008565340191126,0.0007279976271092892,-0.0002585190813988447
1782812392221400300,8.577400390625,0.0008243067422881722,0.00039833830669522285,-0.00010813819244503975
1782812392241483300,8.597483154296874,0.00042354839388281107,0.0011212457902729511,-0.0007256984245032072
1782812392261565200,8.617565185546875,-0.000043602358346106485,-0.0015325043350458145,0.0005930067272856832
1782812392281648000,8.637648193359375,-0.0011026260908693075,0.0003325291909277439,-0.0002362886443734169
1782812392301730000,8.65772998046875,0.0013914175797253847,0.00039450405165553093,0.00027792295441031456
1782812392321813000,8.67781298828125,0.000380731129553169,-0.0003589943516999483,-0.0009776847437024117
1782812392341895200,8.697895263671874,0.0002899430110119283,-0.001737609738484025,-0.001964310184121132
1782812392361978000,8.71797802734375,0.00031288841273635626,-0.0006248520221561193,-0.0004091446753591299
1782812392382060000,8.73806005859375,-0.00022922936477698386,0.0005314741283655167,-0.0001380417961627245
1782812392402143200,8.758143310546876,-0.0003763225977309048,-0.00006919959560036659,-0.00020595942623913288
1782812392422225200,8.77822509765625,0.0009035574621520936,0.0005515296943485737,0.0009593780850991607
1782812392442308000,8.79830810546875,0.00012325125862844288,0.00008148187771439552,0.0008629716467112303
1782812392462390300,8.818390380859375,0.000515289546456188,-0.0019705200102180243,0.0001349982339888811
1782812392482473200,8.83847314453125,0.00026313852868042886,-0.000254760030657053,-0.0003676130436360836
1782812392502555100,8.85855517578125,-0.000009219344065058976,-0.0003701613750308752,-0.00009767827577888966
1782812392522638000,8.87863818359375,-0.00020883775141555816,0.000018765684217214584,0.0003283668775111437
1782812392542720000,8.898719970703125,0.0020004739053547382,-0.0009615249000489712,-0.0010483742225915194
1782812392562803000,8.918802978515625,-0.00021448339975904673,-0.0003658526111394167,0.0014240593882277608
1782812392582885000,8.938885009765626,0.0010430903639644384,-0.00042971549555659294,0.00009733298793435097
1782812392602968300,8.95896826171875,0.0002550199278630316,0.0006012404337525368,-0.000673194881528616
1782812392623050200,8.97905029296875,0.0001588724844623357,-0.0007611056789755821,-0.0006272620521485806
1782812392643133200,8.99913330078125,-0.000050504291721154004,0.0003556320443749428,-0.0021073089446872473
1782812392663215000,9.019215087890625,0.0010310901561751962,-0.0009181720670312643,0.002437048824504018
1782812392683298000,9.039298095703124,-0.0012345213908702135,0.00024551665410399437,-0.0000923739280551672
1782812392703380200,9.059380126953124,-0.00037613033782690763,0.001268529798835516,0.001189645379781723
1782812392723463200,9.079463134765625,0.0005439494852907956,-0.0006735899951308966,0.0014703552005812526
1782812392743545000,9.099545166015625,-0.0005792363081127405,-0.00031116208992898464,-0.0004413288552314043
1782812392763628300,9.119628173828126,-0.0009420174174010754,0.00016140751540660858,-0.0008915991056710482
1782812392783710200,9.139710205078124,0.00019116923795081675,0.00019754935055971146,-0.0005742742214351892
1782812392803793200,9.159793212890625,-0.00035053881583735347,0.00030834833160042763,0.0000014414545148611069
1782812392823875000,9.179875,0.001026573940180242,-0.0006623875815421343,-0.0016844880301505327
1782812392843958000,9.1999580078125,-0.00037693994818255305,-0.0019793359097093344,-0.0002832813188433647
1782812392864040200,9.220040283203126,0.0005672311526723206,0.0008669709786772728,-0.0008505810983479023
1782812392884123400,9.240123291015625,-0.0014213364338502288,-0.00006122700870037079,0.00037290342152118683
1782812392904205300,9.260205322265625,-0.0010354622500017285,0.0007355744019150734,-0.0009350331965833902
1782812392924288300,9.280288330078125,-0.000013215307262726128,0.001169402152299881,-0.0004725889302790165
1782812392944370200,9.3003701171875,0.0014334989245980978,0.0005425466224551201,-0.0006292012985795736
1782812392964453000,9.320453125,0.0014207332860678434,0.0008674156852066517,-0.00008658133447170258
1782812392984535300,9.340535400390625,0.002372536575421691,-0.0006847181357443333,0.0009181570494547486
1782812393004617200,9.3606171875,-0.00015717280621174723,-0.0005266920197755098,-0.001332464860752225
1782812393024700200,9.3807001953125,0.000038512516766786575,0.0006750808097422123,-0.000294368015602231
1782812393044782000,9.400781982421876,0.0010982194216921926,0.0008164066821336746,0.00009035365656018257
1782812393064865300,9.420865234375,-0.001133935758844018,-0.0007446357049047947,-0.00006519421003758907
1782812393084947500,9.440947509765625,-0.001453517354093492,0.0011425432749092579,0.0005711972480639815
1782812393105030400,9.461030517578125,-0.0009397845715284348,-0.00017703883349895477,0.00011807610280811787
1782812393125112300,9.4811123046875,-0.0005596527480520308,0.001243067905306816,-0.0007965259719640017
1782812393145195300,9.5011953125,-0.0004387843073345721,-0.001211998751387,-0.0007564343977719545
1782812393165277200,9.521277099609375,-0.0003111385740339756,0.0008914517238736153,-0.00009841006249189377
1782812393185360100,9.541360107421875,0.0005619684234261513,-0.00017998204566538334,0.000611118390224874
1782812393205442300,9.5614423828125,-0.00026854028692469,-0.001851569628342986,-0.0002679165918380022
1782812393225525500,9.581525390625,0.0004692012444138527,-0.0005285204388201237,-0.0004206150770187378
1782812393245607400,9.601607421875,-0.000052425224566832185,-0.0009626606479287148,-0.0003271999303251505
1782812393265690400,9.6216904296875,-0.0001504961255704984,0.0012548300437629223,0.0006445577600970864
1782812393285772300,9.641772216796875,0.0008873741026036441,-0.001305299811065197,0.0003205118700861931
1782812393305855200,9.661855224609376,0.000005280598998069763,-0.0002440528478473425,-0.0007314335089176893
1782812393325937200,9.681937255859374,-0.00005451886681839824,-0.0003727979492396116,-0.00025120051577687263
1782812393346020000,9.70202001953125,0.0012725663837045431,-0.000964359613135457,0.0006073244148865342
1782812393366102300,9.722102294921875,-0.0018173502758145332,0.0003815894015133381,-0.0006590166594833136
1782812393386185200,9.742185302734375,0.000647075823508203,0.0003394056111574173,-0.0007643494755029678
1782812393406267100,9.76226708984375,-0.0009492416866123676,0.00025057047605514526,-0.00005659344606101513
1782812393426350300,9.782350341796874,0.0008136407705023885,-0.0002187469508498907,0.00035826023668050766
1782812393446432300,9.802432373046875,-0.0007826151559129357,0.00022869138047099113,0.0006873947568237782
1782812393466515200,9.82251513671875,-0.0007355357520282269,0.00000232551246881485,0.000854531186632812
1782812393486597400,9.842597412109376,0.00006759536336176097,-0.0009859399870038033,-0.00046543520875275135
1782812393506680300,9.862680419921874,0.0005344244418665767,0.00017928984016180038,-0.0009113657288253307
1782812393526762200,9.88276220703125,-0.00015606159286107868,-0.0009010566864162683,-0.0018783456180244684
1782812393546845200,9.90284521484375,0.001001146505586803,-0.0005000876262784004,-0.00018129334785044193
1782812393566928100,9.92292822265625,0.0009435971733182669,0.00033513782545924187,-0.0019199387170374393
1782812393587010300,9.94301025390625,0.00004635151708498597,0.0008317283354699612,0.0011026030406355858
1782812393607093200,9.96309326171875,-0.0014573606895282865,-0.0004206129815429449,0.00069191784132272
1782812393627175400,9.983175537109375,0.0004935452016070485,-0.0004669646732509136,-0.0007718480192124844
1782812393647258400,10.00325830078125,-0.0006496168789453804,-0.0012243855744600296,0.00034830509684979916
1782812393667340300,10.02334033203125,0.00167891348246485,0.00011134613305330276,0.0005127215990796685
1782812393687423200,10.04342333984375,0.0008879886008799076,-0.0005097184330224991,0.0005223453044891357
1782812393707505200,10.063505126953125,-0.0010519978823140264,-0.001044899458065629,0.0003893990069627762
1782812393727588000,10.083588134765625,0.0005106260068714619,-0.0005642012692987919,-0.0013239465188235044
1782812393747670300,10.103670166015625,-0.0017941873520612717,0.00032975757494568825,-0.0003631953150033951
1782812393767753500,10.12375341796875,0.00044934492325410247,-0.0007735444232821465,-0.0011723486240953207
1782812393787835400,10.14383544921875,-0.00013982277596369386,-0.0004060107748955488,0.0008775650057941675
1782812393807918300,10.16391845703125,-0.0005462162662297487,-0.0003060020972043276,0.00040825747419148684
1782812393828000300,10.184000244140625,0.0007557932403869927,0.0007920055650174618,0.0007713640807196498
1782812393848083200,10.204083251953126,0.0002142661833204329,-0.00045617111027240753,-0.0006878820713609457
1782812393868165400,10.224165283203124,0.0004355620185378939,0.0016620690003037453,-0.0000655150506645441
1782812393888248000,10.244248046875,-0.0018367572920396924,0.04498524218797684,0.013664036989212036
1782812393908330000,10.264330078125,0.0008063893183134496,0.009425254538655281,0.0030989046208560467
1782812393928413000,10.284412841796875,0.0010175755014643073,-0.005564817693084478,-0.0010456100571900606
1782812393948494800,10.304494873046876,0.0008455327479168773,-0.013784334063529968,-0.005257503129541874
1782812393968577800,10.324577880859374,0.0007760644075460732,-0.011325777508318424,-0.0035339025780558586
1782812393988660000,10.344659912109375,-0.0008999309502542019,-0.0036067350301891565,-0.0014530150219798088
