time,seconds_elapsed,z,y,x
1782812396694820000,0.065820068359375,0.0011522460263222456,0.00044838106259703636,-0.0010248760227113962
1782812396714903000,0.085903076171875,-0.00006823746662121266,-0.000012545846402645111,-0.00007924414239823818
1782812396734985200,0.105985107421875,-0.00024111240054480731,0.000501987524330616,-0.00045118643902242184
1782812396755068200,0.126068115234375,0.000022299165721051395,0.0009479019790887833,-0.0004177093505859375
1782812396775150000,0.146150146484375,-0.0004831649421248585,0.0012188851833343506,0.0017263423651456833
1782812396795233000,0.16623291015625,-0.001367635908536613,0.0005804719403386116,0.0008708733366802335
1782812396815315000,0.18631494140625,-0.0008674846030771732,-0.0009769315365701914,-0.0002562939189374447
1782812396835398100,0.206398193359375,0.00024547867360524833,0.00038238242268562317,-0.0011516965460032225
1782812396855480300,0.226480224609375,-0.00012735358905047178,0.0007368624210357666,-0.0009315703064203262
1782812396875563000,0.24656298828125,-0.0000996643939288333,-0.000852854922413826,-0.00026955315843224525
1782812396895645000,0.26664501953125,-0.0017818016931414604,-0.0010381548199802637,-0.0016473829746246338
1782812396915728000,0.286727783203125,0.0002670139365363866,0.0007757921703159809,0.00027182907797396183
1782812396935809800,0.306809814453125,0.00046700850361958146,0.000085487961769104,-0.0023475384805351496
1782812396955892700,0.326892822265625,-0.0006488559301942587,-0.0010540788061916828,-0.0020972013007849455
1782812396975975000,0.346974853515625,0.00025934763834811747,0.000025526154786348343,-0.0009902161546051502
1782812396996058000,0.36705810546875,-0.0008722911588847637,0.00045744236558675766,-0.00018592341803014278
1782812397016140000,0.38714013671875,0.0005069056060165167,-0.0010172845795750618,0.0022115325555205345
1782812397036223000,0.407222900390625,0.0003070430248044431,-0.0006336879450827837,0.0005589964566752315
1782812397056305000,0.427304931640625,0.0008146564359776676,-0.0003901217132806778,0.0013580345548689365
1782812397076387800,0.447387939453125,0.000872920616529882,0.0003422652371227741,0.00008560554124414921
1782812397096469800,0.4674697265625,-0.0005393138853833079,-0.0007207919843494892,-0.00015958258882164955
1782812397116552700,0.487552734375,0.0003783753782045096,-0.00041737104766070843,-0.0002571756485849619
1782812397136635000,0.507634765625,-0.0003057850990444422,0.0006480328738689423,-0.00035097752697765827
1782812397156717800,0.5277177734375,0.0004697680415119976,-0.0002769671846181154,-0.0008761563804000616
1782812397176799700,0.5477998046875,-0.00043268647277727723,0.0009528864175081253,-0.0004550472367554903
1782812397196883000,0.567883056640625,0.0000713507179170847,0.0006072348915040493,-0.00027767778374254704
1782812397216964900,0.58796484375,0.001748903188854456,-0.00013911188580095768,-0.0012151252012699842
1782812397237047800,0.6080478515625,-0.001109181554056704,0.00030085956677794456,0.00136701506562531
1782812397257130000,0.6281298828125,0.00015387049643322825,-0.0008663367480039597,0.001220745500177145
1782812397277213000,0.648212890625,0.0006950445240363479,-0.0013390660751610994,0.0001941472291946411
1782812397297294800,0.668294921875,-0.0012248362181708217,-0.0005279441829770803,-0.0004059083294123411
1782812397317377800,0.688377685546875,-0.000464737880975008,0.00036099599674344063,-0.000017602229490876198
1782812397337459700,0.708459716796875,0.0014833349268883467,-0.0011543829459697008,-0.00019221892580389977
1782812397357543000,0.72854296875,-0.0012183269718661904,0.0010629799216985703,-0.0006234738975763321
1782812397377625000,0.748625,-0.000870976597070694,-0.00031768553890287876,0.0006552933482453227
1782812397397708000,0.7687080078125,-0.0014074647333472967,0.00010285386815667152,0.0001642939168959856
1782812397417790000,0.7887900390625,-0.0007545771077275276,-0.00037401216104626656,0.0001446818932890892
1782812397437873000,0.808872802734375,0.000768803060054779,-0.000046642497181892395,-0.0005568501073867083
1782812397457954800,0.828954833984375,0.0008511134656146169,0.0012481501325964928,-0.00015750760212540627
1782812397478037800,0.849037841796875,0.0003248350985813886,-0.0006061994936317205,0.0005414070328697562
1782812397498120000,0.869119873046875,-0.0008062352426350117,-0.000002027023583650589,-0.0002396602649241686
1782812397518203000,0.889202880859375,-0.0008469225140288472,-0.0002175129484385252,-0.0009162644855678082
1782812397538284800,0.909284912109375,0.00005383763345889747,0.00010883389040827751,0.0010007851524278522
1782812397558368000,0.929367919921875,-0.001767522539012134,-0.00023793638683855534,-0.0012402969878166914
1782812397578450000,0.949449951171875,0.0015807000454515219,0.00042991433292627335,-0.0002540762070566416
1782812397598532900,0.969532958984375,-0.00007102997915353626,-0.00040251598693430424,0.0008583237649872899
1782812397618615800,0.98961572265625,0.0005315261660143733,0.00038007739931344986,-0.00016973167657852173
1782812397638698000,1.009697998046875,-0.0007521598599851131,0.0005075209774076939,0.00037285732105374336
1782812397658780000,1.02977978515625,0.0002040234685409814,-0.002050781389698386,0.000015676720067858696
1782812397678862800,1.04986279296875,-0.0009168825345113873,0.00023500947281718254,0.0006767075974494219
1782812397698944800,1.06994482421875,0.0004897625767625868,-0.0004900204949080944,-0.000719812698662281
1782812397719028000,1.090028076171875,-0.0009530892129987478,-0.00024340837262570858,-0.0004726231563836336
1782812397739110000,1.11010986328125,0.0008852649480104446,-0.0001683467999100685,0.0002047056332230568
1782812397759192800,1.13019287109375,0.0005158073036000133,-0.0005362024530768394,0.000499752233736217
1782812397779275800,1.15027587890625,-0.00007140144589357078,-0.0012724241241812706,-0.00007308716885745525
1782812397799358000,1.17035791015625,0.00038773263804614544,0.00041003432124853134,-0.0005724886432290077
1782812397819441000,1.19044091796875,-0.0016727681504562497,0.00029077427461743355,0.00025869719684123993
1782812397839522800,1.210522705078125,-0.0006011321092955768,0.00040280353277921677,-0.0003862478770315647
1782812397859605800,1.230605712890625,-0.0004288002965040505,0.0016698995605111122,-0.000056946417316794395
1782812397879688400,1.2506884765625,0.0006015423568896949,-0.0003032765816897154,0.0002816272899508476
1782812397899771400,1.270771484375,-0.0015104674967005849,-0.0006889547221362591,0.0011739260517060757
1782812397919853600,1.290853515625,0.0006089574890211225,-0.00037395255640149117,0.00037829659413546324
1782812397939936500,1.3109365234375,0.000019715545931831002,0.0006185178644955158,0.00017858995124697685
1782812397960018400,1.331018310546875,-0.0013148465659469366,-0.00037071038968861103,-0.0007256614044308662
1782812397980101400,1.351101318359375,0.00004792204708792269,-0.0009300743695348501,-0.0006782840937376022
1782812398000183300,1.371183349609375,0.000356315664248541,0.000683072954416275,0.0009129634127020836
1782812398020266200,1.391266357421875,-0.0021585305221378803,0.0006018481217324734,-0.00026628654450178146
1782812398040348400,1.411348388671875,-0.000592817843426019,0.0003238930366933346,-0.0016901141498237848
1782812398060431400,1.431431396484375,0.00008079892722889781,-0.0003268793225288391,-0.00035501900129020214
1782812398080513500,1.451513427734375,0.0006563671631738544,0.001414658036082983,0.0007720193825662136
1782812398100596500,1.471596435546875,0.0006094878190197051,-0.000873340293765068,-0.0000038049183785915375
1782812398120678400,1.491678466796875,-0.0010538870701566339,0.000667414627969265,0.00012957770377397537
1782812398140761300,1.51176123046875,-0.00016295973910018802,0.00003649666905403137,-0.00020833080634474754
1782812398160843300,1.53184326171875,-0.000026443638489581645,-0.0005399498622864485,0.0005717932945117354
1782812398180926200,1.55192626953125,0.0006253367755562067,-0.0005753356963396072,0.0001488639973104
1782812398201008400,1.57200830078125,0.00019907552632503211,0.001318866852670908,0.0012025634059682488
1782812398221091300,1.59209130859375,-0.0017228710930794477,-0.00026624370366334915,-0.00017450773157179356
1782812398241173200,1.61217333984375,0.0011948492610827088,-0.00001788698136806488,0.00017733685672283173
1782812398261256400,1.63225634765625,-0.0007721855654381216,0.0011024777777493,-0.0015854411758482456
1782812398281338400,1.65233837890625,-0.00016506017709616572,-0.00006345845758914948,0.00011514709331095219
1782812398301421300,1.67242138671875,-0.000041362771298736334,-0.0013448521494865417,0.000025701476261019707
1782812398321503500,1.69250341796875,0.0002707362873479724,-0.00008143670856952667,0.0008021583780646324
1782812398341586400,1.71258642578125,0.0007908516563475132,0.00024160509929060936,-0.00022821850143373013
1782812398361668400,1.73266845703125,-0.00024218851467594504,-0.0015371202025562525,0.0005347770638763905
1782812398381751300,1.752751220703125,0.0008827057317830622,0.00011407583951950073,-0.000860854983329773
1782812398401833200,1.772833251953125,-0.0004758712893817574,0.0008202958852052689,-0.0013786428608000278
1782812398421916400,1.79291650390625,0.001753342105075717,-0.00013108877465128899,-0.0016242819838225842
1782812398441998600,1.81299853515625,-0.00010005834337789565,0.00029987888410687447,-0.0010425825603306293
1782812398462081500,1.83308154296875,0.0006224661483429372,-0.0006486622150987387,0.0004014287842437625
1782812398482163500,1.85316357421875,0.000906132161617279,0.0023736092261970043,0.0007803556509315968
1782812398502246400,1.873246337890625,-0.00032086632563732564,0.0006919964216649532,0.000544422073289752
1782812398522328300,1.893328369140625,0.0006182297365739942,0.0004570460878312588,-0.0016429442912340164
1782812398542411300,1.913411376953125,-0.0010813097469508648,-0.0003505393397063017,-0.0004889317788183689
1782812398562493400,1.933493408203125,0.0006660046055912971,0.00032143061980605125,0.00027065491303801537
1782812398582576400,1.953576416015625,0.0004396082367748022,-0.00031910440884530544,-0.0005492537748068571
1782812398602658300,1.973658203125,0.0028841772582381964,0.0012958403676748276,0.0008889018790796399
1782812398622741500,1.993741455078125,0.0004529437283053994,0.00038432609289884567,-0.000029743416234850883
1782812398642823400,2.013823486328125,-0.0013950132997706532,0.0012152460403740406,-0.00009430921636521816
1782812398662906400,2.03390625,0.0001599957759026438,0.0006387610919773579,0.001896943082101643
1782812398682988300,2.05398828125,-0.0004943859530612826,-0.00003419490531086922,0.0005060473922640085
1782812398703071200,2.0740712890625,0.0004103944229427725,0.0004195133224129677,0.0008353558368980885
1782812398723153400,2.0941533203125,0.000987333245575428,-0.00004273140802979469,-0.00033425772562623024
1782812398743236400,2.114236328125,0.0004627417656593025,0.0009655202738940716,-0.000025549205020070076
1782812398763318300,2.134318359375,0.001937235938385129,-0.00032095983624458313,0.0002249504905194044
1782812398783401500,2.1544013671875,-0.0002306127134943381,-0.0014420095831155777,0.0004284445894882083
1782812398803483400,2.1744833984375,0.0006657819030806422,0.0002294899895787239,0.0002702802885323763
1782812398823566300,2.19456640625,0.0013353086542338133,0.0007384968921542168,-0.00001543154940009117
1782812398843648500,2.2146484375,0.0016544889658689499,0.0013805190101265907,-0.0001877439208328724
1782812398863731500,2.2347314453125,0.0013291866052895784,0.00027109403163194656,0.0008922084234654903
1782812398883813000,2.254813232421875,-0.00011616054689511657,0.0006006457842886448,-0.00017086276784539223
1782812398903896000,2.27489599609375,0.0004999425145797431,-0.0014780680648982525,-0.000050367321819067
1782812398923978000,2.29497802734375,-0.0004091256414540112,0.0009177862666547298,-0.001141407759860158
1782812398944061000,2.31506103515625,0.0009653267916291952,-0.0000498797744512558,0.00028823642060160637
1782812398964143000,2.33514306640625,0.0012088896473869681,0.0005001886747777462,-0.0005281479097902775
1782812398984226300,2.355226318359375,-0.0007904038648121059,0.0002037486992776394,-0.0005697684828191996
1782812399004308200,2.37530810546875,-0.00023406099353451282,-0.00006308546289801598,-0.00041482062079012394
1782812399024391200,2.39539111328125,-0.00021923606982454658,0.0007232073694467545,0.00028334581293165684
1782812399044473000,2.41547314453125,0.00014678575098514557,0.0001246812753379345,-0.0005039996467530727
1782812399064556000,2.43555615234375,0.0002964501327369362,0.0008632498793303967,0.000012291595339775085
1782812399084638200,2.45563818359375,-0.0002994482929352671,-0.0011211903765797615,0.0002984281163662672
1782812399104721200,2.47572119140625,-0.0016198193188756704,0.0009855502285063267,-0.0008966031018644571
1782812399124803000,2.495802978515625,-0.0005378053756430745,0.00005036965012550354,-0.0017089734319597483
1782812399144886000,2.515885986328125,0.0007706362521275878,-0.00014330679550766945,0.00016058306209743023
1782812399164968200,2.53596826171875,-0.0005174762336537242,-0.001096332911401987,0.0006580111803486943
1782812399185051100,2.556051025390625,0.00017851789016276598,0.0002922201529145241,0.0013183404225856066
1782812399205133300,2.57613330078125,0.00009351130574941635,0.0005986113101243973,-0.0007624756544828415
1782812399225216300,2.59621630859375,-0.0011822041124105453,0.0015133433043956757,-0.0005614084657281637
1782812399245298200,2.616298095703125,-0.000014174176612868905,-0.0008916722144931555,-0.0008593795355409384
1782812399265381000,2.636381103515625,0.0005596959963440895,-0.0003683732356876135,-0.0013973868917673826
1782812399285463000,2.656463134765625,0.0008936265367083251,-0.0008777237962931395,-0.0006907028146088123
1782812399305546000,2.6765458984375,-0.00026850958238355815,-0.0005473010241985321,-0.0002069480251520872
1782812399325628200,2.696628173828125,0.0000715231872163713,-0.00011153519153594971,-0.00023571541532874107
1782812399345711000,2.716711181640625,0.00032831740099936724,-0.0009082090109586716,-0.0005414553452283144
1782812399365793300,2.736793212890625,-0.0004257944237906486,0.0001437254250049591,0.00044618314132094383
1782812399385876200,2.756876220703125,0.0006289845914579928,0.0010015475563704967,-0.0006637722253799438
1782812399405958100,2.776958251953125,0.0015665333485230803,0.00044827116653323174,0.00015964615158736706
1782812399426041000,2.797041015625,-0.0003038954164367169,0.0009707026183605194,-0.0009383291471749544
1782812399446123000,2.817123046875,-0.00004604857531376183,0.002406423445791006,-0.00018424587324261665
1782812399466206000,2.8372060546875,0.0004074954194948077,-0.00021458324044942856,-0.0004052435979247093
1782812399486288100,2.8572880859375,-0.00043923925841227174,0.0004368601366877556,-0.00018005026504397392
1782812399506371000,2.87737109375,0.000921260507311672,0.0011050649918615818,0.0003084705676883459
1782812399526453000,2.897452880859375,-0.001079862006008625,0.0004476555623114109,0.00024201488122344017
1782812399546536200,2.9175361328125,0.0005923921708017588,0.0003441539593040943,0.0003228369168937206
1782812399566618000,2.9376181640625,-0.0007346486672759056,0.0002726130187511444,-0.001498916419222951
1782812399586701000,2.957701171875,0.0005463495035655797,0.0005906843580305576,0.0010627058800309896
1782812399606783200,2.977783203125,0.000542039459105581,0.0005127266049385071,0.0018784275744110346
1782812399626866200,2.9978662109375,0.0005537798861041665,0.0002774791792035103,0.0002225672360509634
1782812399646948000,3.017947998046875,0.0013342725578695536,-0.0007016283925622702,0.0004493506858125329
1782812399667031000,3.038031005859375,-0.0004817934241145849,0.00014293985441327095,0.0015470696380361915
1782812399687113000,3.058113037109375,0.0012650663265958428,-0.001005115220323205,0.00012529036030173302
1782812399707196200,3.078196044921875,0.0017153191147372127,0.0010667424649000168,0.0007671809289604425
1782812399727278300,3.0982783203125,0.0008894524653442204,-0.0002060092519968748,-0.0005508486647158861
1782812399747361300,3.118361328125,-0.0007129442528821528,0.00027878955006599426,-0.001168892253190279
1782812399767443200,3.138443115234375,0.000047526758862659335,-0.001059018773958087,-0.0007686510216444731
1782812399787526100,3.158526123046875,-0.0007302192971110344,-0.0007900942582637072,0.00013906997628509998
1782812399807608000,3.178608154296875,0.0012554599670693278,0.0009251455776393414,-0.0014003016985952854
1782812399827691000,3.19869091796875,0.0010570187587291002,-0.0001824402716010809,-0.00009031035006046295
1782812399847773200,3.218773193359375,0.000865585170686245,-0.0003660048823803663,0.00006016227416694164
1782812399867856100,3.238856201171875,-0.0009850322967395186,0.0007295063696801662,-0.00025293626822531223
1782812399887938000,3.25893798828125,0.0005606269114650786,0.00005831895396113396,0.001101985340937972
1782812399908021000,3.27902099609375,0.0004745854821521789,0.0006507984362542629,0.00029874430038034916
1782812399928103000,3.29910302734375,-0.000731409527361393,-0.0003793973010033369,-0.0007746191695332527
1782812399948185900,3.319185791015625,-0.00037215370684862137,-0.0009941915050148964,0.0009099515154957771
1782812399968268000,3.33926806640625,0.0002273211139254272,-0.0008860037196427584,-0.00006593437865376472
1782812399988351000,3.35935107421875,0.00036050728522241116,0.00006484799087047577,-0.0010973005555570126
1782812400008433000,3.379432861328125,-0.0006887981435284019,-0.0005546296015381813,0.0015567743685096502
1782812400028516000,3.39951611328125,-0.0010941687505692244,-0.0015546232461929321,-0.0005468742456287146
1782812400048598000,3.419597900390625,-0.0009793436620384455,-0.0014222371391952038,-0.00028781057335436344
1782812400068681000,3.439680908203125,0.00018808030290529132,-0.001993049867451191,0.0005437098443508148
1782812400088763000,3.459762939453125,0.0002334126620553434,-0.00036463793367147446,-0.0005145552568137646
1782812400108845800,3.479845703125,-0.0006742326077073812,-0.0007679574191570282,0.0005174607504159212
1782812400128928000,3.499927978515625,-0.0006523500196635723,0.00021447241306304932,-0.0009662860538810492
1782812400149011000,3.520010986328125,0.00022010807879269123,-0.0012399984989315271,0.00014623301103711128
1782812400169094100,3.54009423828125,-0.0007496107136830688,0.0009215548634529114,0.00010100030340254307
1782812400189176000,3.560176025390625,0.0021224883385002613,-0.00007017562165856361,0.0013002719497308135
1782812400209259000,3.580259033203125,0.0014606817858293653,0.00027701398357748985,0.00006540073081851006
1782812400229341000,3.6003408203125,-0.0006333340425044298,-0.0008750292472541332,0.00044534646440297365
1782812400249424000,3.620423828125,0.00035965500865131617,-0.0004780387971550226,0.00000651925802230835
1782812400269506000,3.640506103515625,0.0002489442122168839,0.000222653616219759,-0.000339059391990304
1782812400289589000,3.660589111328125,0.0008942121639847755,-0.00013023661449551582,-0.0009678737260401249
1782812400309671000,3.6806708984375,-0.0005343710072338581,-0.0006782494019716978,0.0007160248933359981
1782812400329753900,3.70075390625,-0.0004189282190054655,-0.00010637054219841957,-0.0012755277566611767
1782812400349835800,3.720835693359375,-0.0006402941653504968,0.0008508446626365185,0.0013378448784351349
1782812400369919000,3.7409189453125,-0.000796591630205512,0.00008802628144621849,-0.00004615983925759792
1782812400390001200,3.761001220703125,-0.000005212845280766487,-0.0005920554976910353,0.0007393644191324711
1782812400410084000,3.781083984375,-0.00026753093698062,-0.0004725828766822815,-0.00034687435254454613
1782812400430166000,3.801166015625,-0.0006872362573631108,0.0006785043515264988,-0.00041411188431084156
1782812400450249000,3.8212490234375,-0.0016273882938548923,-0.0002799360081553459,0.0008072034688666463
1782812400470331000,3.841330810546875,-0.00028102853684686124,0.00033507775515317917,-0.001357985194772482
1782812400490413800,3.861413818359375,0.000745779019780457,0.0013038101606070995,0.0005035785725340247
1782812400510496000,3.88149609375,0.0012337298830971122,-0.0009529977105557919,-0.0001453920267522335
1782812400530579000,3.901578857421875,0.00046216027112677693,0.00009356020018458366,-0.0008689865935593843
1782812400550660900,3.921660888671875,0.0007093198946677148,-0.00048352801240980625,0.0000564351212233305
1782812400570744000,3.941744140625,-0.0003885086625814438,-0.0003467276692390442,0.0008823135867714882
1782812400590826000,3.961825927734375,0.0004134721530135721,0.0010899389162659645,-0.000129426596686244
1782812400610909000,3.981908935546875,0.0011269496753811836,0.0009570494294166565,-0.001283570658415556
1782812400630991000,4.0019912109375,-0.0008724289946258068,-0.000799346249550581,0.0011405289405956864
1782812400651074000,4.022073974609375,-0.0006466213380917907,0.0009157415479421616,-0.0006888252682983875
1782812400671156000,4.042156005859375,0.00021468230988830328,0.001013361383229494,0.0004220756236463785
1782812400691239000,4.062239013671875,0.000744986638892442,-0.00023347768001258373,0.0005836109630763531
1782812400711320800,4.08232080078125,-0.0012490104418247938,0.00043863989412784576,-0.0014951559714972973
1782812400731404000,4.102404052734375,0.0004078787751495838,-0.0009587896056473255,-0.001488379668444395
1782812400751486000,4.12248583984375,-0.0007248944020830095,0.0016518929041922092,0.0013755197869613767
1782812400771569000,4.14256884765625,0.0011932470370084047,0.0007944651879370213,-0.0009022078011184931
1782812400791651000,4.162651123046875,-0.0008271356346085668,-0.0004337246064096689,-0.0008020568639039993
1782812400811734000,4.182734130859375,0.0014798855409026146,0.00016410322859883308,0.0009577390737831593
1782812400831816000,4.20281591796875,-0.0013126542326062918,0.000575660727918148,0.0012927931966260076
1782812400851899000,4.22289892578125,-0.0012355605140328407,0.00035151606425642967,0.0009319970849901438
1782812400871980800,4.242980712890625,0.0011603758903220296,0.00010663317516446114,0.0010191574692726135
1782812400892064500,4.263064453125,0.00037838041316717863,-0.0000054622069001197815,-0.0001617036759853363
1782812400912146700,4.283146728515625,0.00009967037476599216,-0.0011066962033510208,0.001077623455785215
1782812400932229600,4.303229736328125,-0.001084847142919898,0.00009978935122489929,-0.0006005589384585619
1782812400952311600,4.3233115234375,0.0006410980131477118,-0.00005059223622083664,-0.0011182678863406181
1782812400972394800,4.343394775390625,-0.0008470903267152607,-0.00046225846745073795,0.000650289817713201
1782812400992476700,4.3634765625,0.0011582243023440242,-0.0006442514713853598,0.00009664078243076801
1782812401012559600,4.3835595703125,-0.0007924522506073117,-0.0009254964534193277,-0.0004556989297270775
1782812401032641500,4.4036416015625,-0.0006819413974881172,-0.0001582286786288023,-0.0015133097767829895
1782812401052724500,4.423724365234375,0.0008640786982141435,-0.000007476191967725754,0.00013631698675453663
1782812401072806700,4.443806640625,-0.0005093388026580215,-0.0001650797203183174,-0.00036325608380138874
1782812401092889600,4.4638896484375,-0.0006388919427990913,0.0001827985979616642,0.0002707696985453367
1782812401112971500,4.483971435546875,0.0014179067220538855,0.0007090838626027107,0.0011825597612187266
1782812401133054500,4.504054443359375,0.00038243000744841993,-0.00033788522705435753,0.00003634323365986347
1782812401153136400,4.524136474609375,-0.00010171695612370968,-0.0003310111351311207,-0.0003552918788045645
1782812401173219600,4.544219482421875,0.001588360290043056,-0.00046443543396890163,-0.000028353650122880936
1782812401193301800,4.5643017578125,0.001061779330484569,-0.0005255837459117174,0.0006987305823713541
1782812401213384700,4.584384765625,0.0014062979025766253,0.000019984785467386246,-0.0015317096840590239
1782812401233466600,4.604466552734375,0.00016821271856315434,-0.0003766096197068691,0.0005941013805568218
1782812401253549600,4.624549560546875,0.001150510273873806,-0.0006572394631803036,-0.0006097799632698298
1782812401273631500,4.644631591796875,-0.001443477813154459,0.00031477585434913635,-0.0001833704300224781
1782812401293714400,4.66471435546875,0.0014984234003350139,-0.00017423229292035103,0.0005909675965085626
1782812401313796600,4.684796630859375,-0.00034613400930538774,-0.00007193954661488533,0.0001504316460341215
1782812401333879800,4.7048798828125,-0.00007620532414875925,0.00018028123304247856,0.0005043722921982408
1782812401353961700,4.724961669921875,-0.00013426934310700744,0.0011868798173964024,-0.000750287901610136
1782812401374044700,4.745044677734375,-0.0011258937884122133,0.0007876376621425152,0.0015593786956742406
1782812401394126600,4.765126708984375,0.00033481064019724727,0.0005376124754548073,-0.0011982670985162258
1782812401414209500,4.78520947265625,0.00045731995487585664,0.0003609159030020237,-0.0025760603602975607
1782812401434291700,4.805291748046875,0.0003519390011206269,-0.0006799125112593174,-0.0008806281257420778
1782812401454374700,4.825374755859375,0.00047880076454021037,-0.000354336341843009,-0.00047617964446544647
1782812401474456600,4.84545654296875,0.00024541583843529224,0.0024618767201900482,-0.0005041870754212141
1782812401494539500,4.86553955078125,0.0012852090876549482,0.0017860769294202328,-0.0011747602839022875
1782812401514621400,4.885621337890625,-0.0009499525185674429,0.0008897283114492893,-0.0004624307621270418
1782812401534704600,4.90570458984375,0.0011439304798841476,0.0006836596876382828,-0.0009806952439248562
1782812401554786600,4.92578662109375,-0.0021045212633907795,0.000033311545848846436,0.0003503586631268263
1782812401574869800,4.945869873046875,-0.0006906621856614947,-0.0008507983293384314,-0.0006023524329066277
1782812401594951700,4.96595166015625,0.0003012975212186575,-0.0009333326015621424,0.001086143427528441
1782812401615034600,4.98603466796875,-0.0004386011278256774,0.00027445703744888306,0.001644232776015997
1782812401635116500,5.006116455078125,-0.000019603146938607097,-0.0014435583725571632,-0.0010797935537993908
1782812401655199500,5.026199462890625,-0.0002695946313906461,0.0011574579402804375,0.00021337228827178478
1782812401675281400,5.046281494140625,0.0004603522829711437,-0.000029073096811771393,-0.0010400055907666683
1782812401695364400,5.0663642578125,0.0008081657579168677,0.0016903621144592762,-0.0015495908446609974
1782812401715446800,5.08644677734375,0.00014302902854979038,-0.0006319130770862103,-0.0012732299510389566
1782812401735529700,5.10652978515625,0.0008312275167554617,-0.0009341510012745857,-0.0015118306037038565
1782812401755611600,5.126611572265625,-0.0010926352115347981,0.0002963780425488949,-0.00002625398337841034
1782812401775694600,5.146694580078125,0.000642458675429225,0.0008053779602050781,-0.0005774667952209711
1782812401795776500,5.166776611328125,0.0010729996720328927,0.0011865855194628239,-0.0005069049075245857
1782812401815859500,5.186859375,0.0010601684916764498,-0.00044067692942917347,-0.0008954028598964214
1782812401835941600,5.206941650390625,0.0010733876843005419,-0.0011262467596679926,-0.0007843906059861183
1782812401856024600,5.227024658203125,0.0009189528645947576,0.00007775146514177322,0.00014985748566687107
1782812401876106500,5.2471064453125,-0.00042458699317649007,0.0013039428740739822,-0.0007899287156760693
1782812401896188700,5.267188720703125,0.0012836483074352145,-0.0011092128697782755,0.0006564483046531677
1782812401916270800,5.287270751953125,0.0007072556763887405,0.0012909909710288048,-0.00030901748687028885
1782812401936354000,5.30735400390625,0.0002534686354920268,0.0009207590483129025,0.00046140910126268864
1782812401956436000,5.32743603515625,0.0003224317915737629,0.0010389364324510098,0.0003465337213128805
1782812401976519000,5.347518798828125,-0.000059854501159861684,0.0018995827995240688,0.00021628732793033123
1782812401996600800,5.367600830078125,0.00002684412174858153,0.00017840741202235222,-0.001042117364704609
1782812402016683800,5.387683837890625,-0.00006834694067947567,0.00022421358153223991,0.00027143885381519794
1782812402036765700,5.407765625,-0.0010951301082968712,-0.0012010438367724419,0.000357598764821887
1782812402056848600,5.4278486328125,0.0020222605671733618,0.0005125016905367374,0.00033469730988144875
1782812402076930800,5.447930908203125,0.00048372449236921966,-0.0001723472960293293,0.0003786301240324974
1782812402097014000,5.468013916015625,-0.0005830337759107351,-0.00025273486971855164,0.00005740532651543617
1782812402117096000,5.488095947265625,-0.00016774897812865674,-0.0005716746672987938,-0.0018004074227064848
1782812402137179000,5.508178955078125,0.0005394755280576646,0.001020247582346201,-0.0007180157117545605
1782812402157260800,5.5282607421875,0.001405913382768631,-0.0012001274153590202,-0.00003536115400493145
1782812402177343700,5.54834375,-0.0013747059274464846,0.0003720601089298725,-0.0008429123554378748
1782812402197426000,5.568426025390625,-0.00007699616253376007,0.0009833797812461853,-0.00046464335173368454
1782812402217508900,5.5885087890625,0.0017667071660980582,-0.0007598388474434614,0.00008319364860653877
1782812402237590800,5.6085908203125,-0.0005465583526529372,0.0004615979269146919,0.0003258537035435438
1782812402257673700,5.628673828125,0.0005677342414855957,-0.0007622872944921255,-0.0009927188511937857
1782812402277755600,5.648755615234375,0.0005953204818069935,0.00048286421224474907,-0.0002766745164990425
1782812402297838800,5.6688388671875,-0.0006463011377491057,-0.0006973324343562126,-0.00037522800266742706
1782812402317921800,5.688921875,0.00009055403643287718,-0.0005934473592787981,0.00018244958482682705
1782812402338004000,5.70900390625,0.001968195429071784,0.0012676962651312351,-0.0013571991585195065
1782812402358087000,5.7290869140625,-0.0009878943674266338,0.0006936178542673588,0.00042898370884358883
1782812402378168800,5.7491689453125,0.0010446296073496342,0.0002326839603483677,-0.0010784079786390066
1782812402398251800,5.769251708984375,0.0002694708527997136,0.0004969099536538124,-0.0018626854289323092
1782812402418335000,5.7893349609375,-0.0005398229695856571,0.001276079099625349,0.00012528314255177975
1782812402438417000,5.8094169921875,0.000645949796307832,-0.00018617138266563416,-0.00005303858779370785
1782812402458499800,5.829499755859375,0.001360845984891057,-0.00025938614271581173,0.000930685200728476
1782812402478582000,5.84958203125,0.00009685260010883212,0.00045769987627863884,0.0009433182422071695
1782812402498665000,5.8696650390625,-0.0022458741441369057,-0.00048730638809502125,0.0008331374265253544
1782812402518747000,5.889746826171875,0.0009287037537433207,-0.0002306331880390644,-0.0012761300895363092
1782812402538829800,5.909829833984375,0.00045260071055963635,-0.0010758622083812952,-0.00021841260604560375
1782812402558911700,5.929911865234375,0.0017647672211751342,-0.0002834969200193882,-0.00026072608307003975
1782812402578994700,5.94999462890625,-0.00013751338701695204,-0.0002788715064525604,-0.0006512051913887262
1782812402599076900,5.970076904296875,-0.0003706515417434275,-0.00008939346298575401,-0.0009178253822028637
1782812402619160000,5.99016015625,0.0005758952465839684,0.0008668168447911739,-0.0005453827325254679
1782812402639242000,6.010241943359375,-0.0012246726546436548,0.0010177153162658215,0.00029524369165301323
1782812402659325000,6.030324951171875,-0.0006513645639643073,-0.0007481670472770929,0.000022413907572627068
1782812402679406800,6.05040673828125,0.00030006596352905035,-0.0005556372925639153,0.0006142405327409506
1782812402699489800,6.07048974609375,0.00024146022042259574,-0.0015236439649015665,0.00036711874417960644
1782812402719571700,6.09057177734375,-0.0003663930401671678,-0.000362263061106205,-0.0016914806328713894
1782812402739654700,6.110654541015625,0.00014439696678891778,-0.00026935478672385216,-0.00009946641512215137
1782812402759736800,6.13073681640625,0.0001800333266146481,0.0002464395947754383,-0.0011813060846179724
1782812402779819800,6.15081982421875,-0.0011417591013014317,-0.00043311971239745617,-0.00002765166573226452
1782812402799901700,6.170901611328125,-0.0010941160144284368,-0.0009526878129690886,0.00006144796498119831
1782812402819985000,6.19098486328125,-0.000027245550882071257,-0.0012200511991977692,0.0009701746748760343
1782812402840066800,6.21106689453125,-0.0014632702805101871,0.00008026417344808578,-0.000045016640797257423
1782812402860149800,6.231149658203125,0.0010260939598083496,-0.0002532368525862694,0.00026265811175107956
1782812402880232200,6.251232177734375,-0.0005605724290944636,0.000329834409058094,0.0003659295616671443
1782812402900315100,6.271315185546875,0.0012141794431954622,-0.00039174268022179604,0.0008576068794354796
1782812402920397000,6.29139697265625,0.0009764839196577668,0.00047626160085201263,-0.0004615304060280323
1782812402940480000,6.31147998046875,0.0007998279179446399,-0.0016575409099459648,-0.0008878789376467466
1782812402960562000,6.33156201171875,-0.0012977164005860686,-0.00004149461165070534,0.00027286051772534847
1782812402980645000,6.35164501953125,-0.0006543956114910543,-0.001002664677798748,-0.0010530033614486456
1782812403000727300,6.371727294921875,-0.0006752798799425364,-0.00011317478492856026,-0.0009255427867174149
1782812403020810200,6.391810302734375,-0.00011909884051419795,-0.0013440055772662163,0.00012956978753209114
1782812403040892200,6.41189208984375,0.000498155306559056,-0.0006782440468668938,-0.0003545568324625492
1782812403060975000,6.43197509765625,-0.0002851173048838973,-0.000049686525017023087,-0.0004644552245736122
1782812403081058000,6.45205810546875,-0.00021803000709041953,0.0017247567884624004,-0.0007810737006366253
1782812403101140000,6.472139892578125,-0.0027692136354744434,-0.0015049329958856106,-0.0007454999722540379
1782812403121223200,6.49222314453125,-0.0004375293792691082,0.0005619158037006855,0.00013489695265889168
1782812403141305000,6.51230517578125,-0.000981795135885477,-0.0006635054014623165,0.0007148182485252619
1782812403161388000,6.532387939453125,0.0003519212477840483,-0.00011445302516222,0.000997826806269586
1782812403181470200,6.55247021484375,-0.001880750060081482,-0.0001785270869731903,0.00006385520100593567
1782812403201553200,6.57255322265625,0.00007707573240622878,-0.00036044814623892307,0.00023145461454987526
1782812403221635000,6.592635009765625,0.0006903274916112423,0.0006375759840011597,-0.0006771485786885023
1782812403241718000,6.612718017578125,0.00004063366213813424,-0.0010845502838492393,-0.00018814578652381897
1782812403261800000,6.632800048828125,-0.0020656269043684006,0.00015625730156898499,0.0008914143545553088
1782812403281883000,6.6528828125,-0.0005276647279970348,0.0009637773036956787,-0.0005898221861571074
1782812403301965000,6.672965087890625,-0.001697408384643495,0.0014945706352591515,-0.000004408648237586021
1782812403322048300,6.69304833984375,0.0002824345720000565,-0.0007638086099177599,-0.0008078005630522966
1782812403342130200,6.713130126953125,0.00018002235447056592,0.0001297290436923504,-0.0010983757674694061
1782812403362213000,6.733213134765625,-0.000772262632381171,-0.001130538061261177,0.0013574789045378566
1782812403382295000,6.753294921875,0.0011880995007231832,-0.0009038900025188923,0.0004452281864359975
1782812403402378000,6.7733779296875,-0.00003957274020649493,-0.0010358011350035667,0.0008490970358252525
1782812403422460200,6.793460205078125,0.0008779000490903854,-0.0009232470765709877,0.00003244169056415558
1782812403442543000,6.813543212890625,-0.0005910322652198374,-0.0017527821473777294,-0.0013983228709548712
1782812403462625000,6.833625,0.0006061382009647787,-0.00004120776429772377,0.0002923195715993643
1782812403482708000,6.8537080078125,-0.0003733934136107564,0.00021395878866314888,0.000917494879104197
1782812403502790000,6.873789794921875,-0.00019547768170014024,0.0007634591311216354,0.0008066344307735562
1782812403522873000,6.893873046875,-0.0013159130467101932,0.0012178895995020866,-0.0003498378209769726
1782812403542955300,6.913955322265625,0.0012274860637262464,-0.0001317337155342102,-0.001009304542094469
1782812403563038200,6.9340380859375,-0.0002402763202553615,0.00029372563585639,-0.002442592056468129
1782812403583120100,6.9541201171875,0.00047939823707565665,0.001713254489004612,-0.0009289018344134092
1782812403603203000,6.974203125,0.0018613850697875023,-0.0005544023588299751,0.000024661654606461525
1782812403623285000,6.994284912109375,0.0003984097274951637,-0.0003975077997893095,0.0006283370312303305
1782812403643368000,7.014367919921875,-0.0009947055950760841,0.001346040517091751,0.0007747263880446553
1782812403663450000,7.0344501953125,-0.00042613287223502994,-0.00044906698167324066,-0.00029270746745169163
1782812403683533300,7.054533203125,0.0010499737691134214,-0.0011557783000171185,-0.0007617727387696505
1782812403703615200,7.074615234375,0.0006020363071002066,-0.0005626089405268431,0.00045241275802254677
1782812403723698200,7.0946982421875,-0.000533123267814517,0.0008316147141158581,0.001236192649230361
1782812403743780000,7.114780029296875,-0.0004594421770889312,-0.0009371633641421795,-0.0008404834661632776
1782812403763863000,7.134863037109375,-0.0020728125236928463,-0.000785796670243144,-0.0007736110128462315
1782812403783946000,7.154946044921875,0.0007965933182276785,0.0011227442882955074,-0.00003320537507534027
1782812403804028200,7.175028076171875,-0.001074907835572958,-0.00011084787547588348,0.002017212100327015
1782812403824111000,7.195111083984375,0.000704650825355202,0.0010944386012852192,0.0001287790946662426
1782812403844193000,7.215193115234375,0.0005519996047951281,0.00036309147253632545,0.0019048075191676617
1782812403864276200,7.235276123046875,-0.0006752012996003032,-0.0003283098340034485,0.00045333802700042725
1782812403884359000,7.25535888671875,-0.0016787971835583448,-0.0006375927478075027,-0.0012042699381709099
1782812403904441900,7.27544189453125,0.0007885911036282778,-0.0005322550423443317,0.0021025133319199085
1782812403924523800,7.295523681640625,-0.0003205218235962093,-0.0009906901977956295,-0.000047219451516866684
1782812403944606700,7.315606689453125,-0.0013783187605440617,0.00018372014164924622,0.00004081591032445431
1782812403964689000,7.33568896484375,-0.000817487423773855,-0.0009466183837503195,-0.0005046711303293705
1782812403984771800,7.355771728515625,0.0010430502006784081,0.0005764379166066647,-0.0001500516664236784
1782812404004853800,7.375853759765625,0.00028614664915949106,0.0006437487900257111,-0.0003816145472228527
1782812404024937000,7.39593701171875,-0.0005987739423289895,-0.00017365021631121635,-0.00010840129107236862
1782812404045019000,7.416018798828125,0.0003879262076225132,-0.0005007204599678516,-0.0010851225815713406
1782812404065101800,7.436101806640625,-0.0009928243234753609,0.0012816875241696835,-0.0005317928735166788
1782812404085183700,7.456183837890625,0.0010294292587786913,0.0006953864358365536,-0.0006390255875885487
1782812404105266700,7.4762666015625,-0.0006659530918113887,0.00011607352644205093,-0.0003143472131341696
1782812404125348900,7.496348876953125,-0.000251145102083683,0.00043068407103419304,-0.0010952879674732685
1782812404145431800,7.516431884765625,0.0004357287543825805,-0.000020065344870090485,-0.0009403277654200792
1782812404165513700,7.536513671875,-0.00026171139325015247,0.0010035699233412743,0.00028317468240857124
1782812404185597000,7.556596923828125,0.000765750533901155,0.0005177645944058895,0.00006964406929910183
1782812404205678800,7.576678955078125,-0.00037004586192779243,0.0006099478341639042,0.0009992351988330483
1782812404225761800,7.59676171875,0.0018420895794406533,-0.000015787314623594284,0.0009224808309227228
1782812404245844000,7.616843994140625,0.0002915583027061075,0.0011618901044130325,-0.0013346427585929632
1782812404265927000,7.636927001953125,-0.0003650448052212596,-0.00008882628753781319,0.0005157744744792581
1782812404286008800,7.6570087890625,-0.0008658108999952674,-0.001090421574190259,0.00029384391382336617
1782812404306091800,7.677091796875,-0.0012580256443470716,-0.0006699722725898027,-0.0005171326920390129
1782812404326173700,7.697173583984375,0.0001992677862290293,0.0008900575339794159,-0.0007890556007623672
1782812404346256600,7.717256591796875,-0.00002312270225957036,-0.000998746370896697,0.001401999848894775
1782812404366338800,7.7373388671875,0.0010158277582377195,0.0016050450503826141,0.00021611363627016544
1782812404386422000,7.757422119140625,0.0012246969854459167,-0.00016805296763777733,-0.0019639551173895597
1782812404406504000,7.77750390625,-0.0001280653232242912,-0.0005739210173487663,-0.0013666078448295593
1782812404426587000,7.7975869140625,-0.0008708391687832773,-0.0008046724833548069,0.002236876869574189
1782812404446668800,7.817668701171875,-0.0014812746085226536,-0.00021029310300946236,0.0006126008229330182
1782812404466751700,7.837751708984375,-0.0003637931076809764,0.00015935394912958145,-0.00008687120862305164
1782812404486834000,7.857833984375,-0.00008026488649193197,-0.0006816165987402201,-0.0005575877148658037
1782812404506916900,7.877916748046875,-0.0007122998940758407,0.00029127486050128937,0.000440721632912755
1782812404526998800,7.897998779296875,-0.00010441972699481994,0.00021230336278676987,0.0006259242072701454
1782812404547082000,7.91808203125,-0.00157236959785223,-0.0004984228871762753,0.0006485845660790801
1782812404567164000,7.938163818359375,-0.00030477819382213056,0.00025038188323378563,-0.0014785947278141975
1782812404587246800,7.958246826171875,-0.00015971485117916018,0.00036427145823836327,0.0002079817932099104
1782812404607328800,7.978328857421875,0.00030811334727331996,-0.0005662436597049236,0.00008991989307105541
1782812404627412000,7.998411865234375,0.0018230830319225788,-0.0010287004988640547,0.0004245222080498934
1782812404647494000,8.018493896484374,0.0005976797547191381,-0.000276944600045681,-0.0006649387069046497
1782812404667576800,8.038576904296875,0.00017828348791226745,-0.00026068720035254955,0.0010573347099125385
1782812404687659800,8.05865966796875,-0.00002564192982390523,0.0006377538666129112,0.0004216067027300596
1782812404707741700,8.07874169921875,-0.0011453359620645642,-0.0008082438725978136,0.00018687709234654903
1782812404727825000,8.098824951171874,-0.0007817818550392985,-0.00016451836563646793,-0.00006264308467507362
1782812404747906800,8.11890673828125,0.0018643348012119532,-0.0005234747659415007,0.0002804957330226898
1782812404767989800,8.13898974609375,-0.0008707295637577772,0.00024943891912698746,0.00010266224853694439
1782812404788072000,8.159072021484375,0.0008782121003605425,0.0011072913184762,0.00019982922822237015
1782812404808155000,8.17915478515625,0.0007408210658468306,0.0001819855533540249,-0.000272274948656559
1782812404828236800,8.19923681640625,-0.0005219861632212996,-0.00031515653245151043,-0.0001559241209179163
1782812404848319700,8.21931982421875,-0.000594420125707984,0.00014760112389922142,0.00017982185818254948
1782812404868401700,8.239401611328125,-0.0009884464088827372,0.0012086722999811172,-0.0002199164591729641
1782812404888484000,8.259484130859375,0.0004664210428018123,0.00039230380207300186,-0.0007170587778091431
1782812404908566000,8.27956591796875,-0.0004899517516605556,0.0004425724036991596,0.0005634542321786284
1782812404928649000,8.29964892578125,0.0006895873229950666,0.00005274219438433647,0.0011102003045380116
1782812404948731000,8.31973095703125,0.000090931192971766,0.0006505614146590233,-0.0007942586671561003
1782812404968813800,8.339813720703125,0.000570081640034914,0.0005280417390167713,-0.0009079503361135721
1782812404988896000,8.35989599609375,-0.000657204887829721,-0.0006987189408391714,0.001089336583390832
1782812405008979200,8.379979248046874,-0.0006091801333241165,-0.0002770759165287018,0.00053544866386801
1782812405029061000,8.40006103515625,-0.0007618629606440663,-0.00015108170919120312,0.0012277825735509396
1782812405049144000,8.42014404296875,-0.00040486297802999616,-0.0004122017417103052,-0.000014160294085741043
1782812405069226000,8.44022607421875,0.00036975828697904944,-0.001121349399909377,-0.001143772155046463
1782812405089309000,8.460308837890626,0.00010259397095069289,0.0007655341178178787,0.00044688128400593996
1782812405109390800,8.480390869140624,0.00012298792717047036,0.0005168737843632698,-0.0004439756739884615
1782812405129474000,8.50047412109375,-0.0002329813432879746,-0.000009885989129543304,0.0005387193523347378
1782812405149556000,8.520555908203125,0.0011419648071750998,-0.00033031939528882504,-0.0009144195355474949
1782812405169639200,8.54063916015625,-0.00015261188673321158,0.00024299276992678642,-0.0005600752774626017
1782812405189721000,8.56072119140625,0.0003353521751705557,-0.0003003617748618126,0.0007716501131653786
1782812405209804000,8.580803955078125,-0.001350537408143282,0.0005899709649384022,-0.001275205984711647
1782812405229886000,8.600885986328125,-0.0006886834162287414,0.0017227730713784695,-0.0005746872629970312
1782812405249969000,8.620968994140625,0.0005416087806224823,0.00047848839312791824,0.0006403446896001697
1782812405270051000,8.641051025390626,-0.0008738765027374029,-0.0002615540288388729,0.0002081270795315504
1782812405290134000,8.661134033203124,-0.0013281460851430893,0.00028134463354945183,0.00038886023685336113
1782812405310216000,8.6812158203125,0.00023944259737618268,-0.0004150934983044863,-0.0015583198983222246
1782812405330299000,8.701298828125,0.000001169260940514505,0.00047546299174427986,-0.0005500358529388905
1782812405350380800,8.721380859375,-0.0005004290142096579,-0.001045942772179842,-0.0010491001885384321
1782812405370464000,8.741464111328124,0.00029894549516029656,0.00006975838914513588,-0.00006347056478261948
1782812405390546200,8.761546142578124,-0.0008274298161268234,0.0004272772930562496,-0.0000718503724783659
1782812405410629000,8.781629150390625,-0.0019816234707832336,0.0005923411808907986,-0.00019831908866763115
1782812405430711000,8.8017109375,-0.00019549070566426963,-0.00035950331948697567,-0.0005655968561768532
1782812405450794000,8.8217939453125,0.00010882256901822984,0.0005443943664431572,0.0003771751653403044
1782812405470876000,8.8418759765625,0.0008044459391385317,-0.0005000613164156675,-0.0024475427344441414
1782812405490958800,8.861958740234375,0.00006896995182614774,-0.00015868805348873138,-0.000507869990542531
1782812405511041000,8.882041015625,0.00045445997966453433,-0.0005060092080384493,-0.0003850138746201992
1782812405531124200,8.902124267578126,0.0012512238463386893,-0.001708455616608262,-0.0005518477410078049
1782812405551206100,8.9222060546875,-0.000023412168957293034,0.0009236149489879608,-0.0002381955273449421
1782812405571289000,8.9422890625,-0.0005100861308164895,-0.0007831135299056768,0.0004576012725010514
1782812405591372000,8.9623720703125,-0.0008382339146919549,-0.001279100775718689,-0.00031879241578280926
1782812405611454000,8.982453857421875,0.00020355348533485085,0.0007992261089384556,0.0010067916009575129
1782812405631537000,9.002536865234376,0.00042491935892030597,0.00006604893133044243,0.000855056568980217
1782812405651619000,9.022619140625,-0.0009738430380821228,0.0007270844653248787,0.0001463217195123434
1782812405671702000,9.042701904296875,-0.001633697422221303,-0.0007103749085217714,0.0009201755747199059
1782812405691784000,9.062783935546875,0.0009156478336080909,0.0001868116669356823,0.0018219421617686749
1782812405711867100,9.0828671875,-0.000021012398065067828,0.001092985738068819,0.0004801253089681268
1782812405731949000,9.102948974609374,-0.0015527437208220363,0.00022863317281007767,0.0011061765253543854
1782812405752032000,9.123031982421875,0.00014987053873483092,-0.00047200219705700874,0.00005874433554708958
1782812405772114000,9.143114013671875,0.00003577717870939523,-0.00018700258806347847,-0.0004889690317213535
1782812405792196900,9.16319677734375,-0.000715489499270916,-0.0005532861687242985,-0.0004746941849589348
1782812405812279000,9.183279052734376,-0.0004152102046646178,-0.00005315430462360382,0.00005812826566398144
1782812405832362000,9.203362060546874,0.00015156014706008136,0.00005749613046646118,-0.0006370393093675375
1782812405852444000,9.22344384765625,-0.0014525088481605053,0.0003268918953835964,-0.0008296652231365442
1782812405872527000,9.243527099609375,0.0002381474187131971,-0.00014465558342635632,0.001212770352140069
1782812405892608800,9.26360888671875,-0.0007208990282379091,0.00021989690139889717,0.0011682546464726329
1782812405912691700,9.283691650390624,-0.0007727131014689803,0.0006385482847690582,-0.0019895590376108885
1782812405932774000,9.30377392578125,-0.00024937582202255726,0.0013651465997099876,-0.00016329484060406685
1782812405952856800,9.32385693359375,-0.0007677572430111468,-0.0001786947250366211,0.0013038311153650284
1782812405974194000,9.34519384765625,0.00021673913579434156,0.00007547950372099876,-0.0007045106031000614
1782812405994275800,9.36527587890625,0.0007838993915356696,-0.0003723918925970793,-0.0003446340560913086
1782812406014358800,9.38535888671875,0.0010261454153805971,-0.0004923618398606777,0.001334558124653995
1782812406034441700,9.405441650390625,-0.002495642052963376,0.0011693863198161125,0.00009361095726490021
1782812406054523600,9.425523681640625,0.0008209211518988013,0.000613087322562933,-0.00000286102294921875
1782812406074606600,9.445606689453125,-0.001959491055458784,0.000021013431251049042,0.0006293603219091892
1782812406094688800,9.465688720703126,0.0013260290725156665,0.0008641933090984821,-0.0007339001167565584
1782812406114771700,9.485771728515624,0.00019294137018732727,0.0002880464307963848,-0.00018070288933813572
1782812406134853600,9.505853515625,0.00002551244688220322,-0.0001433948054909706,-0.0001802018377929926
1782812406154936800,9.525936767578125,0.00038497548666782677,0.00029704486951231956,-0.0006128349341452122
1782812406175018800,9.546018798828126,-0.00034695275826379657,-0.00040773674845695496,-0.00007741199806332588
1782812406195101700,9.566101806640624,0.00030223134672269225,0.00021391268819570541,0.0014123814180493355
1782812406215183600,9.58618359375,0.0004882783396169543,-0.00030528753995895386,-0.0006678153295069933
1782812406235266600,9.6062666015625,0.0003496120625641197,-0.0003417208790779114,-0.0011551908683031797
1782812406255348700,9.6263486328125,-0.0007806881330907345,0.0010338136926293373,-0.000339156249538064
1782812406275431700,9.646431640625,-0.0005639751325361431,-0.000354979420080781,0.0014346502721309662
1782812406295513600,9.666513671875,-0.000011515003279782832,0.0006399061530828476,0.0009612446883693337
1782812406315596800,9.6865966796875,0.0007405329961329699,-0.0005380832590162754,0.0007317099953070283
1782812406335678700,9.7066787109375,0.0008845787961035967,0.0005810069851577282,-0.002161505399271846
1782812406355761700,9.72676171875,-0.0005299992626532912,0.0005560740828514099,0.0007395741995424032
1782812406375843800,9.74684375,0.00003142021887470037,-0.0001830121036618948,0.0006917560240253806
1782812406395926800,9.7669267578125,0.0015356842195615172,0.0012101051397621632,0.0008962657302618027
1782812406416008700,9.7870087890625,0.0010614680359140038,0.00017253123223781586,-0.000582926906645298
1782812406436091600,9.807091552734375,-0.00031307918834500015,0.0003351811319589615,0.0015046296175569296
1782812406456173600,9.827173583984376,-0.00012846471508964896,0.0006870864890515804,-0.0004482036456465721
1782812406476256500,9.847256591796874,-0.00021844380535185337,-0.0006164326332509518,-0.0006655505858361721
1782812406496338700,9.867338623046875,-0.0006715706549584866,0.00034059910103678703,0.000006318558007478714
1782812406516422000,9.887421875,-0.0009515478741377592,-0.0008152187801897526,0.001009443774819374
1782812406536503800,9.90750390625,0.00012219826749060303,-0.0010480692144483328,0.0011479607783257961
1782812406556586800,9.927586669921874,0.000053130468586459756,-0.0002553560771048069,0.0018642836948856711
1782812406576668700,9.947668701171875,0.0012509654043242335,-0.0008653432596474886,-0.000717544462531805
1782812406596751600,9.967751708984375,0.0012650423450395465,-0.0006415559910237789,-0.0001396392472088337
1782812406616834600,9.98783447265625,-0.00013806394417770207,0.0002965894527733326,-0.0008724655490368605
1782812406636916700,10.007916748046876,-0.0007981181843206286,0.0004070298746228218,0.000700311386026442
1782812406657000000,10.028,0.0003645014367066324,0.0003507104702293873,-0.0007065027020871639
1782812406677081900,10.048081787109375,-0.0017415775218978524,-0.00080247619189322,-0.001132200937718153
1782812406697164800,10.068164794921875,-0.0009297500946559012,-0.0009839574340730906,-0.00045026931911706924
1782812406717246700,10.088246826171876,-0.0004177217779215425,-0.00019513536244630814,-0.0007037227042019367
1782812406737329700,10.10832958984375,-0.0008779959171079099,-0.0003386035095900297,-0.00038639851845800877
1782812406757411800,10.128411865234375,0.0006244684336706996,-0.00007915031164884567,0.0011166048934683204
1782812406777494800,10.148494873046875,-0.000029311704565770924,0.0004263976588845253,0.0006182380020618439
1782812406797576700,10.16857666015625,0.00044296562555246055,0.0000189230777323246,-0.0010776028502732515
1782812406817659600,10.18865966796875,0.0006531011313199997,-0.0002177779097110033,-0.0003516124561429024
1782812406837741600,10.208741455078124,-0.00009639194468036294,0.0006467634811997414,-0.0003032668028026819
1782812406857824800,10.22882470703125,0.0007833446143195033,0.00020022131502628326,-0.0009412674698978662
1782812406877906700,10.24890673828125,-0.00014107527385931462,-0.0128004290163517,-0.003533969633281231
1782812406897990000,10.268989990234376,-0.0016417636070400476,-0.0007568784058094025,-0.0003878737334161997
1782812406918072000,10.289072021484374,0.0010648509487509727,-0.02009117230772972,-0.005990998353809118
1782812406938155000,10.309155029296875,0.00012257767957635224,-0.006488470360636711,-0.00271504744887352
1782812406958237000,10.32923681640625,-0.00039837119402363896,-0.003470147494226694,-0.001714841928333044
