time,seconds_elapsed,z,y,x
1782813999111716600,0.053716552734375,-0.29662498527169223,-0.008819649864081293,0.058922144567966454
1782813999131798500,0.073798583984375,0.22512626772522926,-0.00011401830110698938,0.011984013912826776
1782813999151880400,0.09388037109375,-0.13450550107955933,-0.03671807594122365,0.010624123736470937
1782813999171961600,0.113961669921875,-0.06906535291969776,0.038107192212063816,0.03316756211910397
1782813999192043500,0.13404345703125,0.10800561668872832,-0.03954953650748357,-0.0035897681202739476
1782813999212125400,0.15412548828125,-0.13320084822177886,0.017205219159834084,0.031188809392042455
1782813999232206600,0.17420654296875,0.050642976522445676,-0.039017402392160144,0.020574768658168614
1782813999252288500,0.19428857421875,0.041132805377244945,-0.025487419412657617,0.014212028693221508
1782813999272370700,0.21437060546875,-0.07575988212227822,0.0019738756225444374,0.02055536983795464
1782813999292452600,0.23445263671875,0.00805704972743988,-0.020341197364311663,0.009451901619322597
1782813999312533500,0.254533447265625,-0.09489303713738918,-0.003094276220910251,0.03431099653318524
1782813999332615400,0.274615478515625,0.019397358909249304,-0.0033210159151814875,0.0016206965370103715
1782813999352697300,0.294697265625,0.0016179565906524658,-0.02287334619043395,0.02007383339870721
1782813999372778500,0.314778564453125,-0.030720132434368132,0.0018376089570112525,0.03229008516483009
1782813999392860400,0.3348603515625,0.02734218043386936,-0.01428953264253214,0.00840410959944129
1782813999412942300,0.3549423828125,-0.046429742741584776,-0.010993139711953698,0.020866627744212746
1782813999433023500,0.3750234375,-0.02279518465399742,-0.019442586290463804,0.015186097889766097
1782813999453105400,0.39510546875,-0.06467442448437213,-0.008328286150563509,0.005855849888734519
1782813999473187300,0.415187255859375,-0.03536532789170742,-0.005657496038731187,0.013805201457999646
1782813999493268500,0.4352685546875,0.0194148945659399,-0.013249412472452968,0.026364932899549602
1782813999513350400,0.455350341796875,-0.03475333347320556,-0.02011009202217683,0.01465469442680478
1782813999533432600,0.4754326171875,-0.0016910218268632888,-0.0017112608972936869,0.019370142108760775
1782813999553514500,0.495514404296875,-0.027117139506340024,-0.003345711965020746,0.018103154380246997
1782813999573595600,0.515595703125,-0.017254501661658286,-0.014887407204136251,0.014073606603220105
1782813999593677600,0.535677490234375,-0.010661094745993614,-0.006475589222274721,-0.00006374941859394312
1782813999613759500,0.555759521484375,-0.045832361370325085,-0.002037296247575432,0.01202156944423914
1782813999633840600,0.575840576171875,0.020309797579050062,-0.00486961533036083,0.024076347038336096
1782813999653922600,0.595922607421875,-0.036389994764328,-0.004217599428724498,0.01501289674732834
1782813999674004500,0.61600439453125,-0.03206920895576477,-0.007120207268744707,0.035953356912732125
1782813999694085400,0.63608544921875,0.011035188755393027,-0.012019943742733448,0.01392276342306286
1782813999714167600,0.65616748046875,-0.046429742741584776,-0.004592040497995913,0.018424312626011668
1782813999734249500,0.67624951171875,-0.011418635115027427,-0.012507782058604061,0.01364617497138679
1782813999754331600,0.69633154296875,-0.011857026532292366,-0.011273052631877362,0.01420238408204168
1782813999774412300,0.716412353515625,-0.02593698981106281,-0.016389445797540248,0.00841612883079797
1782813999794494500,0.736494384765625,0.021503975799679755,-0.029364571373257785,0.010032587584108113
1782813999814576400,0.756576416015625,-0.006018237376213074,-0.009343746803421527,0.024717129159905014
1782813999834657500,0.776657470703125,-0.022032383587956426,-0.01349927731398493,0.010364121093414723
1782813999854739500,0.796739501953125,-0.06511866112053394,-0.009094740478415042,-0.00006784107182174921
1782813999874821400,0.8168212890625,-0.044482115805149075,0.016844587420206517,0.0032783640835434198
1782813999894902500,0.836902587890625,0.001460135680437088,-0.014627769887261092,0.01289784082211554
1782813999914984400,0.856984375,-0.03175882783234119,-0.008048428029567003,0.008511369366198777
1782813999935066400,0.87706640625,-0.0015437223106622695,-0.020184508965257555,0.021277400502189993
1782813999955147500,0.8971474609375,0.01971475429534912,-0.009698423726297914,0.021733437173999844
1782813999975229400,0.9172294921875,-0.06333703840076924,-0.006471241840720177,0.01932286890093237
1782813999995311600,0.9373115234375,0.010424363380670546,-0.012468162434268742,0.012526231030747294
1782814000015393500,0.9573935546875,-0.016951719322800634,-0.014346925385575741,0.016002492306567726
1782814000035474400,0.977474365234375,-0.02997954320013523,-0.020130897348187862,0.00765003982912749
1782814000055556600,0.997556640625,-0.007836684975028037,-0.012603040860313922,0.0215589573899284
1782814000075639000,1.01763916015625,-0.03582242400944233,-0.0030678083390928805,0.025345453658699987
1782814000095720000,1.037719970703125,-0.016073767444491384,-0.006792180890776217,0.01264218556061387
1782814000115802000,1.057802001953125,-0.042101358148455614,-0.012875044468417763,0.014299268585257232
1782814000135884000,1.077884033203125,-0.008297288224101066,-0.00966417439682409,0.01826338644325733
1782814000155965200,1.097965087890625,0.005032733470201492,-0.017480656834039834,0.01515891762189567
1782814000176047000,1.118047119140625,-0.05137538245022297,-0.009766392662283033,0.022309045104868707
1782814000196129000,1.13812890625,-0.011284195080399512,-0.01498427344104275,0.01802548603415489
1782814000216210200,1.158210205078125,-0.029084640187025067,-0.0017826456330716609,0.012208872177265583
1782814000236292000,1.1782919921875,-0.03358312065005302,-0.005680840381700545,0.024093736564554272
1782814000256374000,1.1983740234375,0.00009176993668079376,-0.014424776394758372,0.01136073091533035
1782814000276455200,1.218455078125,-0.024897125369310377,-0.010917608524020761,0.0162291406692937
1782814000296537000,1.238537109375,-0.011887421670556068,-0.010784246201626956,0.014839403343945741
1782814000316619300,1.258619384765625,-0.01920680477321148,-0.011552581959310918,0.024270627501420675
1782814000336700000,1.278699951171875,-0.023112580040097235,-0.02779217095738277,0.023773783895187077
1782814000356782000,1.298781982421875,0.017003741770982742,-0.018889701648056506,0.018666231623105704
1782814000376864000,1.318864013671875,-0.039698973181843754,-0.007605981491692363,0.015675817635469137
1782814000396945000,1.33894482421875,-0.030126842716336248,-0.00375929773459211,0.01022394543774426
1782814000417027000,1.359027099609375,-0.07202128011584281,0.0008806370257399976,0.026859730679169296
1782814000437109000,1.37910888671875,-0.03448036175072193,0.0074396667477674774,0.010909808810055256
1782814000457190100,1.399190185546875,0.028521161085367203,-0.01335420628748834,0.017122253584116696
1782814000477272000,1.41927197265625,-0.013075754672288893,-0.008007785491924732,0.02494337566383183
1782814000497354000,1.43935400390625,-0.0060404492080211635,-0.019597192330285906,0.014524857502058147
1782814000517436000,1.459435791015625,-0.024137831434607505,-0.018141404031403362,0.02351326979547739
1782814000537517000,1.47951708984375,-0.024291560691595077,-0.012689349170587956,0.01302643563784659
1782814000557599000,1.499598876953125,-0.01740297022163868,-0.010094090246688574,0.0166679339453578
1782814000577681200,1.51968115234375,-0.031630233016610144,0.01023974579507485,0.0014352569675073028
1782814000597762000,1.539761962890625,-0.003647416591644287,-0.012036547817662358,0.009543488892912864
1782814000617844200,1.55984423828125,-0.03432312536239624,-0.010751403377950192,0.02451590749938041
1782814000637926100,1.579926025390625,-0.01472936709821224,-0.009181176652852445,0.026826851322874424
1782814000658007000,1.600007080078125,-0.01772270369529724,-0.006858524125255644,0.01027330100480467
1782814000678089200,1.620089111328125,-0.020709026029706,0.0009794029587879777,0.012822693226672708
1782814000698171100,1.640171142578125,-0.04524491687119007,-0.010599957409594208,0.015539514437317848
1782814000718252000,1.660251953125,-0.025493337696790692,-0.0068046202472411095,0.013179141981527209
1782814000738334200,1.680334228515625,-0.013523498439788818,-0.006212152513116598,0.012239815304800868
1782814000758416100,1.700416015625,-0.04898761053085327,-0.002661437761597335,0.0011478548608720301
1782814000778497000,1.7204970703125,-0.017111293798685073,-0.006714549077302217,0.017960640637017786
1782814000798579000,1.740578857421875,0.00578442862033844,-0.015262085735425352,0.01658496836964041
1782814000818660900,1.760660888671875,0.002800444373488426,-0.02309005768103525,0.004818287001922726
1782814000838742000,1.780741943359375,-0.04762801261544227,-0.009177815651986748,0.03390329251512885
1782814000858824000,1.800823974609375,-0.006921323695778846,-0.007918280577566474,0.01891341131720692
1782814000878906000,1.820906005859375,-0.03774900815784931,-0.015013992725871502,0.01350157886892557
1782814000898987000,1.840987060546875,-0.006774608701467514,-0.009412190663442016,-0.003926306598260998
1782814000919069000,1.86106884765625,-0.03669569971263408,-0.004547762964852154,0.016798757250793276
1782814000939151000,1.881151123046875,-0.04284194738268852,-0.0012495068707503378,0.014690240664221345
1782814000959232000,1.90123193359375,0.032571313259005544,-0.01648609283873811,0.016004026676528154
1782814000979314200,1.921314208984375,-0.014699556481838225,0.011126976958382873,0.006911058030091226
1782814000999396000,1.94139599609375,-0.03416705801784992,-0.008560030813515185,0.02166205243822187
1782814001019477200,1.961477294921875,0.012978139516711234,-0.02196070659123361,0.015951931163109837
1782814001039559200,1.98155908203125,-0.048072249251604075,-0.011234200192522257,0.013406740192323923
1782814001059641000,2.00164111328125,-0.019051321950554846,-0.002131075478252023,0.008883673277311026
1782814001079722500,2.021722412109375,-0.030264205360412594,-0.0008133622094988822,0.017656725786998867
1782814001099804400,2.041804443359375,-0.005437807139754295,-0.004489493438974023,0.011192680872045457
1782814001119886300,2.06188623046875,0.042619829064607616,-0.030815555632859468,0.007047105499915779
1782814001139967500,2.081967529296875,-0.09490297400951385,-0.0064990796957165,0.017276238569431005
1782814001160049400,2.10204931640625,0.02089373494684696,-0.015669223497901112,0.0031450930926948785
1782814001180131300,2.12213134765625,-0.014392097967863083,-0.005234521386306733,0.01386504188645631
1782814001200212500,2.14221240234375,-0.05930325284004211,0.002412815029080957,0.02175447996202856
1782814001220294400,2.16229443359375,-0.000789104551076889,-0.02411200287360698,0.01875485975462943
1782814001240376600,2.18237646484375,-0.00886310541331768,-0.0075067771672271185,0.026434198743477463
1782814001260457500,2.20245751953125,-0.01320844114124775,-0.0007185600655153393,0.014378836627490817
1782814001280539400,2.222539306640625,-0.01574117448925972,-0.0019848719405941664,0.00143058079238981
1782814001300621600,2.24262158203125,-0.014848025041818617,-0.008680643252190203,0.017028620483912526
1782814001320702500,2.262702392578125,-0.0015256021320819854,-0.007322086516395211,0.014633395910449326
1782814001340784600,2.28278466796875,-0.04911445178091526,-0.017717150737345217,0.03378642466980964
1782814001360866600,2.302866455078125,0.020158990931510926,-0.015988719509541987,0.01251932636592537
1782814001380948500,2.322948486328125,-0.011100070685148239,-0.005462302260193974,0.013183014439046382
1782814001401029600,2.343029541015625,-0.06213233878612518,0.0036389958231709896,0.016188735593669117
1782814001421111600,2.363111572265625,-0.01649403868317604,-0.007067582032363862,0.01221121026482433
1782814001441193500,2.383193359375,-0.03010463088452816,0.002304733278416097,0.017766542837023735
1782814001461274400,2.4032744140625,-0.011101239728927612,-0.017657584303524345,0.013776377222314477
1782814001481356300,2.423356201171875,-0.008542787417769431,-0.02147869522795081,0.004750117136538028
1782814001501438500,2.4434384765625,-0.020820669710636137,-0.014555380504485219,0.019145393442176282
1782814001521519400,2.463519287109375,0.0004261164575815201,-0.015318528630398212,-0.0024247429288923737
1782814001541601500,2.4836015625,-0.009440613040328026,-0.021926238066051155,0.021386121573671698
1782814001561683500,2.503683349609375,-0.0520884991556406,-0.001679897644650191,0.009881854001805185
1782814001581764400,2.523764404296875,-0.03158931648433208,-0.007417728910595178,0.01580828490871936
1782814001601846500,2.543846435546875,-0.011684592574834823,-0.006923077261447906,0.013260353991575538
1782814001621928400,2.563928466796875,-0.0012198971837759018,-0.01136706932457164,0.01318272217810154
1782814001642009600,2.584009521484375,-0.011390578064322471,-0.013904405782464891,0.007586728801950812
1782814001662091500,2.604091552734375,-0.010336685097217559,-0.019380626970157026,0.011312946250848471
1782814001682173400,2.62417333984375,-0.08290800031125545,-0.011035992472991347,0.011985950141586363
1782814001702254600,2.644254638671875,-0.008105565044283867,-0.014384773177932948,0.005923654427938163
1782814001722336500,2.66433642578125,-0.0019546411991119383,-0.005828560023009776,0.01573215093258768
1782814001742418400,2.68441845703125,-0.03847790695428848,-0.012607260377705097,0.0032224326452240347
1782814001762499600,2.70449951171875,-0.018123685711622237,-0.011650471109524368,0.017928711128793656
1782814001782581500,2.72458154296875,0.00206043966114521,-0.007976403972972184,0.004450440070219338
1782814001802663700,2.74466357421875,0.0029629414588212967,-0.020014888019394127,0.0180734898943454
1782814001822744300,2.764744384765625,-0.058553311255574225,-0.01109663661904633,0.016821955463290215
1782814001842826200,2.784826171875,-0.018005612289905548,-0.009504892181884496,0.0017087036140263079
1782814001862908400,2.804908447265625,-0.017549100694060325,-0.015547442015446722,0.02502075174897909
1782814001882989300,2.8249892578125,-0.022195465195178985,-0.0092115900574252,0.019919629217684268
1782814001903071500,2.845071533203125,-0.010213935500383376,0.0012976203287951647,0.015768610485456882
1782814001923153400,2.8651533203125,-0.016359598648548124,-0.01147717863554135,0.011600421422719954
1782814001943234600,2.885234619140625,0.003108487409353256,-0.004060892763361334,-0.004211224486865103
1782814001963316500,2.90531640625,-0.07246434770822524,-0.014060747121647,0.021601262161694466
1782814001983398400,2.9253984375,-0.007833177843689918,-0.019155604308936744,0.010285210638307035
1782814002003479600,2.9454794921875,-0.015449498066306114,-0.012810874924715608,0.00390646938662976
1782814002023561500,2.9655615234375,-0.014257657933235168,-0.0007730484654195607,0.02997548807952553
1782814002043643400,2.985643310546875,-0.0229354699075222,-0.008244407259393483,0.005101597455330193
1782814002063724300,3.005724365234375,-0.030115736800432204,-0.009048873776383698,0.009097754419408738
1782814002083806200,3.02580615234375,0.0065390463799238204,-0.0300579969975166,0.021811068987473845
1782814002103888400,3.045888427734375,-0.02786591204702854,-0.008078348243795335,0.014217472053319215
1782814002123969300,3.06596923828125,-0.04373743491768837,-0.01523810207163915,0.013885646283067762
1782814002144051200,3.08605126953125,0.03362637526988983,-0.009311890360433608,0.007756386280432343
1782814002164133400,3.10613330078125,-0.029361119040846824,-0.009824516057688743,0.007515526729263365
1782814002184214300,3.12621435546875,-0.029078210446238515,-0.01389852403094992,0.018793292068876324
1782814002204296400,3.14629638671875,0.010744681376218795,-0.010917261464148759,0.010759769347496331
1782814002224378400,3.16637841796875,-0.07798924860954284,-0.009915244814753532,0.02444638592712581
1782814002244459300,3.186459228515625,0.0045960956186056135,-0.0033087226891890167,0.01762914366032928
1782814002264541400,3.20654150390625,0.009851531928777694,-0.023484536891337483,0.013151815583184361
1782814002284623400,3.226623291015625,-0.044181087031960484,-0.014621942934673279,0.01764730037152767
1782814002304704500,3.24670458984375,-0.02487608258128166,-0.01798698065467179,0.021370777874067423
1782814002324786400,3.266786376953125,-0.014999416211247443,-0.01268275503301993,0.005752645242586732
1782814002344868400,3.286868408203125,-0.026525018832087514,-0.006087905078940093,0.02319623973555863
1782814002364949200,3.30694921875,-0.02143500221669674,-0.01050188559629023,0.01993552090656012
1782814002385031200,3.32703125,-0.022491233271360395,-0.008833861052524298,0.020097470002621413
1782814002405113300,3.34711328125,-0.01799684446156025,-0.021063593354728072,0.016508505599945784
1782814002425194200,3.3671943359375,-0.03819792096912861,0.004036817768029869,0.015323131740279494
1782814002445276200,3.387276123046875,0.005486322456598282,-0.012789996533468365,0.02484367814902216
1782814002465358300,3.4073583984375,0.012079144850373267,-0.0223481350062415,0.011859437685087322
1782814002485439200,3.427439208984375,-0.030863340297341346,-0.009954645243380219,0.00752002024129033
1782814002505521400,3.447521484375,-0.013513561567664145,-0.021965912489313632,0.01757598870098591
1782814002525603300,3.467603271484375,-0.02682020238637924,0.0015742818457074462,0.003854885329864919
1782814002545684200,3.487684326171875,-0.023985855743288993,-0.013563191129360348,0.021024265991337596
1782814002565766400,3.507766357421875,0.009242460119724273,-0.0220855385472998,0.013288593705371022
1782814002585848300,3.527848388671875,-0.030113983234763143,-0.009983250283356756,0.0255392957303673
1782814002605929500,3.547929443359375,0.013733341798186301,-0.012453604185953735,0.006723864894919097
1782814002626011400,3.568011474609375,-0.04895020112991333,-0.010553761913999914,0.02249444814175367
1782814002646093300,3.58809326171875,0.033327684584259984,-0.01866411273125559,0.021136603792011738
1782814002666174500,3.608174560546875,-0.020947510960698128,0.0009284034239128231,0.008556231421232224
1782814002686256400,3.62825634765625,-0.1071791027367115,-0.007776113894209265,0.019898842157982287
1782814002706338300,3.64833837890625,0.0668587827861309,-0.024835202581621706,0.015989304031431673
1782814002726419200,3.668419189453125,-0.06180851365923881,-0.0033742987386882303,0.0073879182942211625
1782814002746501000,3.688501220703125,-0.025926468417048452,-0.028771920976042746,0.012110380238853394
1782814002766583300,3.708583251953125,0.02035305219888687,-0.017936145516578107,-0.00006579524520784616
1782814002786664200,3.728664306640625,-0.05523673405349254,-0.0006548837121576071,0.01268175038602203
1782814002806746400,3.748746337890625,-0.007346271109580993,-0.015978234648145736,0.001427110193669796
1782814002826828300,3.768828369140625,-0.04400280785560608,-0.003124306032992899,0.017341522357985376
1782814002846909200,3.7889091796875,-0.005869768816232681,-0.028147468934766946,0.023221885633468626
1782814002866991400,3.808991455078125,0.002661328163743019,-0.02123538799136877,0.015682758832909167
1782814002887073300,3.8290732421875,-0.056906713092327116,-0.010619721555989234,0.014626381647773086
1782814002907154400,3.849154541015625,-0.020249591824412345,-0.010506762700807302,0.01771291295364499
1782814002927236400,3.869236328125,-0.03491349247097969,-0.020683325332868843,0.026550737795233724
1782814002947318300,3.889318359375,0.025530747097730636,-0.005874718985985964,-0.0024947759578004478
1782814002967399400,3.9093994140625,-0.004829319852590561,-0.007077007447835058,0.014117957201600074
1782814002987481300,3.9294814453125,-0.06140110190212726,-0.008616071849688886,0.018177607855945823
1782814003007563300,3.949563232421875,0.0038368016839027404,-0.026533457866869864,0.0060996685819700355
1782814003027644400,3.96964453125,0.00010462941825389861,-0.015858846052177248,0.02018737677577883
1782814003047726300,3.989726318359375,-0.036565351331233974,-0.009720343297161161,0.014922661180607973
1782814003067807500,4.009807373046875,0.01177402442395687,-0.01656370638590306,0.018716829299181698
1782814003087888100,4.02988818359375,-0.014711831441521644,0.0004966061442159116,0.01070650479029864
1782814003107970300,4.04997021484375,-0.022644962528347967,-0.012040164546854793,-0.001959755765646696
1782814003128052200,4.07005224609375,-0.026384733578562736,-0.011880571804661302,0.020545286835357546
1782814003148133400,4.09013330078125,-0.04104454257190227,-0.016890070529747753,0.012053498952463269
1782814003168215300,4.11021533203125,0.004140753066539764,-0.015862882906477898,0.01334737468790263
1782814003188297200,4.130297119140625,-0.03385667689442634,-0.012446918716840446,0.02323211476653814
1782814003208378400,4.15037841796875,-0.04149462442696094,-0.005817472373414784,0.010586458607204257
1782814003228460300,4.170460205078125,0.01986205381155014,-0.000891907338425517,0.01112505899593234
1782814003248542200,4.190542236328125,-0.04522796573638916,0.002067581787984818,0.02588032772038132
1782814003268623400,4.210623291015625,-0.029826398465037342,0.007003339423425495,0.004942205642536282
1782814003288705300,4.230705322265625,-0.011413374418020247,-0.034629177370574325,0.036818157048523426
1782814003308787500,4.250787353515625,-0.019046645775437354,0.004798413257673382,0.004187039893679321
1782814003328868400,4.270868408203125,-0.00872106659412384,-0.0141026135019958,0.02164597808625549
1782814003348950300,4.2909501953125,-0.02158990051746368,-0.006694255207944661,0.007222936990857124
1782814003369032400,4.311032470703125,-0.017699907341599465,-0.014596991156507283,0.016800656946934757
1782814003389114400,4.3311142578125,-0.01066343283355236,-0.008650978766288607,0.02538125562444329
1782814003409195500,4.351195556640625,-0.02308569203317165,-0.006519684092327952,0.014143347371183335
1782814003429277400,4.37127734375,-0.041185996869206425,-0.017205639284942297,0.014134104618802665
1782814003449359400,4.391359375,-0.012912673065066337,-0.008077873319759964,0.0229806972887367
1782814003469440500,4.4114404296875,0.005939326921105385,-0.02190035470612347,0.032935543461516496
1782814003489522400,4.4315224609375,-0.01979132666289806,-0.023005375072266906,0.006341660644300281
1782814003509604400,4.451604248046875,-0.03325929552316666,-0.003586991641297936,0.009232486714981496
1782814003529685200,4.471685302734375,-0.015301029506325722,-0.0063558535664342344,0.016710238717123866
1782814003549767200,4.49176708984375,-0.02996025397777557,-0.0032896709288470446,0.012756934514082968
1782814003569849300,4.511849365234375,-0.004234276568889618,-0.011080196940898894,0.007208579671941697
1782814003589930200,4.53193017578125,-0.029358780953288078,-0.015074618605617433,0.023346498393826184
1782814003610012400,4.552012451171875,-0.016208792001008988,-0.00801728397263214,0.021630817049741742
1782814003630094300,4.57209423828125,0.017622165930271147,-0.010777670330367983,0.02443626639191061
1782814003650175200,4.59217529296875,-0.033411855736374854,-0.009834726924449205,0.025030834751576185
1782814003670257400,4.61225732421875,-0.027419921845197676,-0.009799984404630958,0.005968151156790554
1782814003690339300,4.63233935546875,-0.041189504000544545,-0.005132686713337898,0.016954093942977488
1782814003710421200,4.652421142578125,-0.011420973202586173,-0.007843863634485752,0.03137048610188067
1782814003730502400,4.67250244140625,-0.030264205360412594,-0.015958324371278285,0.011762224388308823
1782814003750584300,4.692584228515625,-0.020851649370789527,0.002374200051743537,0.02367112723831087
1782814003770666200,4.712666259765625,-0.008423544952273368,-0.016609536555316298,0.023074038127996025
1782814003790747400,4.732747314453125,-0.022790508478879926,-0.0010711546291597186,0.0180383820483461
1782814003810829300,4.752829345703125,-0.02832125459909439,-0.007005677510984242,0.00027308132033795115
1782814003830911500,4.772911376953125,-0.028178046736121176,-0.002613342569861561,0.012827369401790202
1782814003850992400,4.792992431640625,0.008933832561969756,-0.010956534028612077,0.016648388994671404
1782814003871074600,4.813074462890625,-0.03474807277619839,-0.01318434787960723,0.013503990021720529
1782814003891156500,4.833156494140625,-0.026681086176633832,-0.01477256691912189,0.014696633872389793
1782814003911237000,4.853237060546875,-0.002288403198122978,-0.016433905993774534,0.00760784465521574
1782814003931319300,4.8733193359375,-0.0033329438149929044,-0.01105113524319604,0.016585552891530096
1782814003951401200,4.893401123046875,-0.009015665626525879,-0.002211045379284769,0.01423668821044266
1782814003971482400,4.913482421875,-0.043592473489046095,-0.010996500712819397,0.019499248381145296
1782814003991564300,4.933564208984375,0.020142039796710014,0.006162596016656607,0.015137546040304005
1782814004011646200,4.953646240234375,0.003243511965870857,-0.011652553468756377,0.011597571878507733
1782814004031727400,4.973727294921875,-0.08624445125758648,-0.0023578334388323127,0.017011340555548666
1782814004051809300,4.993809326171875,-0.016374796217679975,-0.009488635166827589,0.007122070432268083
1782814004071892200,5.013892333984375,0.047539165288209916,-0.004280618194956332,0.006368840912170708
1782814004091974100,5.03397412109375,-0.09147358408272266,-0.01781681171953678,0.020818441220931707
1782814004112055300,5.05405517578125,0.017596446967124937,-0.01816675766836852,-0.00017042466346174476
1782814004132137200,5.07413720703125,-0.026817279776930807,-0.014119729033578186,0.010811828328296542
1782814004152219400,5.094219482421875,-0.05737257703840732,0.0000164762107655406,0.02066277573518455
1782814004172300000,5.114300048828125,0.05412497341930866,-0.027133487852942197,0.01064089220818132
1782814004192382200,5.13438232421875,-0.039240123498439784,0.009981898576486856,0.02610251910369843
1782814004212464000,5.154464111328125,-0.041948213413357735,-0.028197226360626517,0.003187324799224734
1782814004232545000,5.174544921875,-0.02951367925405502,-0.008838409363478421,0.029544549316354096
1782814004252627200,5.194627197265625,-0.002446224108338356,0.002492912794277072,0.014811675086803734
1782814004272709000,5.214709228515625,0.0047691140979528425,-0.022932382901292292,0.018502894287556408
1782814004292790300,5.234790283203125,-0.1028349360525608,0.014958828472532331,0.01650404862053692
1782814004312872200,5.2548720703125,0.01656067417860031,-0.0024955431427806612,0.0005381254646927118
1782814004332954000,5.2749541015625,0.007160977670550346,-0.003221775058098137,0.023386099751852452
1782814004353035300,5.29503515625,-0.06632569882273674,-0.00642853521015495,0.021010748922638593
1782814004373117200,5.3151171875,0.019422493350505828,-0.020580869605392217,0.0164647395234555
1782814004393199000,5.33519921875,-0.03354571124911308,0.002542871149536222,0.015504114330373703
1782814004413280300,5.3552802734375,-0.0015320318728685378,-0.0035153877098113295,0.021784254045784473
1782814004433362200,5.375362060546875,-0.040277649852633476,-0.023330862433277068,-0.004216083325073123
1782814004453444400,5.3954443359375,-0.02667524095773697,-0.007185217062663287,0.02552471921574324
1782814004473525200,5.415525146484375,0.017927286356687545,-0.013442816152703017,-0.0014997735710814595
1782814004493607200,5.435607177734375,-0.024417232897877693,0.011107815600186586,0.01307140729073435
1782814004513689300,5.455689453125,-0.04222878392040729,-0.01010559802139178,0.011035627146810292
1782814004533770000,5.47577001953125,-0.01993570356965065,-0.003058346391003579,0.007899448012933135
1782814004553852200,5.49585205078125,-0.03220540255606174,0.00669195365300402,0.021013269673287868
1782814004573934000,5.51593408203125,-0.03431143492460251,-0.031971228474006054,0.016042495523393152
1782814004594015200,5.53601513671875,0.03407996425628662,-0.017614366216305643,0.014026296862773596
1782814004614097200,5.55609716796875,-0.04656944347321987,-0.016744049655180424,0.014803491780348121
1782814004634179000,5.576178955078125,-0.01395955176949501,-0.015054653529822826,0.01144018935970962
1782814004654260200,5.59626025390625,-0.014698971959948539,-0.004834142158180475,0.012144063312746584
1782814004674342100,5.616342041015625,-0.056312838852405546,-0.006450326916854828,0.02481551150046289
1782814004694424000,5.636424072265625,-0.004687281033396721,-0.021012191961053757,0.013514621013589202
1782814004714505200,5.656505126953125,-0.019344167417287825,-0.007883026601094752,0.018680735072493553
1782814004734587100,5.676587158203125,-0.009627075523138046,-0.01645650141807273,0.011558226248808205
1782814004754669300,5.69666943359375,0.007746084082126617,-0.01056769910780713,0.019759324089437723
1782814004774751200,5.716751220703125,-0.043289106628298754,0.0005480988694354891,0.016082681403309106
1782814004794832100,5.73683203125,0.020761632999777794,-0.00015804010592401026,0.01826305764969438
1782814004814914300,5.756914306640625,-0.06287409706413745,-0.012450444114487617,0.028997071501426396
1782814004834996200,5.776996337890625,-0.014259411498904227,-0.006081584936007857,0.009802651285752653
1782814004855077400,5.797077392578125,0.010299860218167305,-0.02481037866761908,0.01681165326498449
1782814004875159300,5.8171591796875,-0.022777064475417136,-0.019457473332341758,0.011934548747912048
1782814004895241200,5.8372412109375,-0.011696283012628554,-0.024305114292912183,0.011285948646068572
1782814004915322400,5.857322265625,-0.03922843306064606,-0.006021762773860246,0.011460391897521913
1782814004935404300,5.877404296875,-0.033248774129152295,-0.006070150226540863,0.026605500189773736
1782814004955486200,5.897486328125,-0.015897826355695723,-0.0035017427769489583,0.017123678356222808
1782814004975567000,5.917567138671875,0.008492518535256385,-0.0038332214873284098,0.012648724899254738
1782814004995649000,5.93764892578125,0.01283317808806896,-0.023823596119973808,0.024066227503120898
1782814005015731200,5.957731201171875,-0.0338584304600954,-0.006636058747302741,0.01119209635015577
1782814005035813000,5.977813232421875,-0.01979132666289806,-0.00939041722305119,0.02528733026329428
1782814005055894000,5.99789404296875,-0.04104161996245384,-0.003813055482134223,0.014092128640599548
1782814005075976200,6.01797607421875,-0.025032149925827977,-0.013787757132854312,0.02062079975698143
1782814005096058000,6.03805810546875,-0.0115635965436697,-0.0013033376835286617,0.012169343884475528
1782814005116139300,6.05813916015625,-0.0036398178070783612,-0.013536284856125711,0.01595375779401511
1782814005136221200,6.07822119140625,0.027794600376486775,0.018305124959442764,0.020274762798286973
1782814005156303000,6.09830322265625,-0.07546352952420711,-0.029957166971545664,0.0329146102713421
1782814005176384000,6.118384033203125,0.013262801676988602,-0.003040390609204769,0.0009148863552138209
1782814005196466000,6.1384658203125,-0.038489012870192525,0.01098983351001516,0.01916610743664205
1782814005216547800,6.1585478515625,-0.08056465205550194,-0.0030649405285716057,0.013907675451785326
1782814005236629000,6.17862890625,0.03136836721003056,-0.029863278143014756,0.010048515805602074
1782814005256711000,6.1987109375,-0.012320552390813826,0.006146174604818225,-0.008061616304703057
1782814005276793000,6.21879296875,-0.02670212896466255,-0.021451843753643333,0.030558512131869792
1782814005296874000,6.2388740234375,-0.0009510171145200729,0.00382593323001638,0.0016815598787739872
1782814005316956200,6.2589560546875,-0.0374748673915863,-0.006545202126074582,0.023606354906409978
1782814005337038000,6.2790380859375,-0.019215572601556777,-0.016157007014844564,0.01400141814984381
1782814005357119000,6.299118896484375,-0.03672434128522873,-0.011230802659038454,0.016071246693842113
1782814005377201200,6.319201171875,0.012352116572856902,-0.002093355550058186,0.007111329842545091
1782814005397283000,6.339282958984375,-0.03627367490828037,-0.0106346816631034,0.014825995873101055
1782814005417364200,6.3593642578125,-0.03299509162902832,-0.02955410259598866,0.018898140682838856
1782814005437446100,6.379446044921875,0.04122457531392574,-0.009354012469109147,0.01721968607660383
1782814005457528000,6.399528076171875,-0.08264087380766869,-0.004098923218809068,0.005749065046012402
1782814005477610000,6.41960986328125,-0.034956747090816497,0.009570723959710448,0.03569558275938034
1782814005497691100,6.439691162109375,0.050070145070552824,-0.029388737700134514,0.0039024507986381647
1782814005517773000,6.45977294921875,-0.07293430330753325,-0.0016575214160606264,0.01373677586428821
1782814005537855200,6.479855224609375,-0.008001520147919654,-0.017791987805534152,0.029888796176761386
1782814005557935900,6.499935791015625,-0.013525252005457877,-0.016017269750591367,0.007451631180197
1782814005578018000,6.52001806640625,-0.008147066098451615,-0.016380129979923365,0.026617775149457155
1782814005598100000,6.540099853515625,-0.03581307165920734,-0.005697718451265246,0.012663995533622801
1782814005618180900,6.560180908203125,-0.06291442907452582,-0.011389098493289201,0.007249496204219758
1782814005638263000,6.580262939453125,0.021783377262949943,-0.00441893068710342,0.013927841456979513
1782814005658345000,6.600344970703125,-0.0419669181138277,-0.018944445776287466,0.021409940840676427
1782814005678426000,6.620426025390625,0.003214285871386528,-0.025222813659720122,0.01125595536660403
1782814005698508000,6.640508056640625,0.003515314644575119,0.0030959567213431,0.03127838737163693
1782814005718590000,6.66058984375,-0.06187222654521465,-0.02385589095437899,-0.0033006124479696155
1782814005738671000,6.680671142578125,-0.02296469600200653,-0.010674995407182723,0.018207710733264684
1782814005758753000,6.7007529296875,-0.044666824722290034,-0.012111257021687924,0.02586461869459599
1782814005778835000,6.7208349609375,0.005754618003964424,-0.004531834743358195,0.009903810105286537
1782814005798916000,6.740916015625,-0.0032148703932762144,-0.012582838322501629,0.027031324386410413
1782814005818998000,6.760998046875,-0.019677344894409178,-0.010135098110511899,0.0252442948391661
1782814005839080200,6.781080078125,0.0011170213311910628,-0.010108045706804842,0.01525653277747333
1782814005859161000,6.8011611328125,-0.016087795969843863,-0.000407557887583971,0.02402344780731946
1782814005879243000,6.821242919921875,-0.03720131114721298,-0.009270279708411544,0.021902400532737374
1782814005899325200,6.8413251953125,-0.017151625809073447,-0.009051284929178654,0.023624438552372156
1782814005919406000,6.861406005859375,-0.021648352706432342,-0.00952293929522857,0.01405723999030888
1782814005939488300,6.88148828125,0.012022446227073668,-0.005380505728255957,0.0092311715407297
1782814005959570200,6.901570068359375,-0.04468728298842907,0.001906107615958899,0.008282565579004586
1782814005979651000,6.921651123046875,0.006929507002234459,-0.010743804593384264,0.020915910246036947
1782814005999733000,6.94173291015625,-0.024175240835547444,-0.01196412190226838,0.004958901049010455
1782814006019815000,6.96181494140625,-0.06623743601739406,-0.0195927536171861,0.024217910933494565
1782814006039896000,6.98189599609375,0.009634089785814285,-0.016560966439545154,0.020832177485339342
1782814006059978000,7.00197802734375,-0.05096563260555267,0.0015056553225964307,0.0180302718071267
1782814006080060200,7.02206005859375,0.01874795508980751,-0.018791593302134424,0.025536300055682658
1782814006100141300,7.042141357421875,-0.0018786533534526824,-0.02291731319632381,0.000680529610067606
1782814006120223200,7.06222314453125,-0.042593525579571724,-0.012374748529773204,0.035142405856028194
1782814006140305400,7.082305419921875,0.03702537005841732,-0.012691559393983334,0.02381557721029967
1782814006160386000,7.102385986328125,-0.07026245374977588,-0.0024343144748359916,0.010741028114408253
1782814006180468000,7.122468017578125,-0.01223638123869896,-0.018856128172017633,0.008939568183012307
1782814006200550100,7.142550048828125,0.0400151995241642,-0.035016971111763266,0.01711330309268087
1782814006220631000,7.162631103515625,-0.07610591908097267,0.009390727750305085,0.02137910731099546
1782814006240713200,7.182713134765625,-0.02180442005097866,-0.02019521302236244,0.008244827384501696
1782814006260795100,7.202795166015625,-0.01520692148208618,0.013165971972700207,0.008991590631194412
1782814006280876000,7.2228759765625,-0.03064531363248825,-0.01801202376438305,0.009990063616633415
1782814006300958200,7.242958251953125,0.027737317231297492,-0.016334062348492443,0.004549260802194476
1782814006321040100,7.2630400390625,-0.06715104373097419,-0.012172686619032173,0.030452494474127886
1782814006341121300,7.283121337890625,0.03969137439727783,-0.01104992966679856,-0.006240209563821554
1782814006361203200,7.303203125,-0.04139057953059673,-0.014817739501409232,0.0221408854637295
1782814006381285000,7.32328515625,-0.02809504462778568,-0.003712462918180972,0.004588679497130215
1782814006401366300,7.3433662109375,-0.0006932429611682891,-0.02397732537696138,0.006743336780369281
1782814006421448200,7.3634482421875,-0.06444938355684281,0.01613488651458174,0.012822254835255443
1782814006441530000,7.383530029296875,-0.005960369709134101,-0.01729711696067825,0.019761990970559418
1782814006461611300,7.403611328125,-0.001450198808312416,-0.0005101049466058611,0.007660378560051322
1782814006481693200,7.423693115234375,-0.04935527479946613,-0.012126838183309882,0.01857533846925944
1782814006501775400,7.443775390625,0.007213584640622139,-0.01732561240280047,0.008250782201252877
1782814006521856000,7.46385595703125,-0.037974049085378644,0.0000339022696018219,0.014675737214833498
1782814006541938200,7.483938232421875,0.01230301673412323,-0.014871789509896188,0.019779051703214645
1782814006562020400,7.504020263671875,-0.04395078540742397,-0.004387932760640979,0.021657412795722482
1782814006582101000,7.52410107421875,-0.005963292318582535,-0.02016874514054507,0.017652341872826216
1782814006602183200,7.54418310546875,-0.007000234150886535,-0.012032912822160869,0.00654343029409647
1782814006622265000,7.56426513671875,-0.05699263781011104,-0.017464125824347136,0.017354491437412797
1782814006642346200,7.58434619140625,0.0030190555602312087,-0.011446363372169433,0.014434329674392938
1782814006662428200,7.60442822265625,-0.015831190860271453,-0.003671126260794699,0.009343618939258157
1782814006682510000,7.624510009765625,-0.03887947349250316,-0.007882021954096853,0.012388210799545048
1782814006702591200,7.64459130859375,-0.018539280775189397,0.000132850865740329,0.026200718781165776
1782814006722673200,7.664673095703125,-0.008058218771219252,-0.00852393658682704,0.01589402696341276
1782814006742755000,7.684755126953125,-0.027664836516976356,-0.01686446116445586,0.024167897779308257
1782814006762836200,7.704836181640625,-0.007907996645569801,-0.01612524190340191,0.00900554609131068
1782814006782918100,7.724918212890625,-0.01329027420580387,-0.010920257138833402,0.007457878257893026
1782814006803000300,7.745000244140625,-0.042620998108386994,-0.007557356576994061,0.024991817915439606
1782814006823081200,7.765081298828125,-0.019724106645584105,-0.012401143346354365,0.011460866821557282
1782814006843163100,7.7851630859375,0.0030219781696796417,-0.0018375358917750418,0.021601919748820364
1782814006863245300,7.805245361328125,-0.027356793481111526,-0.0049408904682844874,0.017287527148425578
1782814006883326200,7.825326171875,-0.007604629784822464,-0.002938099278509617,0.025007600006461142
1782814006903408400,7.845408447265625,0.00032440964877605437,-0.009750884565897285,0.02268284685332328
1782814006923490300,7.865490234375,-0.030344869381189344,-0.017603497762419283,0.01689991607032716
1782814006943571200,7.8855712890625,-0.04006839101612568,0.003208057059999555,0.010978307469002902
1782814006963653000,7.905653076171875,-0.024962591820955275,-0.005973009994998574,0.02234112074356526
1782814006983735000,7.925735107421875,-0.018829203632473944,-0.01900530911805108,0.023138773927278814
1782814007003816200,7.945816162109375,-0.0213712893307209,-0.010003471087478101,0.020432547175884247
1782814007023898000,7.965898193359375,-0.010599135425686836,-0.01131407876200974,0.01911857850048691
1782814007043980000,7.98597998046875,-0.023914544072747228,-0.008469685648940503,0.006482347756624221
1782814007064061200,8.006061279296874,0.000779167678952217,-0.00264965599225834,0.02373692248351872
1782814007084142600,8.026142578125,-0.03618307401537895,-0.0038359796999953683,0.016986644505709407
1782814007104224800,8.046224853515625,-0.011346738922595977,0.002992697276268154,0.020627850552275777
1782814007124305400,8.066305419921875,-0.042458501023054124,-0.0012372136447578667,0.006793569130264222
1782814007144387600,8.0863876953125,-0.009854454538226127,-0.014748309260699897,0.014204393376037478
1782814007164469800,8.1064697265625,-0.007595861956477165,-0.007762706423364579,0.026232830952480433
1782814007184550400,8.12655029296875,-0.01867079820036888,-0.003625624884944409,0.015333507003821432
1782814007204632600,8.146632568359376,-0.021655951490998266,-0.02271835655812174,0.0156910882698372
1782814007224714500,8.166714599609374,-0.03826280289888382,-0.0029665033890865743,0.00513425761591643
1782814007244795600,8.186795654296875,0.003923895445466041,-0.02299940198920667,0.022109175151214
1782814007264877600,8.206877685546875,-0.0020528408765792846,-0.008524374978244304,0.015713117438554764
1782814007284959500,8.22695947265625,-0.04635433941781521,-0.0018075608786195516,0.0042046120829880235
1782814007305040600,8.24704052734375,0.016194763475656508,0.002233348542638123,0.009130378047376871
1782814007325122600,8.26712255859375,-0.023141806134581566,-0.013248060765583068,0.010432912013307214
1782814007345203700,8.28720361328125,-0.04979249717295169,-0.015530125554464756,0.014467793552577496
1782814007365285600,8.30728564453125,-0.006247369956970215,-0.006581515548471361,0.011527100458182393
1782814007385367600,8.327367431640624,-0.009691957452893257,0.0009617394379340112,0.020947255232371387
1782814007405448700,8.34744873046875,-0.006697451812028884,-0.003194905317481607,0.01443940770830959
1782814007425530600,8.367530517578125,-0.05488368283212185,-0.008046765795443207,0.020016221459954978
1782814007445612500,8.387612548828125,-0.008060556858778,-0.011393975597806274,0.01272379942946136
1782814007465693700,8.407693603515625,-0.01687690052092075,-0.011688063173554837,0.009128222622908652
1782814007485775600,8.427775634765625,-0.027962942680716512,-0.011204170380439608,0.022292459296248852
1782814007505857800,8.44785791015625,-0.0005722469300031662,-0.013394976689293979,0.018178776899725198
1782814007525938400,8.4679384765625,-0.04157528844773769,0.0017508987879380582,0.015335004841163754
1782814007546020600,8.4880205078125,0.04670446802973747,-0.013691694613546133,0.006548617925867438
1782814007566102500,8.5081025390625,-0.03962649246752262,-0.009745605602581054,0.03761584676485508
1782814007586183400,8.528183349609375,-0.033653263276815414,0.01811809622105211,0.012632906275615096
1782814007606265600,8.548265625,-0.029449966368079183,-0.012523655481170862,0.0029423735948279498
1782814007626347500,8.568347412109375,-0.0067179100781679145,0.0052971200274303555,0.030632125357352196
1782814007646428700,8.5884287109375,0.010345452925562859,-0.019813008771743624,0.006685432580672204
1782814007666510600,8.608510498046876,-0.048151744228601454,-0.004996840172912925,0.003453464922122657
1782814007686592500,8.628592529296874,-0.04473579830527305,-0.009931721025519072,0.027311785295605656
1782814007706673700,8.648673583984374,-0.003715221130847931,-0.01737494970355183,0.008522036890685558
1782814007726755600,8.668755615234375,-0.035001170754432674,0.007270922584738582,0.026426965285092592
1782814007746837500,8.68883740234375,0.027401217144727704,-0.005827555376011878,0.014461802203208207
1782814007766918700,8.708918701171875,-0.029599603971838948,0.012071454734262079,0.024731157685257493
1782814007787000600,8.72900048828125,-0.02676759541630745,-0.0013007986665703355,0.011169446126930415
1782814007807082800,8.749082763671876,-0.0026788638204336165,-0.01588935078829527,0.02463076605070382
1782814007827163600,8.76916357421875,-0.026764088284969328,0.008730565074831246,0.009856683027930557
1782814007847245600,8.78924560546875,-0.03321019568443298,-0.0038676900125108656,0.025168014732562003
1782814007867326500,8.809326416015624,-0.005225625693798065,-0.02074811593107879,0.003628967619501054
1782814007887408400,8.829408447265624,0.0015109890848398208,-0.014102102045342325,0.020890812337398527
1782814007907490600,8.849490478515625,-0.05459434449672699,-0.0035441571465693413,0.017147351492755113
1782814007927571500,8.869571533203125,-0.00611468348801136,-0.014305497396644204,0.01273947192262858
1782814007947653600,8.889653564453125,-0.009400281029939651,-0.004151000465918332,0.021632461017556486
1782814007967735600,8.909735595703125,-0.01852700581550598,-0.00875379981994629,0.015196400088071823
1782814007987816400,8.92981640625,-0.016879823130369186,-0.00483120128242299,0.011614851806871593
1782814008007898600,8.949898681640626,-0.014642857858538626,-0.00679530442962423,0.009559672842733562
1782814008027980500,8.96998046875,0.018731588476896283,-0.005565744368359446,0.02050170342195779
1782814008048061700,8.990061767578124,-0.014634090030193328,-0.0016059190929867326,0.015974544853717087
1782814008068143900,9.010143798828125,-0.04994856451749801,0.004344477211404591,0.011662526873499154
1782814008088225800,9.030225830078125,-0.028553309789299965,0.003548011337779462,0.025100502454303203
1782814008108307000,9.050306884765625,-0.023618191474676132,0.0015108794869855046,0.013238178692385553
1782814008128388900,9.070388916015625,0.00032031799554824825,-0.006202599233482033,0.019094430439919232
1782814008148470800,9.090470703125,-0.026162030738592145,-0.0032306707506068047,0.009108348878659307
1782814008168552000,9.110552001953126,-0.04666121340990066,-0.0231518343382515,0.006734240158461034
1782814008188633900,9.1306337890625,-0.018387889605760575,-0.005853530067484826,0.02179232775438577
1782814008208716000,9.150716064453125,-0.008964812222123145,-0.00943787309397012,0.016586977663636208
1782814008228796700,9.170796630859375,-0.02588029118776321,-0.014200192124955355,0.02260189057160169
1782814008248878600,9.190878662109375,-0.018398410999774933,-0.008769728041440248,0.02155037222467363
1782814008268959700,9.210959716796875,-0.03201952459514141,-0.010557269045338035,0.010809344110265373
1782814008289041700,9.231041748046875,0.016751812836527824,-0.012807002467196434,0.01678162345290184
1782814008309123800,9.251123779296876,0.012273206117749213,-0.009968271909933537,0.026362558279372752
1782814008329204700,9.271204833984376,-0.027974048596620556,0.0021726495976559816,0.020566146960295736
1782814008349287000,9.291286865234374,-0.054468087768554684,-0.00785999278537929,0.012258848798833787
1782814008369368800,9.311368896484375,0.008525251761078835,-0.01933412094730884,0.02962419042382389
1782814008390077000,9.332076904296875,0.0010486322700977325,-0.014519980397541075,0.014813355587236583
1782814008410158800,9.352158935546875,-0.03456628646850586,-0.0004221161358989775,0.02071921863015741
1782814008430240000,9.372239990234375,-0.0336754751086235,-0.008863963929843156,0.01790646276436746
1782814008450322000,9.392322021484375,0.010616671082377432,-0.00963324953559786,0.01080514285918325
1782814008470403800,9.41240380859375,-0.03951017261147499,-0.002925732987280935,0.014817410707846283
1782814008490484700,9.432484619140626,-0.042512861558794975,-0.004207205898873508,0.025823921358026563
1782814008510566700,9.452566650390626,-0.022158055794239042,-0.011142393723223358,0.009655753628350795
1782814008530647800,9.472647705078124,-0.03128945675492287,-0.002859353220183402,0.018564707477390766
1782814008550729700,9.492729736328124,-0.013484919995069502,-0.00489047545529902,0.01974277481343597
1782814008570811600,9.512811767578125,-0.008546879070997238,0.0017746997886337339,0.01699745816066861
1782814008590892800,9.532892822265625,-0.022765374037623406,-0.01581922642784193,0.024518903174065052
1782814008610974700,9.552974609375,-0.013325930041074753,-0.005805270478967577,0.008824819229543208
1782814008631057000,9.573056884765625,-0.03891103767454624,-0.0003258892198093235,0.02726663097962737
1782814008651137800,9.5931376953125,-0.03876724528968334,-0.007137030539382249,0.017832447680085895
1782814008671219700,9.6132197265625,-0.01676934849321842,0.004090264988318085,0.014047704976983367
1782814008691302000,9.633302001953124,-0.005395137041807174,-0.015587098172400145,0.03564385257214307
1782814008711382800,9.6533828125,-0.02139876185953617,-0.004501275208313018,0.015062398444861173
1782814008730837800,9.672837646484375,-0.025590368330478667,0.0047894627662375565,0.010523659036681055
1782814008750920000,9.692919921875,-0.013628127858042717,-0.009071560532227158,0.020304061958007512
1782814008771000800,9.713000732421875,-0.01630757620036602,-0.00801039757411927,0.012028985565714537
1782814008791082800,9.733082763671876,-0.01915536684691906,-0.0028691987607628107,0.020755312856845558
1782814008811165000,9.7531650390625,-0.01526011297404766,-0.004402783269900829,0.010674684879928826
1782814008831245800,9.773245849609374,-0.034570378121733664,-0.007146236759144812,0.01454823837764561
1782814008851328000,9.793327880859374,0.018100304836034774,-0.01333482573358342,0.004486972688324749
1782814008871410000,9.813409912109375,-0.0005757540613412857,-0.017579294902924446,0.021458236961811778
1782814008891490800,9.83349072265625,-0.048320671054720876,0.008153020915202796,0.021515191313438115
1782814008911572700,9.85357275390625,0.04056172749102115,-0.012213621417619287,0.017061974764242767
1782814008931654700,9.873654541015625,-0.04575812709033489,0.0020432693306356668,0.006925634544715285
1782814008951735800,9.89373583984375,-0.05626198544800281,-0.012517609332874416,0.021859693902172146
1782814008971817700,9.913817626953126,0.041319267860054965,-0.003902505597565323,0.013038235673494636
1782814008991899600,9.933899658203124,-0.062083823469281194,-0.010766217354591935,-0.005898081595264375
1782814009011980800,9.953980712890624,0.014213818791508674,0.001560636912845075,0.0251436840089038
1782814009032062700,9.974062744140625,-0.03125613900721073,-0.007370747963711619,0.011076287950761616
1782814009052144600,9.99414453125,-0.01616378381550312,0.008473813834786414,0.018335392233543097
1782814009072226300,10.014226318359375,-0.019137831190228462,-0.017731855116132646,0.010674063825421035
1782814009092308200,10.03430810546875,-0.039347675526142115,-0.012895703663956374,0.016335888979397712
1782814009112390400,10.054390380859376,0.008090951997041702,-0.006227039554994553,0.01814348639063537
1782814009132471300,10.07447119140625,-0.05594751267135143,-0.003971406115312129,0.023325674801506102
1782814009152553200,10.09455322265625,-0.011221651238203048,-0.011815014021471141,0.01092259522639215
1782814009172635400,10.114635498046875,-0.0005868599772453308,0.002745700245257467,0.022502814111299813
1782814009192716000,10.134716064453125,-0.023493688312172887,0.00002497004447504878,0.012041698916815221
1782814009212798200,10.154798095703125,0.0028501287341117856,-0.011782646121829747,0.009614508302509784
1782814009232879000,10.174879150390625,-0.03769581666588783,-0.0025086218200623986,0.010112594017758965
1782814009252961300,10.194961181640625,-0.009421323817968367,-0.014088584976643323,0.017119659768231214
1782814009273043200,10.215043212890626,-0.004175824379920959,-0.009301935221999883,0.02888575661405921
1782814009293124000,10.2351240234375,-0.04592354678511619,0.0008411452655680478,0.02196644221227616
1782814009313206300,10.255206298828124,-0.2730985637336969,0.1484710441984236,-0.2551318038831465
1782814009333288200,10.2752880859375,-0.0912578955054283,-0.023269761629495768,0.06773461577259003
1782814009353369300,10.295369384765625,0.1269026248604059,-0.03346365898884833,0.02665101983193308
1782814009373451300,10.315451171875,0.23123452147245405,-0.1756868035073392,0.08375283537125214
1782814009393533200,10.335533203125,0.021663550275564193,-0.004530428237561136,0.04201028233151883
1782814009413614300,10.3556142578125,-0.06663549542427062,-0.01842491541421041,0.009322941477410494
