time,seconds_elapsed,z,y,x
1782812276077699000,0.062698974609375,-0.014966098463535308,-0.15172467569950968,-0.21585087345028295
1782812276097782000,0.082781982421875,-0.017657237243652344,-0.05345880112815648,0.1406347793485038
1782812276117864000,0.102864013671875,-0.03172258747518063,0.18700926650520414,0.3710142731605097
1782812276137947000,0.12294677734375,-0.036519174101948736,0.06497947184555232,0.22792895885473116
1782812276158029800,0.14302978515625,-0.02380173134803772,-0.33426041351985186,-0.1755506647059694
1782812276178111700,0.16311181640625,-0.019905308431386947,0.08798829925023019,-0.29931122868098314
1782812276198195000,0.18319482421875,-0.009275777867436408,0.2574259975012392,-0.2430422655029222
1782812276218276900,0.20327685546875,-0.02813128498494625,0.1584733279758133,0.020516709194844586
1782812276238359800,0.22335986328125,-0.015122165808081626,-0.22887835026774553,0.207896389048174
1782812276258442800,0.24344287109375,-0.02125496947467327,-0.3648429275818169,0.3060500719493255
1782812276278525000,0.26352490234375,-0.03591711655557155,0.23381690264847127,0.17505990378065034
1782812276298607900,0.28360791015625,-0.022452070304751395,0.24820607800688593,-0.2371344296986237
1782812276318690800,0.30369091796875,-0.017971710020303726,0.015068937783502042,-0.4272132398422807
1782812276338772700,0.323772705078125,-0.00779869105219841,-0.1727490878213197,-0.26207031617574394
1782812276358856000,0.34385595703125,-0.024848610052466392,-0.01073573088478297,0.11634178475164808
1782812276378937900,0.363937744140625,-0.03412380339801311,0.3201926521355286,0.37364250277224925
1782812276399020800,0.384020751953125,-0.020366496202349663,-0.1724973050173372,0.1890329543525353
1782812276419103700,0.404103759765625,-0.016181903994083403,-0.24438776182774452,-0.06378349439348094
1782812276439186000,0.42418603515625,-0.022166239100694655,0.04523804873898625,-0.27331027025561777
1782812276459268900,0.444268798828125,-0.02515022334754467,0.3221070343894884,-0.21488478663079438
1782812276479352000,0.46435205078125,-0.016475918504595757,0.17348982318602502,-0.004373520642798394
1782812276499434000,0.48443408203125,-0.021422142735123634,-0.4025833871070295,0.12017406552406028
1782812276519517000,0.504516845703125,-0.03668868544995785,-0.1360243812099099,0.24379534889254717
1782812276539598800,0.524598876953125,-0.032787001836299894,0.18181820066813378,0.12567165829334406
1782812276559681800,0.544681884765625,-0.01736848343014717,0.2161485229562968,-0.1386044608309865
1782812276579764700,0.5647646484375,-0.015586276188492775,-0.05469674542527646,-0.3162369367796927
1782812276599847000,0.584846923828125,-0.007211831074953079,-0.24089338037334382,-0.2212665235571563
1782812276619929900,0.604929931640625,-0.028448095849156377,0.19829002751950173,0.13822318816212936
1782812276640011800,0.62501171875,-0.020213351467251776,0.1515870938597247,0.2955694483367726
1782812276660095000,0.645094970703125,-0.01528407837152481,-0.12000603374708443,0.1591576752444729
1782812276680178000,0.665177978515625,-0.013211948272585868,-0.2151790203370154,-0.09754061990357003
1782812276700259800,0.685259765625,-0.011106500425934791,0.06595916706528514,-0.25673288240423425
1782812276720342800,0.7053427734375,-0.021113515177369115,0.39994522062316534,-0.15749441820736973
1782812276740425700,0.72542578125,-0.029046061742305753,-0.039288967608846724,-0.046504054653388444
1782812276760507100,0.745507080078125,-0.0073678984194993965,-0.2608770512705669,0.13644686267198994
1782812276780590000,0.765590087890625,-0.014706570744514464,-0.12253580795302986,0.2327092336675152
1782812276800672000,0.785672119140625,-0.027854806131124496,0.21626652331277726,0.11716838090205564
1782812276820755000,0.8057548828125,-0.03324468247592449,0.18949702820032835,-0.13262110297190957
1782812276840838100,0.825838134765625,-0.01246025312244892,-0.22076058332901446,-0.3439656323131174
1782812276860920000,0.845920166015625,-0.030273557710647582,-0.03608052695635706,-0.1636489953143522
1782812276881003300,0.866003173828125,-0.02173252385854721,0.15336546517647803,0.12120957345110364
1782812276901086200,0.886086181640625,-0.03144961575269699,0.11222429382968693,0.271863761241734
1782812276921168100,0.906168212890625,-0.010365326669812202,-0.1660604038376361,0.13756653261799365
1782812276941251000,0.9262509765625,-0.024886603975296018,-0.2322905333314091,-0.11716033459291793
1782812276961333000,0.9463330078125,-0.01679331389069557,0.25345764185953884,-0.19476357042640446
1782812276981416000,0.966416015625,-0.01289163027703762,0.22792294923905282,-0.1908306514242664
1782812277001499100,0.9864990234375,0.0005693243205547332,-0.03991612306386232,-0.048623581257741896
1782812277021581000,1.0065810546875,-0.022034721675515175,-0.24926212639845907,0.1256162109122146
1782812277041664000,1.0266640625,-0.014990648382902145,-0.048433666442520916,0.23573888368699697
1782812277061746200,1.04674609375,-0.03607902911901474,0.27734361742492764,0.1514478406526614
1782812277081829000,1.0668291015625,-0.012440963900089263,0.0010518106078729033,-0.15835841462556272
1782812277101912000,1.086912109375,-0.010665770921111106,-0.11003799929916858,-0.28551691394317896
1782812277121994000,1.106993896484375,-0.020696166548132895,-0.01877564681433141,-0.13881955575323662
1782812277142077200,1.1270771484375,-0.020972645401954648,0.16214027125183492,0.13011768704992718
1782812277162160000,1.14716015625,-0.022767127603292463,0.08574768071658909,0.26648340164395046
1782812277182242000,1.167241943359375,-0.00722352151274681,-0.2895852958932519,0.09121128901788032
1782812277202325000,1.187324951171875,-0.026830139258503912,-0.056768181404471395,-0.07457067233771085
1782812277222407200,1.2074072265625,-0.026669980260729788,0.1990835890499875,-0.18290281756706533
1782812277242490000,1.227489990234375,-0.01393909350335598,0.2173861019272357,-0.1832718700751662
1782812277262573000,1.247572998046875,-0.02517594231069088,-0.09194638922624289,-0.050261201530089596
1782812277282655000,1.267655029296875,-0.013806407034397124,-0.25837292296253145,0.1263843548736535
1782812277302738200,1.28773828125,-0.031007132682204244,0.11207443703021853,0.24754958685953168
1782812277322820000,1.307820068359375,-0.02650514508783817,0.13085479655228555,0.0998516824580729
1782812277342903000,1.327903076171875,-0.02381692891716957,-0.004000906204432249,-0.1507046941351611
1782812277362986000,1.347986083984375,-0.012912673065066337,-0.11736205857694149,-0.2837761529567651
1782812277383068200,1.368068115234375,-0.018287936362624168,0.03980941128637641,-0.1446609752578195
1782812277403151000,1.388151123046875,-0.027398879057168958,0.22314809952005743,0.12806501057012937
1782812277423234000,1.408234130859375,-0.038330022916197776,-0.07217405952475965,0.2152790101127699
1782812277443316000,1.42831591796875,-0.011858780097961425,-0.19282061966508626,0.12435673063672147
1782812277463399200,1.448399169921875,-0.01889700817167759,-0.04838621057160199,-0.053046950657945124
1782812277483481000,1.468481201171875,-0.04386895234286785,0.23000402982942758,-0.1839110812941566
1782812277503564000,1.48856396484375,-0.018583119916915893,0.1724183580296114,-0.1773806018131785
1782812277523647000,1.50864697265625,-0.023529928669333455,-0.19620386889521033,-0.08934098336766473
1782812277543729200,1.528729248046875,-0.023982348611950872,-0.11302786529753356,0.15212479919930919
1782812277563812000,1.54881201171875,-0.028010288953781125,0.08373995762336998,0.23166412679506465
1782812277583894000,1.56889404296875,-0.024561609804630277,0.11499452572800219,0.09693861715612001
1782812277603977200,1.588977294921875,-0.018586042526364324,-0.04592405824176967,-0.17137356168441473
1782812277624060200,1.60906005859375,-0.00647065731883049,-0.12397219743169843,-0.27553687853021547
1782812277644142000,1.62914208984375,-0.019033201771974564,0.1574090780114755,-0.08845503997914493
1782812277664225000,1.64922509765625,-0.023514731100201604,0.1339416931843385,0.11344416361399925
1782812277684307200,1.66930712890625,-0.027863573959469794,-0.11020170196089893,0.2016024034705013
1782812277704390100,1.68939013671875,-0.021754151168465612,-0.1898269542744383,0.11485331802587025
1782812277724473000,1.70947314453125,-0.013516484177112579,0.03214059369154274,-0.040495932245813306
1782812277744555000,1.729554931640625,-0.028306641551852224,0.2659304256699979,-0.1706317486074753
1782812277764639200,1.74963916015625,-0.0076566522330045695,0.030458412758260965,-0.21367654335219413
1782812277784721200,1.76972119140625,-0.020095862567424773,-0.13915171945020555,-0.059598810853669415
1782812277804804400,1.789804443359375,-0.03132628163397312,-0.08027973416689783,0.14575857950248755
1782812277824887300,1.80988720703125,-0.028604163193702695,0.11902812862563877,0.2273226087257266
1782812277844969200,1.82996923828125,-0.02919569934606552,0.07888552159583195,0.08828498977501877
1782812277865052200,1.85005224609375,-0.018002689680457113,-0.13816007806435227,-0.18908008142989127
1782812277885135000,1.870135009765625,-0.017111293798685073,-0.01172211157362908,-0.22686390517279503
1782812277905217300,1.89021728515625,-0.009015665626525879,0.13864515816755593,-0.08956638962137513
1782812277925300200,1.91030029296875,-0.026658289822936058,0.10435681185759603,0.10782806816473603
1782812277945382100,1.930382080078125,-0.017246902877092362,-0.13450418590530752,0.17568057469595222
1782812277965465300,1.95046533203125,-0.008729834422469138,-0.18665767658855764,0.10858422942743635
1782812277985548300,1.97054833984375,-0.008421206864714622,0.13356383631527424,-0.011135114599065854
1782812278005630200,1.990630126953125,-0.024860300490260123,0.17019036151552572,-0.17255710891317574
1782812278025713200,2.010713134765625,-0.008855506628751755,0.02262033954374492,-0.20649609379619357
1782812278045795300,2.03079541015625,-0.018603578183054924,-0.12827259803935884,-0.06341435968698933
1782812278065878300,2.050878173828125,-0.018893501040339468,-0.03203117850031704,0.15554732099389657
1782812278085961200,2.070961181640625,-0.025607903987169264,0.13001366955302654,0.2490521551758982
1782812278106043400,2.09104345703125,-0.022768881168961523,-0.018699184044636784,0.05207191334702074
1782812278126126300,2.111126220703125,-0.029670331120491025,-0.0733207453418523,-0.15785282145729287
1782812278146208300,2.131208251953125,-0.020095862567424773,0.025228439682908353,-0.23237627538610248
1782812278166291200,2.151291259765625,-0.022905659291148184,0.170059446878545,-0.08612072441321797
1782812278186374100,2.1713740234375,-0.03143032653033733,0.07816707112817094,0.08897808660571463
1782812278206456000,2.1914560546875,-0.014090484672784804,-0.2022335044482723,0.1672471659367904
1782812278226539000,2.2115390625,-0.023069909942150114,-0.09378774277660995,0.12548429162823593
1782812278246622200,2.231622314453125,-0.031437925314903255,0.1133686232929118,-0.02271189941787161
1782812278266704400,2.251704345703125,-0.014658055427670479,0.14957672215169296,-0.17928725741840898
1782812278286787300,2.271787353515625,-0.014524784436821937,-0.027642716016713528,-0.19882526690736413
1782812278306869200,2.291869140625,-0.016631401327252385,-0.12468637358304112,-0.06327030244064517
1782812278326952200,2.3119521484375,-0.024253566768765448,0.0640605303697288,0.17849411601303145
1782812278347035100,2.33203515625,-0.021094810476899147,0.05382273906972259,0.21521547988988457
1782812278367117000,2.352116943359375,-0.0296323371976614,-0.03755775990206748,0.04249641274749301
1782812278387200000,2.372199951171875,-0.02142623438835144,-0.08823339658509939,-0.15968440253231672
1782812278407282200,2.3922822265625,-0.018721651604771614,0.07224378202641382,-0.20738281350284812
1782812278427365400,2.412365478515625,-0.014065350231528282,0.19042713039098305,-0.07689777271156199
1782812278447448300,2.4324482421875,-0.019905892953276633,-0.04693402073560282,0.07208197906082496
1782812278467530200,2.4525302734375,-0.030393969219923017,-0.1468615266425535,0.15357529026856645
1782812278487613200,2.47261328125,-0.023362755408883093,-0.055885462019499385,0.13273738629533907
1782812278507695000,2.492695068359375,-0.030226795959472655,0.14594360808003692,-0.019309443163778632
1782812278527778000,2.512778076171875,-0.01630874524414539,0.11677052242457867,-0.16703644579555837
1782812278547861200,2.532861328125,-0.014079963278770445,-0.08471541505940258,-0.2143879430245608
1782812278567943400,2.552943359375,-0.019172902503609656,-0.029008067819476124,-0.023815065753646194
1782812278588026400,2.5730263671875,-0.014817629903554915,0.04231503743175417,0.17008182310713454
1782812278608108300,2.5931083984375,-0.024081717333197594,0.04730007756901905,0.19126878711320458
1782812278628191200,2.613191162109375,-0.01945814918577671,-0.06949125018157065,0.034635305717261505
1782812278648274200,2.633274169921875,-0.012732640323042868,-0.07350061368709429,-0.15986657243249938
1782812278668356000,2.653356201171875,-0.018259294790029523,0.1349125840431079,-0.18420365276625378
1782812278688439000,2.67343896484375,-0.02138297976851463,0.11254084896557033,-0.08328508999533951
1782812278708521200,2.693521240234375,-0.006122866794466972,-0.04661852504564449,0.05891072812480851
1782812278728604400,2.7136044921875,-0.026489362996816635,-0.15094718852099032,0.16578914914820342
1782812278748687400,2.733687255859375,-0.022140520137548445,-0.02065886674504727,0.12188747271266766
1782812278768768300,2.753768310546875,-0.02841185549199581,0.15435352636575697,-0.019888494293903932
1782812278788851200,2.773851318359375,-0.013300211077928543,0.03036549204410985,-0.1942132978661917
1782812278808933400,2.793933349609375,-0.003735679396986961,-0.04301410734551027,-0.20034940773472187
1782812278829016300,2.814016357421875,-0.01960311061441898,-0.02024586549736559,-0.02221370410476811
1782812278849099300,2.834099365234375,-0.036194764453172684,0.06931264221165329,0.16582111518904566
1782812278869181200,2.85418115234375,-0.026168460479378697,0.019922661424987016,0.18554306641016155
1782812278889264000,2.87426416015625,-0.010922960552573203,-0.11609985662139952,0.004837457493273541
1782812278909346300,2.89434619140625,-0.007332827106118202,-0.000788611360732466,-0.13817161323851904
1782812278929429200,2.91442919921875,-0.03081657854616642,0.12084082233710214,-0.1788573415685445
1782812278949512200,2.93451220703125,-0.029908231529593467,0.10155583776114507,-0.07220822665584273
1782812278969594400,2.954594482421875,-0.023489012137055395,-0.07263312840387225,0.04652129348255694
1782812278989677300,2.97467724609375,-0.03067746233642101,-0.13539790160832926,0.15763600036883726
1782812279009759200,2.99475927734375,-0.022741993162035942,0.04141830778773874,0.1325210309977643
1782812279029842200,3.01484228515625,-0.030064298874139785,0.07780437529562041,-0.031290187407284974
1782812279049925400,3.03492529296875,-0.015853402692079542,0.02466801105486229,-0.1904999581651762
1782812279070007300,3.05500732421875,-0.008085691300034522,-0.04851075026672333,-0.18258337635435162
1782812279090090200,3.07509033203125,-0.0158639240860939,0.018893464507721364,-0.016658453730959446
1782812279110173200,3.095173095703125,-0.028572599011659622,0.08039545123474671,0.1662015293413773
1782812279130255000,3.115255126953125,-0.03321837899088859,-0.048988249851670114,0.14992620230964385
1782812279150338000,3.135338134765625,-0.020514380240440368,-0.07233982627941295,0.02992447027834132
1782812279170420200,3.155420166015625,-0.01318096861243248,0.014925656855292617,-0.13162893186309374
1782812279190503200,3.175503173828125,-0.01376256789267063,0.14080670184930785,-0.1675861155675724
1782812279210586400,3.19558642578125,-0.02648468682169914,0.0637165575039573,-0.09286336707384325
1782812279230668300,3.215668212890625,-0.011684008052945137,-0.09768951772181317,0.044372417486133055
1782812279250751200,3.235751220703125,-0.030991935113072393,-0.05814041960574686,0.16835039620464667
1782812279270833200,3.255833251953125,-0.026942367461323738,0.021599307666625826,0.11945220838976092
1782812279290916000,3.275916015625,-0.033519407764077185,0.07183328326307237,-0.043614292595209554
1782812279310999000,3.2959990234375,0.0025327333480119705,-0.005498213823791593,-0.18964567942339927
1782812279331081200,3.316081298828125,-0.020815993535518645,-0.02883108555106446,-0.16417281825905664
1782812279351164400,3.336164306640625,-0.030685645642876624,0.06914104850441218,-0.004243628919124603
1782812279371246300,3.356246337890625,-0.02738134340047836,0.03273633109498769,0.1444833902012091
1782812279391329300,3.376329345703125,-0.029629414588212964,-0.046472394573222844,0.17009992501940577
1782812279411412200,3.396412109375,-0.011682254487276077,-0.09692576680770143,0.016491426600981504
1782812279431494100,3.416494140625,-0.02469488079547882,0.058115906218998134,-0.1229420689326711
1782812279451577000,3.4365771484375,-0.014214987835288047,0.14228687567077578,-0.15318206230043432
1782812279471659300,3.4566591796875,-0.035167759492993354,0.016277381991501895,-0.09967243516733869
1782812279491742200,3.4767421875,-0.014527122524380683,-0.08028335089609026,0.05474725176980719
1782812279511825400,3.496825439453125,-0.02529869190752506,-0.05860231976276263,0.1643488324130885
1782812279531907300,3.5169072265625,-0.03022445787191391,0.05352969267359003,0.12860122720552608
1782812279551990300,3.536990234375,-0.01436345639526844,0.049110670654941346,-0.0399780823841691
1782812279572072200,3.557072265625,-0.030536592561006545,-0.035489301331248134,-0.1808113799794577
1782812279592155100,3.577155029296875,-0.010341945794224738,0.013629223836585878,-0.15134797874107025
1782812279612238000,3.597238037109375,-0.02604512636065483,0.07245335139017552,0.0026739410501439125
1782812279632320300,3.6173203125,-0.029627076500654218,0.01827829175144434,0.1442349683980923
1782812279652403200,3.6374033203125,-0.013473229557275772,-0.08371204670313745,0.1437948599477764
1782812279672485000,3.657485107421875,-0.020661679756641387,-0.08024422446209938,0.006863017637282609
1782812279692568300,3.677568359375,-0.014967852029204368,0.09917445904994383,-0.10365088294479063
1782812279712651300,3.6976513671875,-0.02213935109376907,0.1058205094682984,-0.1600542222253978
1782812279732733200,3.717733154296875,-0.02902326538860798,-0.007549173270538449,-0.08771754688429646
1782812279752816000,3.737816162109375,-0.02289747598469257,-0.08335547008411959,0.0722721952701453
1782812279772898800,3.75789892578125,-0.02168985376060009,-0.016254348175786436,0.169923947397992
1782812279792981800,3.777981689453125,-0.010306874480843543,0.06841806799210608,0.12136533940155059
1782812279813064700,3.798064697265625,-0.015392214921116828,-0.015702541245613245,-0.04991832464286126
1782812279833147000,3.81814697265625,-0.007168576455116271,-0.014276727959886193,-0.17267942011859266
1782812279853229800,3.838229736328125,-0.02153027928471565,0.02688798865927383,-0.14472041382747702
1782812279873311700,3.858311767578125,-0.008201426634192465,0.07051726876106112,0.009598543548397719
1782812279893395000,3.87839501953125,-0.03677753277719021,0.012159717539604752,0.14661268471432848
1782812279913478000,3.898477783203125,-0.015087679016590118,-0.11838382110642269,0.12550553534566425
1782812279933559800,3.918559814453125,-0.030502105769515037,-0.013304394062701612,0.03429171644398011
1782812279953642800,3.938642822265625,-0.02451484805345535,0.0894135097477585,-0.11056811498734168
1782812279973725000,3.958724853515625,-0.0008650923967361449,0.08553599246097728,-0.16079152352400122
1782812279993808000,3.978807861328125,-0.015091186147928237,-0.010217259968630968,-0.09676836602259427
1782812280013890800,3.998890869140625,-0.013146481820940971,-0.07134259540298953,0.05134242089553736
1782812280033972700,4.01897265625,-0.028399580532312393,0.027484438448771832,0.17595891671329736
1782812280054056000,4.039055908203125,-0.018814006063342093,0.032902463175822044,0.1178088981621433
1782812280074137900,4.059137939453125,-0.009384498938918113,-0.005304353485815227,-0.0420410153965
1782812280094220800,4.079220703125,-0.012233458629250526,-0.011058533098362385,-0.16698250538492573
1782812280114303700,4.0993037109375,-0.02464695000052452,0.047710868593305346,-0.1393148649895098
1782812280134386000,4.119385986328125,-0.03705927232801914,0.08650704771652817,0.015915407678158952
1782812280154468900,4.13946875,-0.02404255436658859,-0.05047019550511613,0.12442298253965563
1782812280174550800,4.15955078125,-0.030931729358434676,-0.08005496723400428,0.13111839765822514
1782812280194634000,4.179634033203125,-0.027339842346310615,-0.021247790815215557,0.027740166775509712
1782812280214717000,4.199717041015625,-0.01880114658176899,0.09737391243400052,-0.0943537791615352
1782812280234798800,4.219798828125,-0.0199988319337368,0.06258088627122342,-0.17373115766122937
1782812280254881800,4.2398818359375,-0.02135083106458187,-0.04196067103613168,-0.09840926509741693
1782812280274964000,4.2599638671875,-0.021945874348282813,-0.0279074861664325,0.06356041709417477
1782812280295047000,4.280046875,-0.0319634104937315,0.025178061202540993,0.16978632902558893
1782812280315129900,4.3001298828125,-0.027919688060879706,0.03300144830457866,0.10872074268814176
1782812280335211800,4.320211669921875,-0.014907646274566649,-0.03232254439601674,-0.04358858276521787
1782812280355295000,4.340294921875,-0.0210445415943861,-0.003084832539130002,-0.15926371116852386
1782812280375377000,4.360376953125,-0.009663900402188301,0.07344090112280101,-0.11617161581651307
1782812280395459800,4.3804599609375,-0.019835165804624556,0.04814158816076815,0.004543799175787717
1782812280415542800,4.400542724609375,-0.027473113337159155,-0.03710669166631996,0.10631977336048148
1782812280435625000,4.420625,-0.013861352092027664,-0.08344822640148922,0.120872313453909
1782812280455708000,4.4407080078125,-0.03779927704036236,0.010984792008716613,0.03766209705937654
1782812280475789800,4.460789794921875,-0.022232874596118925,0.08147029565833508,-0.08391557905175723
1782812280495872800,4.480872802734375,-0.019093992048501967,0.03687759561818093,-0.15621155705628917
1782812280515956000,4.5009560546875,-0.012213584885001181,-0.03579398336624726,-0.09554974748045206
1782812280536038000,4.521037841796875,-0.022985738790035248,-0.029068346639350054,0.05417637481298297
1782812280556120800,4.541120849609375,-0.018788287100195884,0.035556886674743146,0.16249445498436688
1782812280576202800,4.56120263671875,-0.030156653332710264,-0.0028361732739955185,0.10390529609727672
1782812280596285700,4.58128564453125,-0.019241876086592672,-0.05892187057333067,-0.04022581920069642
1782812280616369000,4.601368896484375,-0.018945523488521576,0.017061499840207398,-0.13604197166552767
1782812280636450800,4.621450927734375,-0.01923603086769581,0.06733491239789872,-0.12100559357791207
1782812280656534000,4.641533935546875,-0.014141922599077223,0.050516938989982,0.006216289832117036
1782812280676617000,4.661616943359375,-0.021176059019565582,-0.04653188794180751,0.10845243800762108
1782812280696699000,4.681698974609375,-0.018036591950058935,-0.08619217308107763,0.1176808056699112
1782812280716781800,4.70178173828125,-0.02357084520161152,0.034811548200156535,0.046753558735316614
1782812280736863700,4.72186376953125,-0.02850245638489723,0.06466852446654811,-0.09037431760393083
1782812280756946700,4.74194677734375,-0.013982932645082474,0.04141224337313324,-0.15427965741194782
1782812280777030100,4.762030029296875,-0.024758593681454655,-0.04535537324203178,-0.10146446968326345
1782812280797112300,4.7821123046875,-0.01188683714866638,0.007033405768126249,0.04102291526198387
1782812280817195300,4.8021953125,-0.02639583949446678,0.015031382252089678,0.1441413535641972
1782812280837277200,4.822277099609375,-0.02460018824934959,-0.03089861254012212,0.10366401642099954
1782812280857360100,4.842360107421875,-0.04017068234682083,-0.03571598622659221,-0.024224879530398175
1782812280877443000,4.862443115234375,-0.009194529324769973,0.03218739197533577,-0.13512766983220353
1782812280897525000,4.88252490234375,-0.015171850168704986,0.07888727516150101,-0.12121180194080806
1782812280917608000,4.90260791015625,-0.0244517196893692,0.03796792987184599,-0.015687471540644763
1782812280937690400,4.9226904296875,-0.0213145907074213,-0.07974378239298238,0.08805560146593489
1782812280957773300,4.942773193359375,-0.03598316752910614,-0.04114950078371912,0.11638199803102761
1782812280977856300,4.962856201171875,-0.029993571725487708,0.005306161850411445,0.05141251785652712
1782812280997938200,4.982938232421875,-0.01787175677716732,0.058188953188899904,-0.0632009635314811
1782812281018021000,5.003021240234375,-0.015037410134077072,0.022763547406718133,-0.15122975005572661
1782812281038103000,5.02310302734375,-0.018033084818720818,-0.022229276133235543,-0.09359928013295866
1782812281058186000,5.04318603515625,-0.007404723298549651,0.0016718604686670004,0.036090609958954155
1782812281078269200,5.063269287109375,-0.022214754417538642,-0.0046180882547050715,0.12118040215554647
1782812281098351400,5.083351318359375,-0.03792728733420372,-0.016694456626102326,0.08847542518004775
1782812281118434300,5.103434326171875,-0.027457915768027304,-0.03085353128938004,-0.04564524130038917
1782812281138516200,5.12351611328125,-0.030746435919404028,0.0324825755296275,-0.1147824995456729
1782812281158599200,5.14359912109375,-0.023109657430648804,0.08254935959931463,-0.11052930821375921
1782812281178682000,5.16368212890625,-0.00993453403711319,0.0047882937224581834,-0.03155865648458712
1782812281198764000,5.183763916015625,-0.0234060100287199,-0.043569275276549156,0.08692946524652652
1782812281218847000,5.203846923828125,-0.032985739278793336,-0.05449095718748867,0.11211323467064649
1782812281238929200,5.22392919921875,-0.013829787909984587,0.037518596935458476,0.04859277512752451
1782812281259012000,5.24401220703125,-0.014282207852602005,0.04486358940340578,-0.07526143108084797
1782812281279095300,5.26409521484375,-0.024464579170942306,0.005950451103318482,-0.14907711119963787
1782812281299177200,5.28417724609375,-0.014888357052206992,0.008008278682269155,-0.08687669387967326
1782812281319260200,5.30426025390625,-0.030295185020565985,0.008480481037590653,0.050960718968417494
1782812281339342000,5.324342041015625,-0.018769582399725912,0.010712934531085192,0.12701290770131163
1782812281359424000,5.344424072265625,-0.03328910613954067,-0.03714358961060643,0.08931912772888317
1782812281379507000,5.3645068359375,-0.016086042404174803,-0.033947204722091555,-0.0290696800799109
1782812281399590100,5.384590087890625,-0.01129471647441387,0.058602338029071686,-0.11305559355467558
1782812281419672300,5.40467236328125,-0.029397359398007392,0.06025282691614702,-0.11142809281754307
1782812281439755300,5.42475537109375,-0.020422610303759574,0.01439593389276415,-0.022052166000660508
1782812281459837200,5.444837158203125,-0.00949964975118637,-0.05965029444573447,0.0798342371554114
1782812281479920000,5.464920166015625,-0.018926818788051605,-0.024430713433958588,0.11340221503525971
1782812281500003000,5.485003173828125,-0.01279050799012184,0.022270722388476133,0.05902462769490666
1782812281520085000,5.5050849609375,-0.01713233658671379,0.02420883257789537,-0.08061816320787184
1782812281540168000,5.52516796875,-0.018187398597598076,0.027803824862558394,-0.12045603340375237
1782812281560250000,5.54525,-0.019532967987656594,0.004987378224823624,-0.08737532758419402
1782812281580333300,5.565333251953125,-0.012493570870161055,0.01710546684609726,0.04841081528989598
1782812281600416300,5.585416259765625,-0.014735212317109107,-0.005893423686455935,0.12405325417811981
1782812281620498200,5.605498291015625,-0.015483400335907935,-0.04641279160678386,0.07370731524033472
1782812281640581000,5.6255810546875,-0.019675591328740118,0.009053422087337821,-0.024378608787385746
1782812281660663000,5.6456630859375,-0.014889526095986365,0.017934318885672835,-0.13117930666576139
1782812281680746000,5.66574609375,-0.02625730780661106,0.0807206646011211,-0.10159963123709895
1782812281700829000,5.685828857421875,-0.030002339553833007,-0.012875793387088923,-0.010637257212679833
1782812281720912100,5.705912109375,-0.0204214412599802,-0.04546946460837498,0.09316206689262763
1782812281740994300,5.725994384765625,-0.026860534396767614,-0.009371347196400166,0.10378003488294779
1782812281761077200,5.7460771484375,-0.03464052074849605,0.004670676958467811,0.04158222964517772
1782812281781159200,5.7661591796875,-0.023720482805371285,0.043632896830979734,-0.07073560595316812
1782812281801242400,5.786242431640625,-0.016540800434350966,-0.011270020424574614,-0.13397511139675042
1782812281821325300,5.8063251953125,-0.010407996767759322,0.017068167043011635,-0.07788461005813442
1782812281841407200,5.8264072265625,-0.029113281759619712,0.0069811641242355105,0.054717733414378016
1782812281861490200,5.846490234375,-0.027762451672554013,-0.013829386051185428,0.12765582698103972
1782812281881572400,5.866572265625,-0.03270049259662628,-0.0254562570894137,0.09022075274372472
1782812281901655300,5.8866552734375,-0.03045709758400917,-0.024475666820537298,-0.033622612410224975
1782812281921738200,5.90673828125,-0.019230770170688628,0.06777576976688578,-0.11186922418116592
1782812281941820400,5.9268203125,-0.02042377934753895,0.044746009172033516,-0.09832397970044984
1782812281961903400,5.9469033203125,-0.006654197192192077,-0.006856441766023636,-0.010622826828528196
1782812281981985300,5.9669853515625,-0.024459902995824814,-0.021381354067008942,0.08834117694166488
1782812282002068200,5.987068115234375,-0.02101882263123989,-0.044693420468270774,0.10542557360026984
1782812282022151200,6.007151123046875,-0.02849719568789005,0.0385789744422771,0.040341846795799205
1782812282042233300,6.0272333984375,-0.012793430599570273,0.00046060324907302855,-0.07836558937495573
1782812282062316300,6.04731640625,-0.01848082858622074,0.01673303507082164,-0.1287531024321448
1782812282082399500,6.0673994140625,-0.022822657182812688,0.03681463165087625,-0.06223537903549149
1782812282102481400,6.0874814453125,-0.023564415460824967,0.0043658305266872045,0.04112392795104533
1782812282122564400,6.107564453125,-0.017131167542934415,-0.011681103709805756,0.12040469594215973
1782812282142646300,6.127646240234375,-0.01698679063618183,-0.03257427240107208,0.07028144157803617
1782812282162729200,6.147729248046875,-0.022073884642124175,0.005496971714776009,-0.01744726602109149
1782812282182812200,6.167812255859375,-0.020724808120727536,0.04718898187736049,-0.10475938304280862
1782812282202894300,6.187894287109375,-0.02251987484395504,0.03409929001126438,-0.11094805421563796
1782812282222977300,6.207977294921875,-0.035090018081665036,-0.002167772493138909,-0.013981370875658466
1782812282243059200,6.22805908203125,-0.01743862605690956,-0.05103953809197992,0.0780828086445108
1782812282263142400,6.248142333984375,-0.021323358535766602,0.0011051664966158568,0.10672128509976901
1782812282283225300,6.268225341796875,-0.033743864169716836,0.012814181126654148,0.03431168151977472
1782812282303307300,6.288307373046875,-0.029404958182573316,0.005754837199673056,-0.07817189343376085
1782812282323390200,6.30839013671875,-0.030310382589697836,0.022651684530079364,-0.119057838777313
1782812282343472000,6.32847216796875,-0.016543138521909712,0.007897420452628284,-0.06416388114634901
1782812282363555000,6.34855517578125,-0.022375497937202452,0.019058665006794033,0.05670876110112294
1782812282383638300,6.36863818359375,-0.022376082459092138,-0.03227848605858162,0.10785680106887593
1782812282403720400,6.388720458984375,-0.029858547168970108,-0.03173539215782657,0.07957037118799053
1782812282423803400,6.408803466796875,-0.01654547660946846,0.018611140435002744,-0.024267540495190768
1782812282443885300,6.42888525390625,-0.026119945162534713,0.0412702410865575,-0.10717344931405969
1782812282463968300,6.44896826171875,-0.030011107382178305,0.05129601533738896,-0.09640157853681594
1782812282484051200,6.46905126953125,-0.019243629652261732,-0.022174568537622688,-0.00798282458060421
1782812282504133000,6.489133056640625,-0.026121114206314085,-0.015299933527782559,0.08582519379905425
1782812282524216000,6.509216064453125,-0.023273323559761045,0.005893916876800358,0.10951877946434542
1782812282544299300,6.52929931640625,-0.02057575503885746,0.003594517360627651,0.016405246154870837
1782812282564381400,6.54938134765625,-0.01130523786842823,0.015645294633042067,-0.07319570332323201
1782812282584464400,6.56946435546875,-0.018192659294605253,0.018802662685420364,-0.11540657712761312
1782812282604546300,6.58954638671875,-0.0264168822824955,0.0592866487651132,-0.04774664315958507
1782812282624629200,6.609629150390625,-0.0289613060683012,-0.0037943690479733047,0.047234839446237305
1782812282644712200,6.629712158203125,-0.02178045465350151,-0.04670244046943262,0.09490803377712145
1782812282664794000,6.649794189453125,-0.023725743502378462,-0.0156836721483618,0.06838530736682005
1782812282684877000,6.669876953125,-0.018637480452656743,0.004870857439376414,-0.03606980463294312
1782812282704959200,6.689959228515625,-0.022371406283974646,0.0529634188266471,-0.09891220051771961
1782812282725042400,6.71004248046875,-0.021326281145215033,0.008808032491523772,-0.09103125627585686
1782812282745125400,6.73012548828125,-0.011602174988389015,-0.009147950236685574,-0.009344029931211844
1782812282765206300,6.750206298828125,-0.031052725389599797,-0.01146881266599521,0.08615867267027497
1782812282785289200,6.770289306640625,-0.026564181798696518,-0.01381102841058746,0.09374132808530702
1782812282805371400,6.790371337890625,-0.027167408388853072,0.011051190042123198,0.01644840944316238
1782812282825454300,6.810454345703125,-0.014896540358662605,-0.00011109569165855646,-0.0826578249424696
1782812282845537500,6.83053759765625,-0.02851473134458065,0.0333304975958541,-0.10601927431025542
1782812282865619500,6.850619384765625,-0.01938099229633808,0.026366101943328973,-0.04504888284243643
1782812282885702400,6.870702392578125,-0.024767946031689643,-0.015520170416031032,0.053362647277303034
1782812282905784300,6.890784423828125,-0.038982349345088,-0.022620394342672077,0.11186637463695369
1782812282925867300,6.9108671875,-0.018784779968857763,-0.03220262607708573,0.06214449501479975
1782812282945950200,6.9309501953125,-0.027611645025014876,0.04157291382756084,-0.019249027346586806
1782812282966032400,6.951032470703125,-0.02042494839131832,0.03786810449287295,-0.10281446865326724
1782812282986115300,6.971115234375,-0.020126257705688474,0.014794559555221349,-0.09450188239533454
1782812283006197500,6.991197509765625,-0.01862988166809082,-0.008174666491430253,0.0069773829982616
1782812283026280400,7.011280517578125,-0.035083003818988795,-0.022123587269056586,0.08060465527232735
1782812283046363400,7.03136328125,-0.024457564908266068,-0.00039060675278306006,0.09195925784097053
1782812283066445300,7.0514453125,-0.022215338939428328,-0.0032758068002760408,0.016650918878475203
1782812283086528300,7.0715283203125,-0.026555413970351216,0.017390275136847048,-0.07715488927778788
1782812283106610200,7.091610107421875,-0.028650340422987936,0.028964995862729846,-0.09109011945677921
1782812283126693400,7.111693359375,-0.012483633998036384,0.03082266122708097,-0.04446062549254857
1782812283146776300,7.1317763671875,-0.01772270369529724,-0.0006374759196303784,0.052559651198191566
1782812283166858500,7.1518583984375,-0.0287999780267477,-0.046183713824953884,0.09792618515505455
1782812283186941400,7.17194140625,-0.029251228925585744,-0.010440675194654614,0.05455290737464092
1782812283207023400,7.1920234375,-0.012496493479609488,0.03497689482970163,-0.04648743687872774
1782812283227106300,7.212106201171875,-0.025811317604780195,0.035513668587524444,-0.10446534113283268
1782812283247189200,7.232189208984375,-0.022377251502871513,0.02444267786638811,-0.0728536392867565
1782812283267271200,7.252271240234375,-0.013102642679214477,-0.029707722255121916,0.002007741359528154
1782812283287354000,7.27235400390625,-0.020280571484565732,0.007574618239048868,0.08483940676525235
1782812283307436500,7.2924365234375,-0.01983458128273487,-0.01157629162846133,0.0901112279546447
1782812283327519500,7.31251953125,-0.025672785916924474,0.005633841168507933,0.015411531542940064
1782812283347602400,7.3326025390625,-0.014302666118741035,0.009739340258575976,-0.07072552295057102
1782812283367684400,7.352684326171875,-0.02626782920062542,0.03253101778123527,-0.10410232563987373
1782812283387767300,7.372767333984375,-0.024623569124937055,0.037292934953421356,-0.04811699257562868
1782812283407849200,7.39284912109375,-0.021329788276553154,-0.01839766208110377,0.039186055223643775
1782812283427932200,7.41293212890625,-0.019531214421987533,-0.02795839436976239,0.10202043219874612
1782812283448015400,7.433015380859375,-0.011001871007680892,-0.014003116916585713,0.05659034975268878
1782812283468097500,7.45309765625,-0.015188801303505896,0.027472894141450523,-0.033785429155966266
1782812283488180500,7.473180419921875,-0.01818155337870121,0.04066038382621482,-0.0931663229426369
1782812283508262400,7.493262451171875,-0.0165349552154541,-0.0025383776375092564,-0.07216235082065686
1782812283528345300,7.513345458984375,-0.014286299505829811,0.00891198605634272,0.01143340342589654
1782812283548428300,7.53342822265625,-0.029102175843715668,-0.0046517713285982604,0.07564528843243606
1782812283568510200,7.55351025390625,-0.021318682360649106,-0.004658913455437869,0.0885050074675586
1782812283588593200,7.57359326171875,-0.01698152993917465,-0.006031352586112916,0.00015909041869454084
1782812283608675300,7.59367529296875,-0.008899930292367934,-0.002519271078240126,-0.07692914509736001
1782812283628758500,7.613758544921875,-0.01593114410340786,0.059440195359010246,-0.08042554497891105
1782812283648841500,7.633841552734375,-0.018021394380927085,0.015987294737435875,-0.03735894939433783
1782812283668923400,7.65392333984375,-0.03687456341087818,-0.011895075254049151,0.03894644691464491
1782812283689006300,7.67400634765625,-0.02505786888897419,-0.028716774989012626,0.07763299165093339
1782812283709089300,7.69408935546875,-0.014877835658192633,0.011765146997757256,0.05231145772393792
1782812283729171200,7.714171142578125,-0.015476970595121382,0.03073416095972061,-0.033388894985895604
1782812283749254400,7.73425439453125,-0.021011223846673963,0.011067593187652528,-0.08785176772321573
1782812283769336800,7.7543369140625,-0.017420505878329277,0.02207837815415114,-0.06716039608120918
1782812283789419800,7.774419677734375,-0.017715689432621,0.0001841609278693795,0.007201245748857036
1782812283809502700,7.794502685546875,-0.021902619728446007,-0.009958152374718338,0.07845454630004242
1782812283829585000,7.8145849609375,-0.023098551514744756,-0.017694336117338387,0.06661540248431265
1782812283849667800,7.834667724609375,-0.012027122402191162,-0.03462053740639239,-0.015096474244398996
1782812283869749800,7.854749755859375,-0.015317980641126631,0.037128172845765944,-0.06245406328747049
1782812283889832700,7.874832763671875,-0.02055120511949062,0.03111254755174741,-0.09268911561863497
1782812283909916000,7.894916015625,-0.030127427238225934,0.006473031939007341,-0.037140520870685576
1782812283929997800,7.914997802734375,-0.02205050376653671,-0.020324209696892647,0.04147989264870994
1782812283950080800,7.935080810546875,0.002638531810045242,-0.030661844642180948,0.08117129444545135
1782812283970163000,7.955162841796875,-0.0334229616522789,0.017521025377046317,0.0428105749968905
1782812283990246000,7.975245849609375,-0.027884032225608823,0.017996132075507192,-0.03468861594023183
1782812284010328800,7.995328857421875,-0.020846973195672035,0.014482114338874816,-0.09727654387359506
1782812284030410800,8.01541064453125,-0.004390343913435936,0.014717311334237456,-0.06959962419318035
1782812284050494000,8.035493896484375,-0.022345687320828436,0.0008087590996176003,0.0038695988418068735
1782812284070575900,8.055575927734376,-0.021000117930769918,-0.0024777152251452207,0.099565969985025
1782812284090658800,8.075658935546874,-0.02863280476629734,-0.03301741305869072,0.0651879269644618
1782812284110741800,8.09574169921875,-0.017863573470711706,-0.006316745398752391,0.0008908570256549865
1782812284130824000,8.115823974609375,-0.025799627166986465,0.02598064628969878,-0.06567677906048484
1782812284150907000,8.135906982421876,-0.010087094250321388,0.04262896221913397,-0.08385555596021003
1782812284170988800,8.15598876953125,-0.018017302727699278,0.01006915673483163,-0.02503315457282588
1782812284191071700,8.17607177734375,-0.01667173333764076,-0.028879509536363184,0.03951040094033815
1782812284211155000,8.196155029296875,-0.01682370902895927,-0.006387162020150571,0.08000301785105839
1782812284231236900,8.21623681640625,-0.026844752305746077,-0.001043261975236237,0.038515316355228424
1782812284251319800,8.23631982421875,-0.027144612035155294,0.010018705189228058,-0.03298612287128344
1782812284271402000,8.256402099609375,-0.011731938847899435,0.004815839316509664,-0.09088797534764743
1782812284291485000,8.27648486328125,-0.015323825860023498,0.022576043744292108,-0.05845520290965214
1782812284311566800,8.29656689453125,-0.021755904734134673,0.015949940135423092,0.0244586152210366
1782812284331649800,8.31664990234375,-0.02085983267724514,-0.028446031756233423,0.06539702140418813
1782812284351732700,8.336732666015624,-0.014877835658192633,-0.025264442578051237,0.07506473946496844
1782812284371815000,8.35681494140625,-0.022207740154862404,0.0033264044763520358,-0.00953958903593011
1782812284391897900,8.37689794921875,-0.02385433831810951,0.035347901832871134,-0.06661631579976529
1782812284411980000,8.39697998046875,-0.023552140501141548,0.0328180910943076,-0.08541231128238141
1782812284432063000,8.41706298828125,-0.025946926683187484,-0.015129691527411341,-0.03541424506735057
1782812284452146000,8.43714599609375,-0.012780571117997169,-0.00981613182183355,0.04485302234361879
1782812284472227800,8.457227783203125,-0.02295592817366123,-0.012285261881724,0.0759516692341771
1782812284492310800,8.477310791015626,-0.019513094243407247,0.0017895685642026363,0.03132745067775249
1782812284512392700,8.497392822265626,-0.032684710505604744,0.01800110051156953,-0.04744189719250425
1782812284532476000,8.517475830078125,0.003229483440518379,0.0052672911447472865,-0.08781149051175452
1782812284552558800,8.537558837890625,-0.022953590086102486,0.038449521110020576,-0.05128842568597756
1782812284572640800,8.557640869140625,-0.014722937357425688,0.014104641062300652,0.01986809082669206
1782812284592724000,8.577723876953126,-0.024596096596121785,-0.01624351625451818,0.0740082070162054
1782812284612806000,8.597805908203124,-0.01711538545191288,-0.028378665608447044,0.06911049810252153
1782812284632888800,8.617888916015625,-0.016814356678724288,-0.002192578140832484,0.0051260560431517655
1782812284652971800,8.6379716796875,-0.012322305956482886,0.036768253492191434,-0.06990669911466539
1782812284673053700,8.6580537109375,-0.01770925969183445,0.021740597567148506,-0.09095846503428183
1782812284693137000,8.678136962890624,-0.013522913917899131,-0.013507698082458226,-0.028207747754640876
1782812284713218800,8.69821875,-0.012177344527840613,-0.02780819051042199,0.05116586788538843
1782812284733301800,8.7183017578125,-0.020106968483328817,-0.0029271394930779934,0.07593290060162544
1782812284753384700,8.738384765625,-0.015465864679217338,0.0038059316216036677,0.03414354014494456
1782812284773467100,8.758467041015624,-0.018310148194432257,-0.00441204428859055,-0.04293950773933902
1782812284793550000,8.778550048828125,-0.016815525722503662,0.02547070573987439,-0.08335768944066949
1782812284813632000,8.798632080078125,-0.023848493099212643,0.022105887215584517,-0.05582037002719007
1782812284833715200,8.818715087890626,-0.03177870157659054,0.004051522146817296,0.022335823513939975
1782812284853798100,8.838798095703124,-0.0361199456512928,-0.016883421593252568,0.07304051276152022
1782812284873880000,8.858880126953125,-0.010526070189476013,-0.017558964500948786,0.06257924230340868
1782812284893963000,8.878962890625,-0.01815875702500343,0.004235299482196569,0.0014026242063846439
1782812284914045200,8.899045166015625,-0.024895956325531005,0.02346385942948982,-0.068065062436508
1782812284934128000,8.919128173828126,-0.011126374170184136,0.01727998316278681,-0.07807689036037772
1782812284954211000,8.939211181640625,-0.04703881455063819,0.006693835082836449,-0.021441742484737188
1782812284974293000,8.95929296875,-0.024441782817244528,-0.00924567499011755,0.051370021288516
1782812284994376200,8.979376220703125,-0.0196545485407114,-0.0017640505304560065,0.07333844539532437
1782812285014458000,8.9994580078125,-0.018906360521912573,-0.004379822519421577,0.03458427878292277
1782812285034541000,9.019541015625,-0.02025017634630203,0.009072199853044003,-0.04029544123765081
1782812285054624000,9.0396240234375,-0.02339431959092617,0.01965339776324108,-0.08253827194971963
1782812285074706200,9.0597060546875,-0.02488485040962696,0.02209638873487711,-0.058640450682910156
1782812285094789000,9.0797890625,-0.013214870882034302,0.005875577502511441,0.013407982301339506
1782812285114871000,9.09987109375,-0.030126258194446563,-0.03624477760735899,0.07504945056429133
1782812285134954200,9.119954345703125,-0.01291910280585289,-0.00517279952801764,0.06909906339305452
1782812285155037200,9.140037109375,-0.01950081928372383,0.007387954826839268,-0.010077303508669137
1782812285175119000,9.160119140625,-0.020398644906282425,0.03150366576118394,-0.07014520231196657
1782812285195202000,9.1802021484375,-0.015161913296580313,0.02633258326621726,-0.0879691013594158
1782812285215284200,9.2002841796875,-0.01816051059067249,-0.0006302789938636124,-0.009253292040992527
1782812285235367200,9.2203671875,-0.026391747841238974,-0.021965236635878682,0.06277719429461286
1782812285255450000,9.2404501953125,-0.023546879804134366,-0.00036205651173368096,0.08190517081110738
1782812285275532000,9.260531982421876,-0.029386838003993034,-0.0037845600400120017,0.03160399346365593
1782812285295615200,9.280615234375,-0.012180851659178734,0.008231109386403113,-0.05017173314834945
1782812285315697200,9.300697265625,-0.020413842475414275,0.02693787394929677,-0.10242367010423913
1782812285335780000,9.320780029296875,-0.021308745488524437,0.023944573884829876,-0.055482059717224905
1782812285355862000,9.340862060546876,-0.038217210191488264,0.002732402372267097,0.02318621153188869
1782812285375945200,9.3609453125,-0.01427753167748451,-0.01937383190318942,0.07742912137559614
1782812285396027100,9.381027099609375,-0.03103343616724014,-0.013422905875835566,0.06109665732914581
1782812285416110000,9.401110107421875,-0.020254852521419522,0.01035363623201847,-0.01847874622698873
1782812285436193000,9.421193115234376,-0.007530980026721954,0.03566529721897095,-0.07496586393406614
1782812285456275000,9.44127490234375,-0.009175240102410316,0.016208554538991303,-0.08336581794819795
1782812285476358100,9.461358154296875,-0.021296470528841017,0.016404972160235048,-0.014509093677345663
1782812285496440000,9.481440185546875,-0.02368891862332821,-0.00430436439672485,0.05871364378328435
1782812285516523000,9.50152294921875,-0.02623275788724422,-0.015426044125482439,0.09702087947893887
1782812285536606000,9.52160595703125,-0.027435119414329526,-0.02150145504903048,0.029329490926722063
1782812285556688100,9.541688232421874,-0.00842997469305992,0.004305131581705064,-0.053091967976605516
1782812285576771000,9.56177099609375,-0.028479075509309767,0.028360874223429706,-0.08539843802065589
1782812285596853000,9.58185302734375,-0.02637888835966587,0.016152202975563704,-0.04698572352337651
1782812285616936200,9.601936279296876,-0.017256255227327346,-0.013556633524410425,0.019708224089862777
1782812285637019100,9.62201904296875,-0.012621581164002417,-0.02300473575145006,0.06583804316995664
1782812285657101000,9.64210107421875,-0.03641746729314327,-0.007450443870108574,0.05940600082846358
1782812285677184000,9.66218408203125,-0.011727262672781943,0.006106847241427749,-0.022517052699206397
1782812285697267000,9.682266845703126,-0.012922609937191009,0.023097912193927914,-0.07560172328534535
1782812285717349000,9.70234912109375,-0.025638299125432966,0.01915213371021673,-0.09182436114861629
1782812285737432000,9.72243212890625,-0.02189677450954914,0.0016898527830839156,-0.01892016985155642
1782812285757514000,9.742513916015625,-0.015911270359158514,-0.0036465215425007043,0.04958324746959843
1782812285777597700,9.76259765625,-0.022646131572127342,-0.018805731425341216,0.07217454358194954
1782812285797680600,9.7826806640625,-0.02878302689194679,-0.0035939145724289117,0.011373919190466403
1782812285817762600,9.802762451171875,-0.01845686318874359,0.017447247754782437,-0.03821348386444151
1782812285837845800,9.822845703125,-0.010527239233255386,0.018656166886817663,-0.07465342785087414
1782812285857927700,9.842927734375,-0.030125089150667188,0.02334936620434746,-0.04311969574498944
1782812285878010600,9.8630107421875,-0.017105448579788206,0.0024067688807845114,0.017801029628515243
1782812285898093800,9.88309375,-0.012464344775676726,-0.016547887762263416,0.07026039879000745
1782812285918175700,9.90317578125,-0.019946224963665007,-0.006443951974995434,0.04787565810042433
1782812285938258700,9.9232587890625,-0.00827449187040329,0.01731779442252591,-0.014083178149163721
1782812285958340600,9.943340576171876,-0.019643442624807356,0.020310966622829437,-0.0690384740459267
1782812285978423800,9.963423828125,-0.020689152285456657,0.012848083396255969,-0.07722679460337385
1782812285998506800,9.9835068359375,-0.020091770914196967,0.01460743948528543,-0.00897189041688107
1782812286018588700,10.003588623046875,-0.025481062737107277,-0.004442384627927095,0.04617366735497489
1782812286038671600,10.023671630859376,-0.04807926351428032,-0.030435013616364446,0.045358113188389684
1782812286058753800,10.04375390625,0.004431844967603683,-0.015181951437611132,0.03631509376405738
1782812286078836700,10.063836669921875,0.02358428920507431,0.021761055833287534,-0.02708068908662535
1782812286098919700,10.083919677734375,-0.014416063365340232,0.042699744166713204,-0.08825659479759633
1782812286119001600,10.104001708984375,-0.06858487592637538,-0.012459632067941128,-0.06597607253431342
