time,seconds_elapsed,z,y,x
1782812301366665200,0.064665283203125,-0.014774375283718109,0.045442631400376556,-0.004182993906224146
1782812301386748400,0.08474853515625,-0.016869301736354828,-0.007358235542010516,-0.04689718672339804
1782812301406830300,0.104830322265625,-0.021361352458596227,0.025363372907880693,-0.007591350178141146
1782812301426913300,0.124913330078125,-0.024658640438318252,-0.025342183989379555,0.014562824025424196
1782812301446996200,0.144996337890625,-0.023756723162531853,-0.03072504607150331,0.038128508994728326
1782812301467078100,0.165078125,-0.031232173609733578,0.0634411380960606,0.029576277895178645
1782812301487161000,0.1851611328125,-0.013875965139269829,-0.03873396407458931,-0.01657364325802773
1782812301507243300,0.2052431640625,-0.024498481440544128,0.017339275601971894,-0.03978763784598559
1782812301527326500,0.225326416015625,-0.01747252832651138,-0.02039389566592872,-0.0316999463851098
1782812301547408400,0.245408447265625,-0.019409633868932723,0.012312734410539268,0.009273339315177872
1782812301567491300,0.2654912109375,-0.014473931032419203,0.0388598372102715,0.042053454752964896
1782812301587573200,0.2855732421875,-0.02570142748951912,-0.06440726144816726,0.014309844778198747
1782812301607656200,0.30565625,-0.018068156132102012,0.03114394733700901,0.00759967961506918
1782812301627738000,0.325738037109375,-0.03124035691618919,-0.007322926766611635,-0.03388292558053508
1782812301647821300,0.3458212890625,-0.017020108383893964,0.04000696141878143,-0.036892656189994884
1782812301667903200,0.3659033203125,-0.024209143105149267,-0.007807057021744549,-0.005339324334496632
1782812301687986200,0.385986083984375,-0.02016658971607685,-0.0593129887827672,0.011597334416490048
1782812301708068000,0.406068115234375,-0.036326281878352164,0.05601818502107635,0.059156848372984676
1782812301728151300,0.4261513671875,-0.015527239477634429,-0.02447468043984845,0.016376230122940615
1782812301748233200,0.446233154296875,-0.03033668607473373,0.008307773085497318,-0.005638827870879322
1782812301768316200,0.466316162109375,-0.020168927803635595,-0.025712369008641687,-0.029301671338034792
1782812301788398600,0.486398681640625,-0.026446108376979825,0.004152589634805918,-0.035081341584865
1782812301808481500,0.5064814453125,-0.03138298025727272,0.06368576050689444,0.019584880837984382
1782812301828563500,0.5265634765625,-0.0083393738001585,-0.05253019677484408,0.022957389478385447
1782812301848646400,0.546646484375,-0.0288391409933567,-0.0003828435714356601,0.03645437437058426
1782812301868728300,0.566728271484375,-0.025251930156350133,-0.013621460655238478,-0.0046831711138598615
1782812301888811500,0.5868115234375,-0.013421791630983351,0.02696993132168427,-0.01704166262857616
1782812301908893700,0.606893798828125,-0.0285386967420578,0.029513916716072706,-0.030456476529501376
1782812301928976600,0.6269765625,-0.016867548170685767,-0.0628936602811329,-0.03228628577254712
1782812301949058600,0.64705859375,-0.01791442687511444,0.022855280810780823,0.026607080225506795
1782812301969141500,0.6671416015625,-0.012228782454133034,-0.011117460211366415,0.03386626670667901
1782812301989223400,0.687223388671875,-0.028682489126920698,0.029816059734113512,0.02772477741013281
1782812302009306400,0.707306396484375,-0.03423018638193607,-0.017409747022297233,-0.03585747705651447
1782812302029388500,0.727388427734375,-0.013732172754406928,-0.02587082923967391,-0.040274992104666306
1782812302049471500,0.747471435546875,-0.015079495710134505,0.05408774668145924,-0.008969260068377479
1782812302069553400,0.767553466796875,-0.0207657246530056,-0.013065105414111166,-0.012418286277400329
1782812302089636600,0.78763671875,-0.03482873679697513,-0.005516187871899455,0.04219716493943706
1782812302109718500,0.807718505859375,-0.009099836778640747,-0.04298475338686257,0.015397292955033481
1782812302129801500,0.827801513671875,-0.01223930384814739,-0.005247125139553099,0.0021473964253906157
1782812302149883400,0.84788330078125,-0.014933949759602546,0.04163361277254298,-0.02595732021303847
1782812302169966300,0.86796630859375,-0.021818448576331136,-0.034000286616198715,-0.028368975331494583
1782812302190048500,0.888048583984375,-0.026463644033670426,0.015635357760917394,-0.002771254811622202
1782812302210131500,0.90813134765625,-0.026316344517469406,-0.03576810000631958,0.012060568014066665
1782812302230213400,0.92821337890625,-0.011795651733875274,0.03509069393509999,0.045936945122806355
1782812302250296600,0.948296630859375,-0.02377250525355339,-0.0009408062477596103,0.03599010872654616
1782812302270379500,0.968379638671875,-0.02407353402674198,-0.03969952117111534,-0.028751672772457822
1782812302290461400,0.98846142578125,-0.024528292056918144,0.04111532451948151,-0.014923857623850926
1782812302310544400,1.00854443359375,-0.019739304214715956,0.007624412197526544,-0.03462847411767579
1782812302330626600,1.02862646484375,-0.028262802410125732,0.030512353168893603,0.008479869116237387
1782812302350709500,1.04870947265625,-0.019590251132845876,-0.02871085670487955,0.03382427246216684
1782812302370791400,1.06879150390625,-0.014949731850624084,-0.026675898544862863,0.020857960380567236
1782812302390874400,1.088874267578125,-0.027972879552841185,0.03313702085036784,0.018423371911095453
1782812302410956300,1.108956298828125,-0.00836333919763565,-0.013776541619095951,-0.027513262684457
1782812302431039500,1.12903955078125,-0.019583821392059324,0.03799123768219724,-0.03553422731836326
1782812302451121700,1.14912158203125,-0.018540449818968772,-0.03607740341750905,-0.0152377732780762
1782812302471204600,1.16920458984375,-0.016285948890447616,0.005985193623136729,0.022202397259464487
1782812302491286500,1.18928662109375,-0.01524140827357769,0.02180692253531888,0.03229711769381538
1782812302511369500,1.209369384765625,-0.02660685189664364,-0.025021847727522254,0.003490161937009543
1782812302531451400,1.229451416015625,-0.024959669211506844,0.012322379021719097,-0.015996738419216124
1782812302551534300,1.249534423828125,-0.02660977450609207,-0.02163868982894346,-0.04230612347293645
1782812302571616500,1.269616455078125,-0.03004793226122856,0.028403836582321672,-0.015877678616810588
1782812302591699700,1.28969970703125,-0.019729367342591283,0.0024279943319037555,0.015667670861631632
1782812302611781600,1.30978173828125,-0.038733343020081516,-0.04428394461823627,0.022060075312480328
1782812302631864600,1.329864501953125,-0.018683657681941985,0.010035948584973812,0.03004044307451695
1782812302651946500,1.349946533203125,-0.006107669225335121,-0.0012787694978527724,-0.012672050975915044
1782812302672029400,1.370029541015625,-0.026008301481604573,0.03278566839573905,-0.020513932715868575
1782812302692111600,1.390111572265625,-0.020326748713850974,-0.00834788590017706,-0.03195165612385608
1782812302712194600,1.410194580078125,-0.01613455772101879,-0.019890421389508993,-0.006400779553549364
1782812302732276500,1.4302763671875,-0.016435586494207382,0.02223627212960273,0.021502267899783326
1782812302752359400,1.450359375,-0.035435470518469805,-0.022823826226592063,0.025208757734904063
1782812302772441300,1.47044140625,-0.018676058897376058,0.005615739256236702,0.013781482655694708
1782812302792524500,1.490524658203125,-0.0263122528642416,-0.015341251918859778,-0.02011515178978443
1782812302812606500,1.5106064453125,-0.021221651726961135,0.011341587823443114,-0.03237863109796308
1782812302832689400,1.530689453125,-0.02870119382739067,0.02374821106251329,-0.025090081524988636
1782812302852771600,1.550771484375,-0.02181786405444145,-0.03442636654116213,0.005140020636422559
1782812302872854500,1.5708544921875,-0.022267361387610433,0.0025402773336507378,0.03149702595784329
1782812302892936400,1.5909365234375,-0.033192075505852695,-0.021560418694652615,0.012997894529951736
1782812302913019400,1.611019287109375,-0.015232055923342704,0.03114760059881955,-0.004244880161294713
1782812302933101300,1.631101318359375,-0.009700140759348868,0.0024266243587248025,-0.023965507075004278
1782812302953184500,1.6511845703125,-0.019573884519934654,-0.02397451236536726,-0.04274952899203636
1782812302973266700,1.6712666015625,-0.023615268865227697,0.01725115892710164,0.0002485496672801673
1782812302993349600,1.691349609375,-0.014481529816985129,-0.016445961757749317,0.016068963405210523
1782812303013431600,1.711431640625,-0.024658055916428563,0.01660549970101565,0.027165892285201696
1782812303033514500,1.731514404296875,-0.007754851910471916,-0.022748788229003548,0.00010061083026230334
1782812303053596400,1.751596435546875,-0.022570143726468084,-0.00717909784913063,-0.019154024273203684
1782812303073679400,1.771679443359375,-0.023620529562234878,0.03676964173167944,-0.028148281785519792
1782812303093761500,1.791761474609375,-0.020478724405169485,0.0006122501468285918,-0.03152064429544844
1782812303113844500,1.811844482421875,-0.011802665996551514,-0.002591678727325052,0.01603802027767524
1782812303133926400,1.831926513671875,-0.01853869625329971,-0.040094018647726624,0.015549597439914941
1782812303154009600,1.852009521484375,-0.018238836523890495,0.005150240636337548,0.03119110181382857
1782812303174091500,1.872091552734375,-0.026470073774456978,0.018003018474020062,0.008219802541099488
1782812303194174500,1.892174560546875,-0.021678747844696044,-0.011413538814801722,-0.018597869961475954
1782812303214256600,1.912256591796875,-0.023477321699261665,0.018044135935697703,-0.027116545851295814
1782812303234339600,1.932339599609375,-0.02736322322189808,-0.00841410127049312,-0.005035345552396029
1782812303254421500,1.95242138671875,-0.022122399958968163,0.012268950067739932,0.01271756148491986
1782812303274504400,1.97250439453125,-0.014492635732889175,-0.0042646534408442675,0.026623510770499705
1782812303294586400,1.99258642578125,-0.012848960179090499,-0.017388959962595252,0.020856206814898175
1782812303314669600,2.012669677734375,-0.024224925196170807,0.02056495965020731,0.001027525549987331
1782812303334751500,2.03275146484375,-0.014944471153616905,-0.0039095929254777725,-0.019660128898127002
1782812303354834400,2.05283447265625,-0.022277298259735106,0.016755338234174997,-0.022444982976838945
1782812303374916600,2.07291650390625,-0.016450784063339233,-0.01719944700617343,-0.0013630593809764832
1782812303394999600,2.09299951171875,-0.03560322830080986,-0.014991105040628462,0.023709239892149344
1782812303415081500,2.11308154296875,-0.020634791749715803,0.011494659493304788,0.021058679717592895
1782812303435164400,2.133164306640625,-0.013152911561727524,-0.012803495335858315,-0.006485169901372864
1782812303455247400,2.153247314453125,-0.014348258826136589,0.0023889957620762286,-0.020487492233514783
1782812303475329300,2.173329345703125,-0.015693828216195107,-0.020200985176023093,-0.023593888150481506
1782812303495412500,2.19341259765625,-0.03349953401982784,0.012556151244975626,0.001409875931078568
1782812303515494700,2.21349462890625,-0.025272388422489165,-0.003487111463397741,0.020651341025717557
1782812303535577600,2.23357763671875,-0.011655366480350494,-0.027736933638807384,0.016061446819035336
1782812303555659500,2.253659423828125,-0.02333060670495033,0.0078158431163989,0.016438856163527815
1782812303575742500,2.273742431640625,-0.026321020692586898,0.0033924554498866197,-0.014363575126277282
1782812303595824400,2.293824462890625,-0.03500175527632236,0.03352183718318119,-0.017764743605582042
1782812303615907300,2.3139072265625,-0.017346856120228765,-0.008734017407242209,-0.024568103477498514
1782812303635989500,2.333989501953125,-0.018694179075956344,-0.018279259865824134,-0.0074212725745514034
1782812303656072400,2.354072509765625,-0.018394319346547127,0.015064188543148338,0.025394042040780187
1782812303676154400,2.374154296875,-0.0296148015409708,-0.010616963343322277,0.02338259262051433
1782812303696237600,2.394237548828125,-0.015400398227572441,0.012026537880301474,0.0038739736228249966
1782812303716319500,2.414319580078125,-0.02213642848432064,-0.027595826401375232,-0.020693782794801517
1782812303736402400,2.43440234375,-0.016896774265170098,0.01872844667173922,-0.029224715377995744
1782812303756484600,2.454484619140625,-0.02557224815189838,0.03091664138715714,-0.007082103748060763
1782812303776567600,2.474567626953125,-0.018088614398241044,-0.018187690858542917,0.017236427148850635
1782812303796650200,2.494650146484375,-0.021981530183553696,-0.017999474810063837,0.027832320304680615
1782812303816733400,2.5147333984375,-0.015998364120721816,-0.02770131433615461,0.010474979323055595
1782812303836815400,2.5348154296875,-0.014047814574837683,0.03214271258339286,-0.012025715896394102
1782812303856898300,2.554898193359375,-0.016443769800662995,0.004681782874371856,-0.033004261316172775
1782812303876980200,2.574980224609375,-0.02796878789961338,-0.028694672755058853,-0.01388134456728585
1782812303897063200,2.595063232421875,-0.017795184409618376,-0.006135105221532285,0.021445030420366672
1782812303917145300,2.615145263671875,-0.02123743381798267,-0.005842058825399727,0.017320717031974346
1782812303937228300,2.635228271484375,-0.01794482201337814,0.011630012843385338,0.03295931706274859
1782812303957310200,2.655310302734375,-0.025431378376483914,-0.0031763650137931108,-0.00015239581642672418
1782812303977393200,2.67539306640625,-0.01779810701906681,-0.012220763544458895,-0.018830089548463002
1782812303997475000,2.69547509765625,-0.019894202515482903,0.023740283484384415,-0.004462952491920441
1782812304017558300,2.715558349609375,-0.019000468546152113,0.008005100344493985,-0.0031141682314686477
1782812304037640400,2.735640380859375,-0.011522095489501952,-0.010728259964380413,0.011249525625817478
1782812304057723400,2.755723388671875,-0.008838555493950843,-0.0499400341511704,0.014348624152317642
1782812304077805300,2.775805419921875,-0.03412614148557186,0.006100618430040777,0.009217069950141012
1782812304097888300,2.79588818359375,-0.014822890600562095,0.02900741023235023,-0.002051279107155278
1782812304117970200,2.81597021484375,-0.03248538854122162,-0.003128854343947023,-0.029179360132617873
1782812304138053000,2.83605322265625,-0.029497897163033485,0.00959280792735517,-0.01292080157259479
1782812304158135300,2.85613525390625,-0.0242687643378973,-0.0074832684274762865,0.009579966712091117
1782812304178218200,2.87621826171875,-0.015585691666603087,0.0248939104989171,0.027563412835961205
1782812304198300400,2.896300537109375,-0.02576104872226715,0.002278868184797466,0.02718133644950576
1782812304218383400,2.91638330078125,-0.019027356553077697,-0.016895294694136826,0.0034786541623063384
1782812304238465300,2.93646533203125,-0.023515315622091294,0.006860917011741548,-0.009718836326664313
1782812304258548200,2.95654833984375,-0.011542553755640983,0.0064951341729611155,-0.024656959937885404
1782812304278630100,2.976630126953125,-0.0194715931892395,0.026226273347530513,-0.0002552077369298786
1782812304298713000,2.996713134765625,-0.015584522622823714,-0.029757333550509062,0.00014300693357363343
1782812304318795300,3.016795166015625,-0.019479191973805425,-0.002203976317681372,0.024914359631901604
1782812304338878200,3.036878173828125,-0.028460370808839796,0.02060898145502433,0.018967105132667347
1782812304358960000,3.056960205078125,-0.02486789927482605,0.011148841730318963,-0.01142942137052305
1782812304379043300,3.077043212890625,-0.025169512569904327,0.013204312955401837,-0.024849815628863868
1782812304399125200,3.097125244140625,-0.02233165879547596,-0.028196660105045884,-0.014325243276730178
1782812304419208200,3.117208251953125,-0.02307575516104698,0.01494127454953268,0.016724413372948766
1782812304439290400,3.137290283203125,-0.022024784803390502,0.024526666355412452,0.017599871900072322
1782812304459373300,3.157373291015625,-0.017234043395519257,-0.023459384183771907,0.019572149220574646
1782812304479455200,3.177455322265625,-0.02337152323722839,0.006550554154627025,-0.004076373460283503
1782812304499538200,3.1975380859375,-0.017981646892428396,-0.008674578837584703,-0.00715979036046192
1782812304519620000,3.2176201171875,-0.017530395993590353,0.045121089562121776,-0.015825354774529114
1782812304539703000,3.237703125,-0.02950198881626129,-0.000040167613606899974,0.001172203850839287
1782812304559785200,3.25778515625,-0.011692191359400748,-0.021359982485417275,0.015156269007083027
1782812304579867100,3.2778671875,-0.021420389169454573,0.0024755415343679487,0.01808586531872861
1782812304599950300,3.297950439453125,-0.02261398286819458,-0.0010881057639606296,0.00999773546643555
1782812304620032300,3.3180322265625,-0.013185060265660286,0.021897559960838406,-0.000885641994420439
1782812304640115200,3.338115234375,-0.010046177718043326,-0.018082440385781228,-0.032034402503864835
1782812304660197400,3.358197265625,-0.019172902503609656,0.007338288732524961,-0.017327694762032476
1782812304680280300,3.3782802734375,-0.025157237610220907,0.003168455701973289,0.02050065310918726
1782812304700362200,3.3983623046875,-0.014228431838750838,0.005219561279192567,0.018315536755602806
1782812304720445200,3.418445068359375,-0.03876841433346271,0.014754903398267924,0.022577605513716115
1782812304740527000,3.438527099609375,-0.024849779096245764,-0.03261387375909835,-0.014194346906058489
1782812304760610300,3.4586103515625,-0.024103344643115997,0.034473420553281904,-0.012232581846415996
1782812304780692200,3.478692138671875,-0.013632804033160209,0.00831836754474789,-0.01327447384847328
1782812304800775200,3.498775146484375,-0.025154315000772476,-0.01053010704377666,-0.0009536839956417679
1782812304820857000,3.518857177734375,-0.024555764585733414,-0.0050221024783328174,0.01366768355029635
1782812304840940000,3.53893994140625,-0.020217443120479583,-0.02238574533658102,0.006595388810196891
1782812304861022000,3.55902197265625,-0.03382978888750076,0.03418026455929503,0.024431745480420066
1782812304881105000,3.57910498046875,-0.018718144473433493,0.005660309050325304,-0.025416683130851013
1782812304901186800,3.599186767578125,-0.02859481084346771,-0.002678644624724984,-0.026131288540456443
1782812304921270000,3.61927001953125,-0.01917173345983028,0.002573540282435715,-0.000018969561951234936
1782812304941352000,3.63935205078125,-0.0139338328063488,0.003621843758970499,0.007112699815724045
1782812304961435100,3.65943505859375,-0.02021978120803833,0.008586937086749822,0.01746281065009534
1782812304981517000,3.67951708984375,-0.022471359527111053,-0.034785646573919804,0.007205784926656633
1782812305001600000,3.69960009765625,-0.015136194333434104,-0.00436005837302655,0.007346864764625206
1782812305021682000,3.719681884765625,-0.015582769057154654,0.006501892707310617,-0.01845473516373895
1782812305041764900,3.739764892578125,-0.023665537747740745,0.009434713022504001,-0.02120431699967012
1782812305061847000,3.759846923828125,-0.024267595294117927,-0.00014428557520732282,0.006846230899263173
1782812305081930000,3.779929931640625,-0.02127718130648136,-0.031675807457696645,0.021736633778084068
1782812305102012000,3.800011962890625,-0.014839841735363006,0.020751732660271225,0.03330656873099506
1782812305122095000,3.82009521484375,-0.026359014615416527,-0.0016400222919881343,0.007070495508657768
1782812305142177000,3.840177001953125,-0.026803251251578328,0.009572386193834244,-0.019779581426177174
1782812305162260000,3.860260009765625,-0.028451018458604812,0.00437335624601692,-0.0160281290713232
1782812305182342100,3.880342041015625,-0.013935586372017859,-0.010881258569005877,-0.01867197637730278
1782812305202425000,3.900425048828125,-0.020518471893668174,0.02307104245331138,0.026929106120951472
1782812305222507000,3.920507080078125,-0.006904372560977936,-0.005312098400853574,0.01633535012328066
1782812305242590000,3.94058984375,-0.011843582528829574,-0.01038779422994703,0.009236404838273302
1782812305262672000,3.960671875,-0.0076589903205633155,0.008311042754817753,-0.012799120554840192
1782812305282754800,3.9807548828125,-0.02770516852736473,0.020863595536909998,-0.020779680113121864
1782812305302837000,4.0008369140625,-0.024408465069532394,0.025260296125896274,-0.0032165965594816953
1782812305322920200,4.020920166015625,-0.028895255094766616,-0.031349461580161005,0.006164477446489036
1782812305343002000,4.041002197265625,-0.019019173246622084,-0.0018943623792380094,0.024913711177930235
1782812305363085000,4.0610849609375,-0.013036591705679893,-0.002024071439821273,0.0151479761027731
1782812305383167000,4.0811669921875,-0.025003508353233336,0.005475618399493396,-0.00671922525241971
1782812305403250000,4.10125,-0.022609891214966774,0.009401413541100918,-0.011227551256027072
1782812305423332000,4.12133203125,-0.02036883428990841,-0.015036423753388225,-0.021041326723992823
1782812305443415000,4.1414150390625,-0.02321077971756458,0.019079598196968434,0.003816297751991078
1782812305463497000,4.1614970703125,-0.013934417328238486,-0.009920742973778396,0.017315712063293902
1782812305483580000,4.181579833984375,-0.014079963278770445,-0.0025866006934084,0.020034332505380732
1782812305503662000,4.201662109375,-0.025756957069039344,-0.007691266888659447,0.01222240751227364
1782812305523745000,4.2217451171875,-0.011991466566920279,0.012717789813783019,-0.010396881718700752
1782812305543827000,4.241826904296875,-0.022764789515733717,0.032500841838680204,-0.016753867796296253
1782812305563910000,4.261909912109375,-0.022321721923351287,-0.00632909342367202,-0.013106396405724807
1782812305583992000,4.281991943359375,-0.03144786218702793,-0.0021466566398739813,0.005893277555983513
1782812305604075000,4.302074951171875,-0.0025689737051725384,0.0026661870019510387,0.012916627720976247
1782812305624157000,4.322156982421875,-0.02650514508783817,0.0003540010694414377,0.01962490232111886
1782812305644240000,4.342239990234375,-0.024113281515240666,0.0155057765644975,0.0016382230605464427
1782812305664321800,4.36232177734375,-0.0254582663834095,-0.015492624821979552,-0.022533839437225832
1782812305684405000,4.382405029296875,-0.015428455278277397,0.0039782925138249995,-0.014511751425312832
1782812305704487200,4.402487060546875,-0.02290682833492756,0.007650861813034862,0.005683571194903925
1782812305724570000,4.422570068359375,-0.02380290039181709,0.00014203881919384003,0.005559762152144685
1782812305744652000,4.442652099609375,-0.013332359781861305,-0.004249528936948627,0.019310164682986214
1782812305764734000,4.46273388671875,-0.019469255101680755,-0.01993455279218033,0.012716556837921961
1782812305784816600,4.482816650390625,-0.02215513318479061,0.03068137132655829,0.00016366612911224363
1782812305804898800,4.50289892578125,-0.028138883769512176,0.0005785853392444551,-0.012477724847057834
1782812305824981800,4.522981689453125,-0.007194295418262481,0.0029972638535313307,-0.014657288242690265
1782812305845063700,4.543063720703125,-0.008095043650269508,0.0033766550925560294,-0.004153767811739817
1782812305865146600,4.563146728515625,-0.01856324617266655,-0.011297310290299355,0.020949501988384873
1782812305885228500,4.583228515625,-0.03546995730996132,0.02601792782647535,0.02555168942105956
1782812305905311700,4.603311767578125,-0.023202011889219283,-0.011513820851501077,0.0029248744707554577
1782812305925394000,4.623393798828125,-0.017817980763316154,-0.0036863786288537084,-0.009898978666542097
1782812305945476900,4.643476806640625,-0.009590835165977477,0.006729326521325856,-0.00927790589244105
1782812305965558800,4.663558837890625,-0.03367430606484413,0.009509148231893777,0.006108902201196178
1782812305985641700,4.683641845703125,-0.02215337961912155,0.010448054783511906,0.01474096620446071
1782812306005723600,4.7037236328125,-0.020958616876602172,-0.018207363673392683,0.021016667206771672
1782812306025806600,4.723806640625,-0.018411270481348038,0.0014185250284150241,0.012706939626205711
1782812306045888800,4.743888671875,-0.015117489632964134,0.017184578230604527,-0.004955969306407496
1782812306065972000,4.763971923828125,-0.014063596665859221,0.007700089515931904,-0.014387202597036956
1782812306086054000,4.784053955078125,-0.005983750584721565,-0.005264624263625592,-0.014982510742219164
1782812306106136800,4.80413671875,-0.019002222111821173,-0.000885641994420439,-0.005667231981456279
1782812306126218800,4.82421875,-0.030075989311933515,0.016051098954956978,0.015543770487327128
1782812306146301700,4.8443017578125,-0.017660159853100776,-0.00734354942953214,0.016223898238595574
1782812306166383600,4.864383544921875,-0.014067688319087028,0.006967537457682192,0.004062463665939867
1782812306186466800,4.884466796875,-0.018410101437568663,-0.002073682735208422,-0.018943294998817143
1782812306206548700,4.904548828125,-0.019453473010659215,0.0021407566220499573,-0.007802718773344531
1782812306226631700,4.924631591796875,-0.01721241608560085,0.011535941351763904,0.0021100326902233064
1782812306246713600,4.944713623046875,-0.021700375154614447,-0.012581468349322675,0.007116974132042378
1782812306266796800,4.964796875,-0.014818214425444603,0.0014126615432091057,0.017045882145967334
1782812306286878700,4.984878662109375,-0.017511106771230696,0.0029933365970849987,0.008364078983152284
1782812306306961700,5.004961669921875,-0.022600538864731786,0.001703424650710076,-0.013774084800528361
1782812306327043800,5.0250439453125,-0.02230243270099163,0.01193409209018573,-0.008193124596728012
1782812306347126800,5.045126708984375,-0.017363807255029676,-0.002436396834068,-0.013139476691419258
1782812306367208700,5.065208740234375,-0.016017653343081473,0.007040602693893015,0.011875073645636438
1782812306387291600,5.085291748046875,-0.02889116344153881,0.008533562931697816,0.013972730911476538
1782812306407373600,5.10537353515625,-0.0013543372184038162,0.004972929574362933,0.006376850688690319
1782812306427456800,5.125456787109375,-0.02754208692014217,-0.0038641098159365355,0.011507372844405471
1782812306447539000,5.1455390625,-0.017066285613179206,-0.00537208495978266,-0.01166364111835137
1782812306467622000,5.165621826171875,-0.024396190109848975,0.017650314312521367,-0.015705189860425888
1782812306487703800,5.185703857421875,-0.026640754166245458,0.0008911766860634088,-0.0022957097217440603
1782812306507786800,5.205786865234375,-0.027992753297090528,-0.003696333767287433,0.010642791904322803
1782812306527868700,5.22586865234375,-0.02320727258622646,-0.014088530177716165,0.00857572157299146
1782812306547951600,5.24595166015625,-0.013779519027471541,0.0003821859843097627,0.0073243972044903785
1782812306568033800,5.26603369140625,-0.018565584260225296,0.03220355765884742,-0.0035209041351452466
1782812306588116700,5.28611669921875,-0.01782148789465427,-0.015220602947566657,-0.01589332371051423
1782812306608198700,5.30619873046875,-0.022165070056915284,0.008269706097431481,-0.0060781052041333165
1782812306628281900,5.32628173828125,-0.02141220586299896,-0.004757240997068583,0.018835121916607023
1782812306648363800,5.34636376953125,-0.02679448342323303,0.006568400338571518,0.012075948246289044
1782812306668446000,5.366446044921875,-0.023054127851128578,0.0055230925367213786,0.007765482902340591
1782812306688529000,5.38652880859375,-0.02769815426468849,-0.009584715952444822,-0.01517872743406333
1782812306708610800,5.40661083984375,-0.01796761836707592,0.011702164764143526,-0.003274464226560667
1782812306728693800,5.42669384765625,-0.01497252820432186,0.019396463860105722,-0.015060599213419481
1782812306748775700,5.446775634765625,-0.03172492556273937,0.0015076098176650702,-0.01044308634744957
1782812306768858600,5.466858642578125,-0.02559796711504459,-0.016503683294355868,0.012670151279773563
1782812306788940300,5.486940185546875,-0.008088029387593268,0.001373279380891472,0.0168583054183051
1782812306809023200,5.507023193359375,-0.03637129006385803,0.01263509823270142,0.009473044872051105
1782812306829105200,5.527105224609375,-0.014374562311172484,0.008664367970824241,-0.00614891455117613
1782812306849188000,5.54718798828125,-0.026041034707427024,-0.007339713504631072,-0.018043606212735173
1782812306869270000,5.56727001953125,-0.01765957533121109,0.004021291405335068,-0.016684264025650916
1782812306889353200,5.587353271484375,-0.017808628413081166,0.007438168910425156,-0.013681438081013037
1782812306909435400,5.607435302734375,-0.03456687099039554,0.0027662133103236552,0.023853607665747404
1782812306929518300,5.627518310546875,-0.010775076514482498,-0.009398600529506801,0.011031809488218277
1782812306949600300,5.647600341796875,-0.017961188626289367,-0.0002995126695372164,-0.006758936208300292
1782812306969683200,5.66768310546875,-0.009285714739561081,-0.00873726881025359,-0.010744736175145953
1782812306989765000,5.68776513671875,-0.011379472148418427,0.0171611060234718,-0.01866225870088674
1782812307009848000,5.70784814453125,-0.02499064887166023,0.010728935817815363,0.011822119615692645
1782812307029930200,5.72793017578125,-0.021851181802153587,-0.02165153104420751,0.006305191958276554
1782812307050013200,5.74801318359375,-0.02050678145587444,0.0010154789191670714,0.008406374621763826
1782812307070095000,5.76809521484375,-0.024396190109848975,0.010354038090817629,0.006205768438102677
1782812307090178300,5.78817822265625,0.0007458499312400817,0.002483578710351139,-0.010725766613194718
1782812307110260200,5.80826025390625,-0.008978840747475623,-0.006989566626399755,-0.0030128358819987624
1782812307130343200,5.82834326171875,-0.020796704313158988,-0.0014108897112309932,-0.0054257787752430885
1782812307150425000,5.848425048828125,-0.020947510960698128,0.008935732258111237,0.007813961686566472
1782812307170508000,5.868508056640625,-0.005235562565922737,0.006861227538995445,0.014639396392973139
1782812307190590200,5.888590087890625,-0.02543547002971172,0.005120247356873006,0.0034302575764711945
1782812307210673200,5.908673095703125,-0.02917641012370586,-0.014501275697071105,-0.00036369134639389813
1782812307230755000,5.928755126953125,-0.032765959048271176,0.0062735090452246366,-0.012870158230746165
1782812307250838000,5.948838134765625,-0.014210311660170553,0.01381137547045946,-0.008371549903554841
1782812307270920200,5.968920166015625,-0.02229191130697727,-0.011118610988836734,-0.0012746230456978083
1782812307291003100,5.989003173828125,-0.020203414595127103,0.008795410471968352,0.02042857425366528
1782812307311085300,6.009085205078125,-0.012573650369048117,0.00015034998981282115,0.0012341449048370121
1782812307331168300,6.029168212890625,-0.023797639694809913,0.0033021102853119373,0.01063944003661163
1782812307351250200,6.049250244140625,-0.007346271109580993,0.0035854755376465617,-0.014662028349889441
1782812307371333000,6.0693330078125,-0.02470540218949318,0.011887969659827649,-0.015074983931798487
1782812307391415000,6.0894150390625,-0.009739888247847557,0.007977408619970082,-0.009802130695944652
1782812307411498000,6.109498046875,-0.030538346126675605,0.003821987707260996,0.01162755602481775
1782812307431580200,6.129580078125,-0.03218494428992271,0.0029569866420701145,0.0006339139893651009
1782812307451663400,6.149663330078125,-0.011383563801646231,-0.014762885775323956,0.0032288715191651136
1782812307471745300,6.169745361328125,-0.014225509229302406,-0.0004375694333575666,-0.008429655032651499
1782812307491828200,6.189828125,-0.02245440839231014,0.005062745015975088,-0.006845207985956221
1782812307511910100,6.20991015625,-0.00644493835568428,0.004396335262805223,-0.007334690269641578
1782812307531993000,6.2299931640625,-0.020813070926070213,-0.000464238244574517,0.00991985705778934
1782812307552075300,6.2500751953125,-0.021262568259239195,-0.0018003091539256274,0.008186019002506508
1782812307572158200,6.270158203125,-0.015572247663140295,0.010929646021686494,0.015679461764125154
1782812307592240000,6.290240234375,-0.017813304588198662,0.012765811940282583,0.0006729125591926277
1782812307612323000,6.310322998046875,-0.016616788280010224,0.003381641794927418,-0.0074719250495545566
1782812307632405000,6.330405029296875,-0.013770751199126243,0.0019548421285115183,-0.01801887363027781
1782812307652488200,6.35048828125,-0.018258125746250152,0.008951094224024564,0.008511268901498987
1782812307672570000,6.370570068359375,-0.02963058363199234,0.011071922302898019,-0.00455283186561428
1782812307692653000,6.390653076171875,-0.025443653336167334,0.0006484539713710546,0.013833176310313864
1782812307712735200,6.4107353515625,-0.021855273455381394,-0.00799129101485014,0.0029498993141576645
1782812307732818200,6.430818115234375,-0.025293431210517883,-0.001679075660742819,-0.000299631400546059
1782812307752900000,6.450900146484375,-0.02050678145587444,0.005729958486743271,-0.020390753860771656
1782812307772983000,6.470983154296875,-0.024842764833569526,0.014443426296301186,-0.008175588940037413
1782812307793065000,6.49106494140625,-0.024843933877348897,-0.009888320275209844,-0.012997620535315946
1782812307813148000,6.51114794921875,-0.028882980135083197,0.006966204017121344,0.011316800442058593
1782812307833230000,6.53122998046875,-0.019300328275561333,0.008554222127236425,0.006824694920890033
1782812307853313300,6.551313232421875,-0.01855272477865219,0.01489422053741291,-0.011049637405853718
1782812307873395200,6.571395263671875,-0.023342297142744065,-0.011728066390380263,-0.006020785526325925
1782812307893478100,6.59147802734375,-0.01242109015583992,-0.015269154797028749,-0.005241910108318552
1782812307913560000,6.61156005859375,-0.015111059892177581,0.015308701356127857,-0.00883012559232302
1782812307933643000,6.63164306640625,-0.03052373307943344,0.003335957755986601,-0.00032247342001646756
1782812307953725200,6.65172509765625,-0.018104981011152266,-0.003960665525589138,0.003395926048606634
1782812307973808000,6.67180810546875,-0.024242460852861403,-0.0016614486725069582,0.011736569357244297
1782812307993890000,6.69189013671875,-0.0173585465580225,-0.004421743698697537,0.003680259415321052
1782812308013973200,6.71197314453125,-0.017204817301034927,0.01489394654277712,-0.008265760574676095
1782812308034055200,6.73205517578125,-0.01975099465250969,0.014517185652256012,-0.010398589618597178
1782812308054138000,6.75213818359375,-0.02663841607868671,-0.00864661311842501,-0.011126976958382873
1782812308074220300,6.77222021484375,-0.019005144721269608,-0.008991901158448308,0.010842479194886982
1782812308094303200,6.79230322265625,-0.024688451054692268,0.009000449791084974,0.02462942347698845
1782812308114385200,6.81238525390625,-0.017056348741054533,-0.003304119579307735,0.004668019210500643
1782812308134468000,6.832468017578125,-0.01795358984172344,0.005791351551469415,0.0004911627841182053
1782812308154550000,6.852550048828125,-0.031871640557050704,-0.0001676116518676281,-0.006144850297411904
1782812308174633000,6.872633056640625,-0.035309798312187196,0.01617474360093474,0.005402032573474571
1782812308194715100,6.892715087890625,-0.015108137282729148,0.0011528415632434189,0.0017844265982042997
1782812308214798300,6.91279833984375,-0.01435819569826126,-0.01236567017417401,0.013899382547475397
1782812308234880300,6.93288037109375,-0.01825637218058109,-0.00932047552568838,0.013920352270267902
1782812308254963200,6.952963134765625,-0.024835750570893288,0.0023533764594234523,0.0011675733414944261
1782812308275045000,6.973045166015625,-0.02168985376060009,0.0004475428381003439,0.0005630224439315498
1782812308295128000,6.993128173828125,-0.03366378467082977,-0.0007846110390499234,-0.014617221093783155
1782812308315210000,7.0132099609375,-0.014064181187748909,-0.0017245222376659512,0.00014203881919384003
1782812308335293000,7.03329296875,-0.017500585377216337,0.012030483403056859,0.008232497625891119
1782812308355375000,7.053375,-0.0032891046732664107,0.013811759062949567,0.005391145853279158
1782812308375458000,7.0734580078125,-0.011968085691332817,-0.011490586106386034,0.015456704125227406
1782812308395540000,7.0935400390625,-0.018403087174892425,-0.009985405707824975,-0.002456599371880293
1782812308415623200,7.113623046875,-0.019452303966879844,0.006976889807917178,0.005447451750934124
1782812308435705000,7.133705078125,-0.024834581527113913,0.008621880535967647,0.0007933149353135377
1782812308455788000,7.1537880859375,-0.023936171382665634,-0.00407713151210919,0.006821854509832337
1782812308475870200,7.1738701171875,-0.018402502653002736,-0.0047122510778717696,0.010966461767582222
1782812308495953200,7.193953125,-0.014960837766528129,-0.011291592935565859,0.0043469888288993385
1782812308516035000,7.21403515625,-0.015255436798930168,0.003971716642566025,0.005378542100032791
1782812308536118000,7.234117919921875,-0.0056780456364154816,0.010266323274746537,0.007546652519889175
1782812308556200000,7.254199951171875,-0.01196224047243595,-0.015161712367180735,-0.008269532567495479
1782812308576283100,7.274283203125,-0.01719780303835869,0.006974021997395902,0.0018751279558055101
1782812308596365300,7.294365234375,-0.017347440642118454,-0.0009766264798119664,0.01552305649286136
1782812308616448300,7.3144482421875,-0.01944412066042423,0.008983790917228908,0.00976522361850366
1782812308636530200,7.3345302734375,-0.013010872742533684,-0.012060842008702456,-0.0071655077151954166
1782812308656613000,7.354613037109375,-0.02423427754640579,-0.0030563918959349394,0.0038621735871769486
1782812308676695000,7.374695068359375,-0.026477088037133216,0.0013869243137538433,0.0012346746277995407
1782812308696778000,7.394778076171875,-0.01600070220828056,0.010924531455151737,-0.0007542067676316946
1782812308716860200,7.414860107421875,-0.01750000085532665,0.004590962785761803,-0.009879369783774017
1782812308736943000,7.434943115234375,-0.024532968232035636,-0.014459263186249882,0.0026851656970568
1782812308757025000,7.45502490234375,-0.02648351777791977,0.004972801710199565,0.0020994473641272634
1782812308777108200,7.475108154296875,-0.026184827092289923,-0.00023083134749904272,0.007730767781985923
1782812308797190400,7.4951904296875,-0.006880991685390472,-0.002042995335999876,-0.01564323054011911
1782812308817273300,7.5152734375,-0.021994974187016486,0.004443590204324573,-0.008536923932563513
1782812308837355300,7.535355224609375,-0.019148937106132507,0.009291852219402789,-0.0034843532507307824
1782812308857438500,7.5554384765625,-0.016309914287924766,0.00958078869599849,0.0035037612040992824
1782812308877520600,7.575520751953125,-0.02334288166463375,-0.0040241409495472905,0.011990699381940067
1782812308897603600,7.595603515625,-0.008824526968598366,-0.014464670013729482,-0.001930301342299208
1782812308917685500,7.615685546875,-0.021536124503612517,-0.0010578384898602962,-0.005027271843794733
1782812308937768400,7.6357685546875,-0.021384148812294005,0.010718871081527323,0.0077221460841130464
1782812308957850400,7.655850341796875,-0.021233926686644554,0.007764880114141851,0.0012701569331344217
1782812308977933300,7.675933349609375,-0.015250760623812674,-0.012114362294226884,0.005139764908095821
1782812308998015500,7.696015380859375,-0.021832477101683616,-0.011606303174234925,0.006734486753633246
1782812309018098700,7.7160986328125,-0.019138415712118148,0.004670001105032861,0.007936674750782548
1782812309038180600,7.7361806640625,-0.020185878938436506,0.011854085656534879,-0.0002524129916448146
1782812309058263600,7.756263671875,-0.03680032913088798,-0.006904591756686567,-0.019545480409357694
1782812309078345500,7.776345458984375,-0.030219197174906728,0.003677720398362726,-0.0015812961083836853
1782812309098428400,7.796428466796875,-0.014959668722748756,0.01156913123531267,-0.006685615243762731
1782812309118510600,7.816510498046875,-0.002836100208759308,0.008929558245651423,0.008461091350531205
1782812309138593500,7.836593505859375,-0.016004209339618682,-0.004237674102373421,0.01937515621059574
1782812309158675500,7.856675537109375,-0.020795535269379616,-0.0002700308467261493,0.00042489261487498877
1782812309178758400,7.87675830078125,-0.004933364748954772,0.0010403028331696987,-0.004599849345115944
1782812309198840300,7.89684033203125,-0.02932370963990688,0.004778192453552038,-0.012442132943868636
1782812309218923500,7.916923583984375,-0.012714520144462584,-0.0039060127289034423,-0.004604890846414491
1782812309239005400,7.93700537109375,-0.01525485227704048,-0.012551347205694764,0.0018364490463864058
1782812309259088600,7.957088623046875,-0.017949498188495634,-0.009401851932518183,0.0017852211826480924
1782812309279170600,7.977170654296875,-0.02722586057782173,0.012555804185103624,0.010338730923831462
1782812309299253500,7.99725341796875,-0.009567454290390014,0.00709700905624777,-0.0004572422482073307
1782812309319335400,8.01733544921875,-0.01795242079794407,-0.007829195788316428,-0.015612095616338773
1782812309339418400,8.03741845703125,-0.01630874524414539,-0.00490074112098664,-0.01069999285112135
1782812309359500300,8.057500244140625,-0.018998130458593367,0.0018453721383586525,0.010386506455158814
1782812309379583500,8.07758349609375,-0.02184241397380829,-0.004384005504194647,-0.00629338278947398
1782812309399665700,8.097665771484374,-0.02363923426270485,-0.00042677404470741745,0.0036855109791737047
1782812309419748600,8.11774853515625,-0.03232055336833,0.00005447013359516859,-0.0006851327199488878
1782812309439830500,8.13783056640625,-0.013764905980229378,0.016491773660853505,-0.0030420254438649863
1782812309459913500,8.15791357421875,-0.022445640563964843,-0.0003828983703628182,-0.005100044819060713
1782812309479995400,8.177995361328126,-0.021247370690107344,-0.013562570074852556,-0.004238222091645002
1782812309500078300,8.198078369140624,-0.01795242079794407,0.0028175051061436534,0.010504570743720978
1782812309520160500,8.218160400390625,-0.035306291180849075,0.0008857698585838079,0.0037334052415098993
1782812309540243500,8.238243408203125,-0.020494506496191025,-0.0018921704221516846,-0.00383565090643242
1782812309560325400,8.258325439453126,-0.014211480703949928,-0.0031995997589081525,-0.0024274828752502797
1782812309580408600,8.27840869140625,-0.023340543577075004,-0.002388977495767176,-0.012260346636176108
1782812309600490500,8.298490478515625,-0.026783377507328985,0.015604323301836847,-0.0032608649594709277
1782812309620573400,8.318573486328125,-0.02603285140097141,0.005952679593022913,-0.009544913665018976
1782812309640655600,8.338655517578125,-0.021690438282489774,0.003443418452143669,0.012200131748383865
1782812309660738600,8.358738525390624,-0.016903788527846336,-0.012496219484973698,0.003640667190449312
1782812309680820500,8.378820556640624,-0.025428455767035483,0.009522482637502253,0.002663757582847029
1782812309700903400,8.3989033203125,-0.018844985723495484,-0.001401902687177062,-0.008187909565493465
1782812309720985300,8.4189853515625,-0.01944061352908611,0.00042158641293644903,0.008036509262910113
1782812309741068500,8.439068603515626,-0.02751636795699596,-0.002113959946669638,0.000697508144332096
1782812309761150700,8.459150634765624,-0.0022194296151399613,-0.0066939629469998175,0.0034037805614992975
1782812309781233700,8.479233642578125,-0.02301788749396801,0.002113156229071319,0.017868916366109624
1782812309801315300,8.4993154296875,-0.01508884806036949,0.013779993951506912,0.020613922491623086
1782812309821398300,8.519398193359375,-0.014491466689109802,0.003793236536812037,-0.008512611475214362
1782812309841480200,8.539480224609376,-0.022424597775936125,0.0013404000245966017,-0.0038265542845241723
1782812309861563100,8.559563232421874,-0.005065466696023941,-0.0013569858332164585,-0.0050878063919954
1782812309881645300,8.579645263671875,-0.018528174859285353,0.0068764433744363486,0.0045631340639200055
1782812309901728300,8.599728271484375,-0.012694061878323554,-0.01432814761986956,0.013615314042242243
1782812309921810200,8.61981005859375,-0.024219664499163625,-0.008503569652233272,0.00022449293825775384
1782812309941893400,8.639893310546874,-0.012694061878323554,0.003058072396367788,0.013384957618778571
1782812309961975300,8.659975341796875,-0.024064766198396682,0.008515680215135216,-0.015133911044802516
1782812309982058200,8.680058349609375,-0.019874913293123245,0.003104578419215977,0.0013761197919491678
1782812310002140200,8.70014013671875,-0.016280688193440435,0.008427216480392963,-0.0060287222376093266
1782812310022223400,8.720223388671876,-0.016879238608479497,0.0005020129716955125,0.00561394002479501
1782812310042305300,8.74030517578125,-0.028546295526623723,0.0016708375553600489,0.0038973270989488807
1782812310062388200,8.76038818359375,-0.007445055308938026,-0.0040928040052764115,0.00362917768205516
1782812310082470100,8.78047021484375,-0.033631051445007325,-0.007420395791716873,-0.00039972164100036023
1782812310102553000,8.800552978515626,-0.018664368459582328,-0.0007990962221287191,-0.020354065979039295
1782812310122635000,8.820635009765626,-0.025398645150661467,0.011920775950886309,-0.009663580741779879
1782812310142718200,8.84071826171875,-0.02689560571014881,0.002070394799578935,0.0062926978028845035
1782812310162800400,8.86080029296875,-0.008341711887717247,0.007946301095653325,0.004167778070783243
1782812310182883300,8.88088330078125,-0.01163724630177021,-0.016493728155922142,0.004559362071100622
1782812310202965200,8.90096533203125,-0.02585340318083763,0.0005539623546414077,0.010169383972603828
1782812310223048200,8.921048095703124,-0.02705459566414356,0.005174936686176806,-0.006268969867425039
1782812310243130000,8.941130126953125,-0.018226561564207076,-0.0025674941341392696,-0.0016605079575907438
1782812310263213000,8.961213134765625,-0.01867372080981731,-0.008915511453989894,0.0058294276726897805
1782812310283295200,8.981295166015625,-0.015381109005212782,-0.0064249184809625146,0.02011776387197897
1782812310303378400,9.00137841796875,-0.014478607207536697,-0.0013232844930142163,0.00018091865801252423
1782812310323460400,9.02146044921875,-0.022561375898122786,0.011613335703220217,0.0009689089642371982
1782812310343543300,9.041543212890625,-0.011184241837263107,0.005039126678369939,-0.01865958268661052
1782812310363625200,9.061625244140625,-0.023304303219914436,0.0075891947536729275,-0.004250844111200421
1782812310383708200,9.081708251953126,-0.025102292552590368,-0.0020342092413455247,-0.001666672836896032
1782812310403790300,9.101790283203124,-0.01941547908782959,0.0009383037634193897,0.011332482068380341
1782812310423873300,9.121873291015625,-0.022258593559265134,-0.003824234463274479,0.003803657466126606
1782812310443955200,9.141955078125,-0.009090484428405762,-0.011007570096105337,0.003946554801845923
1782812310464038100,9.1620380859375,-0.020309797579050062,0.007149689091555774,-0.004679198191640898
1782812310484120000,9.1821201171875,-0.016868717214465142,0.0009123473382554948,-0.008791145288804545
1782812310504203300,9.202203369140625,-0.017165654334425927,0.00009111234955489634,0.002100780804688111
1782812310524285400,9.222285400390625,-0.006240355694293975,-0.011464373952895401,0.003118753075040877
1782812310544368400,9.242368408203125,-0.025095862811803815,-0.00018755846135318278,0.0028676369913388042
1782812310564451300,9.262451416015624,-0.017315876460075378,0.0014710771995596586,0.00043433629665523766
1782812310584533200,9.282533203125,-0.018220131823420523,-0.0068901431062258775,0.010883231330383568
1782812310604615200,9.302615234375,-0.026151509344577786,-0.0007260675185360014,-0.001865008420590311
1782812310624698000,9.322697998046875,-0.028691841477155682,0.003997289475239813,-0.010540893299272283
1782812310644780000,9.342780029296875,-0.01970949359834194,0.00640281624700874,-0.00577899439339526
1782812310664863200,9.36286328125,-0.024496727874875068,0.0067952313643880186,0.0016691113891545682
1782812310684945400,9.3829453125,-0.014321370819211005,-0.018062858902476726,0.00845376656060107
1782812310705028400,9.4030283203125,-0.023899931025505066,-0.007855280077643693,0.0013260609719902277
1782812310725110300,9.4231103515625,-0.01312426998913288,0.007907686118315905,0.006849537101201713
1782812310745193200,9.443193115234376,-0.014172317737340926,0.010040095037128776,-0.003681264062318951
1782812310765275100,9.463275146484374,-0.017165069812536238,0.0020020605374127627,-0.017419428166095166
1782812310785358000,9.483358154296875,-0.014475684598088264,-0.012662095837481319,-0.0012934099445585162
1782812310805440800,9.503440673828125,-0.006843582284450531,0.01008373324945569,0.01749842081959359
1782812310825523700,9.523523681640626,-0.026896774753928182,0.0019044819144532084,0.0077911835991777475
1782812310845605600,9.543605712890624,-0.02150456032156944,-0.0020163995900191367,0.011054003053717315
1782812310865688600,9.5636884765625,-0.009987141007184982,-0.0024546814094297585,-0.0018192787158768623
1782812310885770500,9.5837705078125,-0.030189386558532712,0.0031911972567439076,-0.002635033811861649
1782812310905853400,9.603853515625,-0.00878770208954811,0.012090287298895419,-0.006641410775855183
1782812310925935600,9.623935546875,-0.004748071309924125,-0.01154118378246203,-0.0035170408107805997
1782812310946018800,9.644018798828125,-0.02824059057831764,-0.015593856706749646,0.0004863313453737646
1782812310966100700,9.664100830078125,-0.011481178957223892,0.005387136398442089,-0.000013928060652688144
1782812310986183700,9.68418359375,-0.01686696364879608,-0.0026378924892283976,0.0053582664969842875
1782812311006266600,9.7042666015625,-0.014029109874367713,0.00589744227444753,-0.0077366769329644735
1782812311026348500,9.7243486328125,-0.01747252832651138,-0.004350450294464826,-0.021856323768151924
1782812311046431500,9.744431396484375,-0.012235212194919586,0.0005845584223046898,0.00016899989135563373
1782812311066513700,9.764513671875,-0.02270809089243412,0.008650869168434291,0.010793214959371834
1782812311086596600,9.7845966796875,-0.027045243313908576,-0.005348704084195196,0.010077687101159244
1782812311106678800,9.8046787109375,-0.02779401585459709,0.002875427572149783,-0.001979245917405933
1782812311126761700,9.82476171875,-0.019116203880310056,-0.001876132602803409,-0.003312586013553664
1782812311146843600,9.84484375,-0.03258241917490959,0.002461129416525364,-0.008971168897673487
1782812311166926600,9.864926513671875,-0.016271920365095137,0.0032044951297342775,-0.00015890775560401378
1782812311187008500,9.885008544921876,-0.027344518521428107,-0.0044383843062445515,0.016119122689869255
1782812311207091500,9.905091552734374,-0.024804770910739897,-0.009079177583102137,0.007694454359589144
1782812311227173600,9.925173583984375,-0.012086743634939194,0.0035513358060270546,-0.005836642864765599
1782812311247256600,9.945256591796875,-0.022109540477395058,0.004957732005231082,0.002544944375613704
1782812311267338500,9.96533837890625,-0.013283259943127632,-0.003350607335846871,-0.01467162729529664
1782812311287421700,9.985421630859374,-0.017769465446472166,0.004841010290384292,-0.006016319413762539
1782812311307503600,10.005503662109374,-0.016570026528835297,0.009113719173520803,-0.008895162785705178
1782812311327586600,10.025586669921875,-0.023302549654245375,-0.003487403724342584,0.013966803494188934
1782812311347668700,10.045668701171875,-0.01626958227753639,-0.003498966297972947,0.004841439548647031
1782812311367751700,10.065751708984376,-0.01611760658621788,-0.020033738850336522,0.002295883251680061
1782812311387833600,10.08583349609375,-0.024197452667355537,0.0023967224108055233,0.0002040894710458815
1782812311407916500,10.10591650390625,-0.03721300158500671,0.016055519401747733,-0.0057077740543987595
1782812311427998500,10.12599853515625,-0.025688568007946014,-0.008225994819868356,0.004919482354074716
1782812311448081700,10.14608154296875,-0.019400281518697736,-0.006380038159620016,-0.006508660374814644
1782812311468163800,10.166163818359376,-0.020149054059386252,-0.003318878757022321,-0.0006912884660996496
1782812311488246800,10.186246826171875,0.3905962313890457,-0.036645704824756827,0.17762089510876683
1782812311508328700,10.20632861328125,0.0705190588593483,0.02305442011207342,0.03954905245029367
1782812311528411600,10.22641162109375,-0.031529110729694367,0.01097808827329427,-0.05992365889386274
1782812311548493600,10.24649365234375,-0.03167290311455726,-0.037450116542819885,-0.04245787996854633
