time,seconds_elapsed,z,y,x
1782812346482103300,0.060103271484375,-0.02788987744450569,0.0028528138815425335,-0.02069194703074172
1782812346502186200,0.080186279296875,-0.010084171640872955,-0.0076119180421344934,-0.020484944083401933
1782812346522268400,0.100268310546875,-0.02235562419295311,-0.0038649683324620127,0.0062801397154107685
1782812346542351400,0.120351318359375,-0.02804009957015514,0.012348919968772678,0.027185154108097777
1782812346562433300,0.140433349609375,-0.016517419558763503,0.01803825418418273,0.024289460066054015
1782812346582516200,0.16051611328125,-0.014272855502367019,-0.027329083490278572,0.0011667787570506334
1782812346602598100,0.18059814453125,-0.017562544697523115,-0.004044635748304427,-0.018905529404850675
1782812346622681300,0.200681396484375,-0.010977905610203743,0.01809836860727519,-0.014321169889811426
1782812346642763300,0.22076318359375,-0.021300562182068824,0.006515062716137617,-0.005736360828066244
1782812346662846200,0.24084619140625,-0.015616671326756476,0.005718998701311648,0.007401910286955535
1782812346682928400,0.260928466796875,-0.01800678133368492,-0.03406971685690805,0.018447867031535132
1782812346703011300,0.28101123046875,-0.031174890464544296,0.028909886408317834,0.013707367106713353
1782812346723093200,0.30109326171875,-0.017104279536008835,0.019951540459599345,-0.011340729306917636
1782812346743176200,0.32117626953125,-0.03011982845366001,0.007421784031204879,-0.02670583702540025
1782812346763258000,0.341258056640625,-0.013811667731404303,-0.011656042333785444,-0.026093678210116922
1782812346783341300,0.36134130859375,-0.01620294678211212,-0.012478720360901205,-0.004785115384683012
1782812346803423500,0.381423583984375,-0.01664952150583267,0.0348973450537771,0.016274340651044623
1782812346823506400,0.40150634765625,-0.02547697108387947,-0.005117617008369416,0.0221677095385734
1782812346843589000,0.421589111328125,-0.01709317362010479,-0.014410400809533893,-0.012858513458725063
1782812346863671000,0.441671142578125,-0.02308276942372322,0.0013909246354363858,-0.01603919845460914
1782812346883754200,0.461754150390625,-0.028467385071516034,0.01790733954720199,-0.020764409478753805
1782812346903836200,0.481836181640625,-0.016344401079416274,0.027417474159784613,0.007335904979193583
1782812346923919000,0.501919189453125,-0.021283026525378227,-0.029870091476291417,0.003441308693448081
1782812346944001300,0.522001220703125,-0.01978840405344963,0.00208440505862236,0.01028244329248555
1782812346964084200,0.542084228515625,-0.03549742983877659,0.00944455856308341,0.006891878405585885
1782812346984166100,0.562166259765625,-0.01664426080882549,0.013779902619961648,-0.002397261266922578
1782812347004249000,0.5822490234375,-0.012909165933728216,0.0018452625405043362,-0.023905182589357716
1782812347024331000,0.6023310546875,-0.03041618105173111,-0.01521771687073633,-0.011840194128500297
1782812347044414000,0.6224140625,-0.020088848304748535,0.014341810819040983,0.00800924679664895
1782812347064496000,0.64249609375,-0.018891747474670408,0.01733710191119462,0.007273927392577752
1782812347084579300,0.662579345703125,-0.013356325179338454,-0.009142287680879234,0.01487268455903977
1782812347104661200,0.6826611328125,-0.02428396190702915,-0.01887136227376759,-0.004494562339736149
1782812347124744200,0.702744140625,-0.023083938467502594,0.008740739408973604,-0.019197470689285547
1782812347144826000,0.722826171875,-0.032812136277556414,0.0411095340995118,-0.009349455025000498
1782812347164909000,0.742908935546875,-0.018296704190969466,-0.0033210707141086457,-0.000032112171314656736
1782812347184991200,0.7629912109375,-0.026824294039607045,-0.019843239513225853,0.017794362425711006
1782812347205074200,0.78307421875,-0.01635024629831314,0.00024007409987971185,0.002394612652109936
1782812347225156000,0.803156005859375,-0.018744447958469388,0.018027130001969635,0.010078527351375668
1782812347245239300,0.8232392578125,-0.024880758756399154,0.005615775788854807,-0.007462755362410098
1782812347265322200,0.843322265625,-0.016799743631482122,-0.019359291921183467,-0.027340819593844934
1782812347285404200,0.863404052734375,-0.037300679868459696,0.003411452411301434,-0.016166706424951553
1782812347305487000,0.883487060546875,-0.02517594231069088,0.022433310805354267,0.01484243555124849
1782812347325569300,0.9035693359375,-0.02247662022411823,0.007295271574705838,0.025822615316929295
1782812347345652200,0.92365234375,-0.012451485294103622,-0.02188868253463879,0.005841793963918462
1782812347365734100,0.943734130859375,-0.018137129715085028,-0.013585969216749072,-0.007257049323013052
1782812347385817000,0.963817138671875,-0.025765140375494957,0.02969018659843132,-0.016639739897334947
1782812347405899000,0.98389892578125,-0.024421909072995185,-0.003880202434211969,-0.016186927229072896
1782812347425982200,1.003982177734375,-0.02232932070791721,-0.006802738817408681,-0.0004426474672742188
1782812347446064000,1.024064208984375,-0.02023497877717018,-0.021583361178822813,0.015534819995891302
1782812347466147000,1.04414697265625,-0.024572131198644636,0.005703947262652218,0.026081604179833084
1782812347486229200,1.064229248046875,-0.021733108380436895,0.009716142046079039,0.0199807756872382
1782812347506312200,1.084312255859375,-0.009616554129123687,-0.003452478541433811,-0.0224438230662141
1782812347526394000,1.10439404296875,-0.02129413244128227,0.0032164595621638,-0.014923656694451346
1782812347546477000,1.12447705078125,-0.019498481196165082,0.005614259685203433,-0.012092068264028057
1782812347566559000,1.14455908203125,-0.02055003607571125,0.013491696795728057,-0.004468496316717937
1782812347586642000,1.164641845703125,-0.016061492484807968,0.0049581521303392944,0.0207404258149676
1782812347606724000,1.18472412109375,-0.023845570489764212,-0.022363971896190195,0.0030094292153604327
1782812347626807300,1.204807373046875,-0.025792612904310223,0.00120422469060868,0.00299466090449132
1782812347646889200,1.22488916015625,-0.007239888125658035,0.015049429365433752,-0.017854056723695246
1782812347666972200,1.24497216796875,-0.020404490125179288,0.01723143131332472,-0.004379813386267051
1782812347687054000,1.26505419921875,-0.016068506747484206,-0.003912643399089574,-0.008855671025533229
1782812347707137000,1.285136962890625,-0.015773907715082167,-0.01726789086619392,0.024928333358326924
1782812347727219200,1.30521923828125,-0.023999299746751784,0.013415343623887747,0.023744338604994118
1782812347747302100,1.32530224609375,-0.017412322571873664,0.008057396787311882,0.001694309762492776
1782812347767385300,1.34538525390625,-0.01037760162949562,0.0006330554728396237,-0.01574187774215825
1782812347787467300,1.36546728515625,-0.010528992798924445,-0.003647453124262392,-0.026799077399959785
1782812347807549200,1.385549072265625,-0.019207389295101164,0.01743349322406575,-0.010362604989763349
1782812347827632000,1.405632080078125,-0.03566343405544758,0.010915087773371487,0.015544154079817235
1782812347847715300,1.42571533203125,-0.007832008799910545,-0.011206124875508249,0.013798981779767199
1782812347867797200,1.44579736328125,-0.02324877364039421,-0.010194427082315086,-0.0020018596080131827
1782812347887880400,1.46588037109375,-0.023244681987166404,0.003589128799457103,0.003983388814050704
1782812347907962400,1.48596240234375,-0.02802840913236141,0.028567703640833494,-0.015036953476350754
1782812347928045300,1.50604541015625,-0.028627544069290158,0.006743683840241283,-0.025945821571489794
1782812347948127200,1.526127197265625,-0.02369184123277664,-0.009470222727302462,-0.015517759263236074
1782812347968210200,1.546210205078125,-0.015762801799178123,-0.0016206417380832134,0.025295732765458524
1782812347988292000,1.5662919921875,-0.013964227944612502,0.0007243687517940997,0.018238854790199547
1782812348008375000,1.586375,-0.0196457807123661,0.009723229373991489,0.00470270693139173
1782812348028457200,1.606457275390625,-0.025929975548386573,0.005218355702795088,-0.018087564085470513
1782812348048540400,1.62654052734375,-0.013359832310676573,-0.008976210398972034,-0.016411429300485177
1782812348068622300,1.646622314453125,-0.03490647820830345,0.02660442247753963,-0.003581630479590967
1782812348088705300,1.666705322265625,-0.03445756539702415,0.007464636792242527,-0.000481061515212059
1782812348108787200,1.686787109375,-0.013210194706916808,-0.010767642126698047,0.023474143361486493
1782812348128870100,1.7068701171875,-0.016952303844690323,-0.005949300325848162,-0.00205743485330604
1782812348148952300,1.726952392578125,-0.016801497197151183,0.009275503872800617,-0.0023527097391430286
1782812348169035300,1.74703515625,-0.04119651826322079,0.024061752257402987,-0.022540132180694488
1782812348189117200,1.7671171875,-0.022492986837029456,-0.0119031672289595,-0.009536903888499364
1782812348209200400,1.787200439453125,-0.03580956452786922,-0.005951200021989643,0.004226285058679059
1782812348229282300,1.8072822265625,-0.02742985871732235,0.0012249934840016065,0.0067599043226800855
1782812348249365200,1.827365234375,-0.021591654083132742,0.0006714877870865165,0.004598442839318886
1782812348269447400,1.847447509765625,-0.019796002838015556,0.0051307870171964165,-0.012914454030198976
1782812348289530400,1.8675302734375,-0.016051555612683295,-0.02358653596108779,-0.024219198708282784
1782812348309612300,1.8876123046875,-0.01888999390900135,0.020689736807346343,-0.011321896742284298
1782812348329695200,1.9076953125,-0.01051087262034416,0.006470091063249856,0.001818986454932019
1782812348349777200,1.927777099609375,-0.021283026525378227,0.006704667004104704,0.017400750865088774
1782812348369860000,1.947860107421875,-0.016048048481345174,-0.010030139898695051,-0.00021580730830319224
1782812348389942300,1.9679423828125,-0.015149638336896896,-0.00022557065049186347,0.01178006143909879
1782812348410025500,1.988025390625,-0.031005963638424873,0.01458184838630259,-0.0032812136277556416
1782812348430107400,2.008107421875,-0.019338322198390958,0.007977573016751557,-0.021038869905425233
1782812348450190300,2.0281904296875,-0.01604921752512455,0.0011547229930758476,-0.00029437070353887973
1782812348470273300,2.048273193359375,-0.017694646644592284,-0.0024476671467535197,-0.008833897585142404
1782812348490355200,2.068355224609375,-0.023081600379943848,0.0004092201217077672,0.00789698206121102
1782812348510438100,2.088438232421875,-0.03071019556224346,0.018242617649864405,0.0074004855148494236
1782812348530520300,2.108520263671875,-0.012751929545402526,-0.005003160315845161,-0.011314763748599216
1782812348550603300,2.128603271484375,-0.01858545800447464,0.008809548595175147,-0.014099480829993263
1782812348570685200,2.148685302734375,-0.024874329015612602,0.006721271079033613,-0.025095524885086342
1782812348590768400,2.168768310546875,-0.02382394317984581,-0.005173785908706486,-0.007203766499506309
1782812348610850300,2.188850341796875,-0.029204467174410817,0.004822269057296216,0.02036918134978041
1782812348630933200,2.208933349609375,-0.013645078992843626,-0.019062044273968785,-0.00003554623741656542
1782812348651015200,2.22901513671875,-0.023667291313409805,0.01971758557325229,0.008120516018243507
1782812348671098000,2.24909814453125,-0.001970423290133476,0.00937321035992354,-0.021372577105509116
1782812348691180300,2.26918017578125,-0.023216624936461448,0.00017404139265418051,-0.01499439297625795
1782812348711263200,2.28926318359375,-0.027256255716085434,0.008365019698068498,-0.014574642327381298
1782812348731345200,2.30934521484375,-0.012739654585719108,-0.018281981545872985,0.005598431928409263
1782812348751428400,2.329428466796875,-0.032490649238228794,0.024921127299405633,0.033439328265190124
1782812348771510300,2.34951025390625,-0.022919687816500663,-0.008873060551751405,0.004142597963754087
1782812348791593200,2.36959326171875,-0.025008769050240517,0.0009230513953603803,-0.005117370413197204
1782812348811675400,2.38967529296875,-0.027558453533053397,0.0069818947765976185,-0.010944660927727818
1782812348831758300,2.40975830078125,-0.02456687050163746,-0.002382949613779783,-0.018490053072292355
1782812348851840300,2.42984033203125,-0.023521745362877846,0.02136454906268045,-0.0001695478806272149
1782812348871923200,2.449923095703125,-0.003620528584718704,-0.036096418645232914,0.00540010547786951
1782812348892005000,2.470005126953125,-0.016342062991857528,0.00454361651269719,0.008693511866917834
1782812348912088300,2.49008837890625,-0.016790975803136824,0.004672229594737291,0.0029352771337609737
1782812348932170500,2.51017041015625,-0.025319734695553778,0.0028436989933252332,-0.018009576078969983
1782812348952253400,2.53025341796875,-0.019785481444001198,0.017257935727760194,-0.017319758050749076
1782812348972335400,2.55033544921875,-0.012154548174142837,-0.024120332310535012,-0.016853757107350976
1782812348992418300,2.570418212890625,-0.022027707412838934,0.03280700344471261,0.008221930566104128
1782812349012500200,2.590500244140625,-0.025768647506833074,0.004786193096917122,0.0037349578777793793
1782812349032583200,2.610583251953125,-0.018438743010163305,0.00585241582263261,0.01692556196823716
1782812349052665300,2.630665283203125,-0.014396774142980575,0.012069902097992599,-0.002484720354666933
1782812349072748500,2.65074853515625,-0.009157704445719719,-0.0037097595044411715,-0.024161440639058125
1782812349092830500,2.67083056640625,-0.033396658167243,0.04907163555249572,0.0014982666005846112
1782812349112913400,2.690913330078125,-0.026813772645592687,-0.01211196940774098,0.0036454438302665946
1782812349132996400,2.710996337890625,-0.011551906105875968,-0.009287267375830561,0.0011161080157384275
1782812349153078300,2.731078369140625,-0.031001871985197067,0.010344338680710642,0.016637684937566517
1782812349173161200,2.7511611328125,-0.0259112708479166,-0.005934431550279259,-0.0022834986941423266
1782812349193243400,2.771243408203125,-0.021567104163765907,0.025352979378029702,-0.010084546100208536
1782812349213326300,2.791326416015625,-0.03114683341383934,-0.012617434711847453,-0.01547381965680979
1782812349233408300,2.811408203125,-0.004806523498892784,-0.005384140723757445,-0.0158806286257226
1782812349253491500,2.831491455078125,-0.013635142120718955,0.01813943127002567,0.010378670208575204
1782812349273573400,2.851573486328125,-0.02949672811925411,-0.0010120631193742155,0.003047870662761852
1782812349293656300,2.87165625,-0.012139935126900672,0.01663310009399429,0.015018687167298048
1782812349313738200,2.89173828125,-0.016633154892921446,-0.026488614078145473,-0.011464593148604034
1782812349333821200,2.9118212890625,-0.029052491483092305,0.02633358791321516,-0.0022165892040822656
1782812349353903400,2.9319033203125,-0.009149521139264106,0.018837496536783873,-0.013692178670736029
1782812349373986300,2.951986328125,-0.022315292182564735,-0.007441584710218012,-0.01138497030744329
1782812349394068200,2.972068115234375,-0.028151158729195592,-0.0022063144052401184,0.015844077741308138
1782812349414151200,2.992151123046875,-0.0034603695869445798,-0.0214097581775859,0.01698796881311573
1782812349434233000,3.012233154296875,-0.023360417321324347,0.008455127400625496,0.010469453764567151
1782812349454316300,3.03231640625,-0.022614567390084266,-0.004487685074377805,-0.00822440565098077
1782812349474398500,3.0523984375,-0.015882044264674187,-0.01402308199238032,-0.019451372385118154
1782812349494481400,3.0724814453125,-0.03593348316848278,0.017067217194940892,-0.0005253116488922388
1782812349514563300,3.092563232421875,-0.027404724276065825,-0.009860044028796255,0.012853873816225677
1782812349534646300,3.112646240234375,-0.013787702333927154,0.012984879784751683,0.017800572970788926
1782812349554728200,3.132728271484375,-0.021120529440045357,-0.022741883564181626,0.00711796964588575
1782812349574811100,3.15281103515625,-0.00765139153599739,0.0150612294010818,-0.013361430612718685
1782812349594893300,3.172893310546875,-0.015132687202095985,0.00961549468319863,-0.013726154005574061
1782812349614976500,3.1929765625,-0.022611644780635834,-0.012928108096215873,-0.007554927157890051
1782812349635058400,3.213058349609375,-0.03233984259068966,0.02383678439510986,0.010995797459920867
1782812349655141400,3.233141357421875,-0.020372341421246526,-0.04009621060481295,0.008149285455001518
1782812349675223300,3.253223388671875,-0.03009235592484474,0.021662289900239554,0.0182749855495058
1782812349695306200,3.27330615234375,-0.01542611719071865,-0.0026170871632173656,0.007403535988461226
1782812349715389200,3.29338916015625,-0.023203765454888343,-0.0003439911320805549,-0.018897282166313378
1782812349735471400,3.313471435546875,-0.007792845833301544,-0.003869827170670032,-0.019786467824690044
1782812349755554300,3.33355419921875,-0.03278115661740303,-0.012018719900026916,-0.0025258469494991004
1782812349775636200,3.35363623046875,-0.013774258330464362,0.024279961585346607,0.014146069051232188
1782812349795719400,3.373719482421875,-0.01826514000892639,-0.013102313885651529,0.02278576837168075
1782812349815801300,3.39380126953125,-0.0293359845995903,-0.014514463972207159,0.014668293693894519
1782812349835883800,3.4138837890625,-0.021105331870913506,-0.0073988780796527855,-0.0006055372782517224
1782812349855966000,3.433966064453125,-0.021252631387114522,0.0042513190352357925,-0.022890233393153176
1782812349876049000,3.454048828125,-0.01631926663815975,0.014749441771861166,-0.015061384664708747
1782812349896130800,3.474130859375,-0.014969605594873427,-0.029627259163744746,-0.004922432362986728
1782812349916214000,3.494214111328125,-0.01915828945636749,-0.00030983313415199515,0.017399444823991507
1782812349936296000,3.5142958984375,-0.014219079488515854,-0.004080072387866676,0.016230684172408655
1782812349956379000,3.53437890625,-0.03367255249917507,0.005614351016748696,0.015456402731128036
1782812349976461000,3.5544609375,-0.024250644159317016,0.006833243553526699,-0.015934632968436925
1782812349996544000,3.5745439453125,-0.022155717706680296,-0.02400238675298169,-0.029522867207508532
1782812350016626000,3.5946259765625,-0.019459902751445768,0.030091022484283893,-0.00591306910184212
1782812350036708900,3.614708984375,-0.006738368344306946,0.006995631041005253,0.011843984387628733
1782812350056790800,3.634790771484375,-0.026790391770005223,-0.010355243667215108,0.026529037420079112
1782812350076873700,3.654873779296875,-0.03607259937822819,-0.019215700465720145,0.01186795891826041
1782812350096956000,3.674955810546875,-0.02200432653725147,-0.0073275298764929175,-0.0029576076965779066
1782812350117038800,3.695038818359375,-0.004795417582988739,0.04368040750082582,-0.008502181412745266
1782812350137121000,3.71512109375,-0.022301848179101944,-0.017119404039904473,-0.026574283067602664
1782812350157204000,3.735203857421875,-0.02289806050658226,-0.006881594473589212,-0.002733142157783732
1782812350177286000,3.755285888671875,-0.018861352336406706,-0.021768928612489254,0.01550432439292781
1782812350197368800,3.775368896484375,-0.017362638211250305,0.02335152162881568,0.02490192940859124
1782812350217451800,3.79545166015625,-0.023196166670322416,0.023122315982822328,0.010548345953365788
1782812350237533700,3.81553369140625,-0.024245383462309835,-0.024270627501420675,-0.02466893350346945
1782812350257617000,3.835616943359375,-0.023797055172920224,0.007933478146698326,-0.014986310134502127
1782812350277699000,3.855698974609375,-0.013318915778398513,0.0005071458045393228,0.0004634436601307243
1782812350297782000,3.875781982421875,-0.0170534261316061,0.0025461956177838144,0.009427589161973447
1782812350317864000,3.895864013671875,-0.02782499551475048,-0.011930822420865296,0.013466187895135952
1782812350337947000,3.91594677734375,-0.03021744360923767,-0.031158980509359387,-0.001286295217182487
1782812350358028800,3.93602880859375,-0.025130934125185012,0.023661902752239256,-0.0049358124343678355
1782812350378111700,3.95611181640625,-0.019294483056664466,0.014381393910758197,-0.005731602454558014
1782812350398194000,3.97619384765625,-0.02827332380414009,0.005128266266547143,-0.003380390552757308
1782812350418276900,3.99627685546875,-0.027524551263451574,-0.008497560036554932,0.004665197065752
1782812350438358800,4.01635888671875,-0.004629997888207435,-0.016297401866223662,-0.0020260442011989653
1782812350458442000,4.03644189453125,-0.01705050352215767,0.029968930474575606,0.019798404857655987
1782812350478524000,4.05652392578125,-0.02916998038291931,-0.01960201463587582,-0.013718171628518029
1782812350498606800,4.07660693359375,-0.01540390535891056,0.003023640403803438,-0.004183286167168989
1782812350518689000,4.09668896484375,-0.023633389043807983,-0.008675601750891656,-0.00996515750424005
1782812350538772000,4.11677197265625,-0.031112931144237518,0.03002842384316027,0.001317402741499245
1782812350558854000,4.13685400390625,-0.01345978555381298,0.007835369800776242,0.009324695043079555
1782812350578936800,4.156936767578125,-0.027375498181581494,-0.043320561212487514,0.007407326247589662
1782812350599018800,4.177018798828125,-0.02153729354739189,0.012105795395281164,0.022281134184636175
1782812350619102000,4.19710205078125,-0.017949498188495634,0.007410623316373675,-0.00038090734267607327
1782812350639184000,4.217183837890625,-0.021689269238710403,0.01498434650627896,0.0013425097832921891
1782812350659267000,4.23726708984375,-0.014213234269618987,-0.00935821372019127,-0.006810775993391871
1782812350679349000,4.257348876953125,-0.03366436919271946,-0.01778009643834084,-0.0006813881265930831
1782812350699432000,4.277431884765625,-0.012713351100683211,0.040648474192712454,0.01671928967325948
1782812350719515000,4.297514892578125,-0.03021510552167892,-0.00564691984578967,0.019792568771913648
1782812350739596800,4.3175966796875,-0.025724808365106582,-0.004068948205653578,0.0023451292208861558
1782812350759679700,4.3376796875,-0.01824117461144924,-0.005617949479632079,-0.0220578468227759
1782812350779761700,4.35776171875,-0.01300268943607807,0.001998809134401381,-0.015384351275069638
1782812350799844900,4.377844970703125,-0.026319267126917838,0.014546393480431288,0.009385567517997696
1782812350819927000,4.397927001953125,-0.021229835033416748,-0.028737324586696922,0.00288667961852625
1782812350840009700,4.418009765625,-0.012248656198382377,-0.008789583519380539,0.014458404669724404
1782812350860091600,4.438091552734375,-0.013441665375232696,-0.003405168800987303,-0.004322484575305134
1782812350880174600,4.458174560546875,-0.023915713116526603,0.026759284245688467,0.0053633810635190455
1782812350900256500,4.478256591796875,-0.03229775701463222,0.0015495675295591354,-0.01719796743514016
1782812350920339700,4.498339599609375,-0.01688742191493511,-0.02378974864929914,0.004234176104189828
1782812350940421600,4.518421630859375,-0.02362169860601425,0.015145875477232038,0.01810254245889373
1782812350960504600,4.538504638671875,-0.013294950380921364,0.009420447035133839,0.006698191597545519
1782812350980586500,4.55858642578125,-0.01763034923672676,0.006731226217467337,-0.0013677446892485022
1782812351000669700,4.578669677734375,-0.03259118700325489,-0.015492898816615343,-0.023255230780644343
1782812351020751600,4.598751708984375,-0.023010873231291768,-0.017088881037477403,-0.011633830501977353
1782812351040834600,4.61883447265625,-0.024651041653752325,0.02524663292672485,0.0008553564540110528
1782812351060916700,4.638916748046875,-0.028244682231545446,0.010188216537237166,0.002078678570734337
1782812351080999700,4.658999755859375,-0.026751228803396223,-0.006454838695190847,0.012207858397113159
1782812351101081600,4.67908154296875,-0.024807108998298643,-0.014967377105168997,0.020384451984148472
1782812351121164500,4.69916455078125,-0.020614333483576774,0.006457395978458225,-0.0029186821919865904
1782812351141247700,4.719247802734375,-0.004151858982443809,0.013433920460194348,-0.01654963219477795
1782812351161329700,4.73932958984375,-0.029288638326525687,-0.017141086148750036,-0.011597562745353207
1782812351181412600,4.75941259765625,-0.022558453288674354,-0.015050671474449336,-0.004351966398116201
1782812351201494800,4.779494873046875,-0.017922610181570053,-0.01585553985023871,0.008522648812038824
1782812351221577700,4.79957763671875,-0.022712767067551612,0.007693952036090195,0.0031516598307993263
1782812351241659600,4.81965966796875,-0.028850831431150435,0.0001638487922027707,-0.00030522089111618695
1782812351261742600,4.83974267578125,-0.02481295421719551,-0.010102858075033872,-0.0043160091687459495
1782812351281824500,4.859824462890625,-0.033492519757151604,-0.0009414090359583496,-0.022745819953782484
1782812351301907500,4.879907470703125,-0.017783493971824646,0.022222024408541617,0.0037718923546839504
1782812351321989600,4.89998974609375,-0.018382044386863708,0.008605075531639158,0.0022786581222433593
1782812351342072800,4.92007275390625,-0.023771920731663704,-0.02780212609581649,0.002690937850717455
1782812351362154800,4.94015478515625,-0.017933716097474097,-0.013073745378293096,0.02594783999864012
1782812351382237700,4.96023779296875,-0.012400047367811202,0.026081732043996452,-0.0004285824093036353
1782812351402319600,4.980319580078125,-0.008658522751927375,0.012607296910323203,-0.00777219577091746
1782812351422402600,5.000402587890625,-0.02152326502203941,0.00037657822743058204,-0.008620601894333958
1782812351442484700,5.020484619140625,-0.014938041412830352,-0.01201914002513513,-0.005368066371791064
1782812351462567700,5.040567626953125,-0.01778407849371433,0.016177264351584016,0.014325873464392498
1782812351482649600,5.060649658203125,-0.020925299128890035,0.000415193204768002,0.01584842512286268
1782812351502732800,5.08073291015625,-0.02122398981451988,-0.00617929142313078,0.0020754271677229552
1782812351522814700,5.100814697265625,-0.015991349858045577,-0.0032960824033245444,-0.004496681231586262
1782812351542897700,5.120897705078125,-0.021675825235247612,0.0052307767929509275,-0.015782282817782833
1782812351562979600,5.1409794921875,-0.02975157966315746,0.007335548786167055,-0.005602057790756225
1782812351583062500,5.1610625,-0.03304360694587231,-0.01859115709289908,-0.008799995315540581
1782812351603145500,5.1811455078125,-0.010301029261946678,-0.010923380677681416,0.0058725726946722715
1782812351623227600,5.2012275390625,-0.01822889965176582,-0.003216313431691378,0.0004095215158071369
1782812351643310600,5.221310546875,-0.03364215736091137,0.025042744385078548,-0.0030165622090455144
1782812351663392500,5.241392578125,-0.017932547053694722,-0.0017919066517613827,-0.012964732045866548
1782812351683475700,5.261475830078125,-0.010156067833304404,-0.02273253121394664,-0.011650078383879735
1782812351703557600,5.2815576171875,-0.027811551511287686,0.0017605616654269396,-0.0018262290464714167
1782812351723640600,5.301640625,-0.01793313157558441,0.009135017689876257,0.009038781640632078
1782812351743722800,5.32172265625,-0.027362054178118704,-0.005769322382751852,-0.001245890141557902
1782812351763804700,5.3418046875,-0.023171032229065892,-0.01677670981576666,0.0010947273009922355
1782812351783887600,5.3618876953125,-0.010149638092517852,-0.009400591557193546,-0.004368844467680901
1782812351803969500,5.381969482421875,-0.01897884123623371,0.01574099182616919,0.010962689774762838
1782812351824052500,5.402052490234375,-0.021969255223870277,0.012824702520668505,-0.007456681814650073
1782812351844135700,5.4221357421875,-0.01104863275885582,0.00287871550777927,-0.008192521808529273
1782812351864218600,5.442218505859375,-0.012248071676492691,-0.022015761246718463,-0.006405163467722013
1782812351884300800,5.46230078125,-0.01867956602871418,0.006449833726510405,0.006648625967931002
1782812351904383700,5.4823837890625,-0.004162964898347854,0.015258432473614811,0.001313338487735018
1782812351924465700,5.502465576171875,-0.016732523614168167,-0.0158696414408274,0.005940943489456549
1782812351944548900,5.522548828125,-0.019878420424461363,-0.00392219667872414,-0.000856525497790426
1782812351964631800,5.5426318359375,-0.025265958681702613,-0.011976762188132851,-0.0020332959258928893
1782812351984713700,5.562713623046875,-0.018532851034402845,0.018635379827115682,0.0027850641412660478
1782812352004796700,5.582796630859375,-0.01673719978928566,-0.0068399290226399895,-0.0013977653681766242
1782812352024878800,5.60287890625,-0.032899230039119716,-0.01518078239383176,-0.0031869960056617854
1782812352044961800,5.6229619140625,-0.017487141373753547,0.02077087575215846,0.01556993697504513
1782812352065043700,5.643043701171875,-0.019282792618870732,0.0032503800980746744,0.013825760188838467
1782812352085127000,5.663126953125,-0.011650105783343315,0.014441581399086863,0.003186822475725785
1782812352105209900,5.6832099609375,-0.02362871286869049,-0.016004921725671736,-0.014113737684208899
1782812352125291800,5.703291748046875,-0.015550035831332206,-0.013106533403042703,-0.011078909166110679
1782812352145374700,5.723374755859375,-0.014351765957474708,0.017096863414533436,0.013101619765907525
1782812352165457000,5.743456787109375,-0.03125789257287979,0.006025068975798785,0.003225464852526784
1782812352185539800,5.763539794921875,-0.01390636027753353,-0.0011359817599877714,-0.0023392292030621317
1782812352205621800,5.783621826171875,-0.020341946282982824,-0.010668803128413855,-0.0038258327653165904
1782812352225704700,5.80370458984375,-0.02752221317589283,0.010351626938022673,0.01189347695200704
1782812352245786600,5.82378662109375,-0.026471827340126035,0.014470003775972871,-0.01331541778021492
1782812352265869800,5.843869873046875,-0.027523382219672203,-0.01655674692215398,0.0026660226051695643
1782812352285951700,5.86395166015625,-0.021988544446229934,-0.002298778461664915,-0.005967036911938339
1782812352306034700,5.88403466796875,-0.014060089534521102,-0.002046849527209997,-0.004559681731509045
1782812352326116900,5.904116943359375,-0.027075053930282592,0.02233315663281828,-0.004729996797116473
1782812352346199800,5.92419970703125,-0.019297405666112898,0.0035772922311909493,-0.004168819250399246
1782812352366282800,5.94428271484375,-0.02708031462728977,-0.007453786604665219,-0.009563170840917155
1782812352386364700,5.96436474609375,-0.030071897658705708,0.002251468721218407,-0.00928521241606213
1782812352406447600,5.984447509765625,-0.01840016456544399,0.007616996076051145,0.002872477563237771
1782812352426529500,6.004529541015625,-0.029918168401718136,0.002267049882840365,-0.0033095720725599674
1782812352446612700,6.02461279296875,-0.011958148819208144,-0.007870167119521647,-0.006159490744117647
1782812352466695000,6.04469482421875,-0.021087796214222906,-0.0006252557588741183,-0.007539912251848727
1782812352486777900,6.06477783203125,-0.015697919869422913,0.02338251955527812,0.0042449988923035555
1782812352506859800,6.08485986328125,-0.023925065466761587,-0.005146989233326167,-0.0011096691417973488
1782812352526942700,6.104942626953125,-0.015241992795467375,-0.005979366670548916,0.005467681688209995
1782812352547024600,6.125024658203125,-0.0107575408577919,-0.003760083185881376,0.00643136648805812
1782812352567107600,6.145107666015625,-0.025122166296839714,0.014325736467074602,-0.0077962616330943995
1782812352587189800,6.165189697265625,-0.03245207079350948,0.013660678420774638,-0.00842274123467505
1782812352607273000,6.18527294921875,-0.029167642295360563,-0.023181023900117725,-0.002197656174749136
1782812352627355000,6.20535498046875,-0.009869067585468292,0.0073640259619802235,-0.008104743060376495
1782812352647437800,6.225437744140625,-0.029770868885517117,0.012650697660632431,-0.0004395421947352588
1782812352667519700,6.245519775390625,-0.015851064604520796,0.013082093081530183,-0.007619608158245682
1782812352687602700,6.265602783203125,-0.014056582403182983,-0.0021639000356197357,0.0036736196119803934
1782812352707685600,6.285685546875,-0.01884673928916454,-0.015602807198185473,0.00004053293978795409
1782812352727767800,6.305767822265625,-0.028421207842230796,0.003490600328426808,0.0014468286742921918
1782812352747850800,6.325850830078125,-0.020792028138041495,0.0010621676051057875,-0.004795947305951267
1782812352767932700,6.3459326171875,-0.025429624810814858,-0.007009915294684469,-0.005527494717203081
1782812352788015900,6.366015869140625,-0.03186696438193321,0.002039469938352704,0.00413465211931616
1782812352808097800,6.386097900390625,-0.00807400086224079,-0.00293130421154201,0.01026368379308842
1782812352828180700,6.4061806640625,-0.019444705182313917,0.015411376279313117,0.0036977220067754384
1782812352848263000,6.426262939453125,-0.01884381667971611,-0.0027745792798697945,0.0010618570778518914
1782812352868345900,6.446345947265625,-0.02423252398073673,-0.007784425064828246,-0.010726205004611983
1782812352888427800,6.466427734375,-0.01675122831463814,-0.002228380106575787,0.005909991228766739
1782812352908510700,6.4865107421875,-0.017341595423221588,0.007251907357014716,0.0008871946306899189
1782812352928592600,6.506592529296875,-0.01644435432255268,0.010330602416303009,0.01897027433728799
1782812352948675800,6.52667578125,-0.008062310424447059,-0.009498371109552681,0.009253301174147055
1782812352968757800,6.5467578125,-0.022127076134085655,-0.0040978820391930635,-0.0006154284846037626
1782812352988840700,6.5668408203125,-0.016437340059876442,0.007485770911816507,-0.004949959690729156
1782812353008923600,6.586923583984375,-0.017484218764305115,0.010484276874363421,-0.007132911486690863
1782812353029005800,6.607005859375,-0.015532500174641608,0.0003976940806955099,0.008571986112790182
1782812353049088800,6.6270888671875,-0.03722703011035919,-0.020324264495819807,0.0005550583331845701
1782812353069170700,6.647170654296875,-0.022565467551350592,-0.006795450560096651,0.005764116484671831
1782812353089253600,6.667253662109375,-0.02331365557014942,0.01247307607140392,0.004545936333946884
1782812353109335600,6.68733544921875,-0.020167174237966535,0.0021644662912003697,0.009823283081827684
1782812353129418800,6.707418701171875,-0.025556466060876845,-0.013160053688567132,-0.003831924579385668
1782812353149501000,6.7275009765625,-0.04291209000945091,0.004572422482073307,-0.012992487702472135
1782812353169583900,6.747583984375,-0.024804770910739897,0.01037193907368928,0.004797600406920537
1782812353189665800,6.767665771484375,-0.031981530672311784,0.002426350364089012,-0.0014440613284707068
1782812353209748700,6.787748779296875,-0.02285188327729702,-0.007511709070671349,0.010716204200405626
1782812353229830700,6.80783056640625,-0.01866027680635452,-0.005959602524153888,-0.010840296370955184
1782812353249913600,6.82791357421875,-0.011772855380177498,0.01737895002523437,-0.0003025540099944919
1782812353269995800,6.847995849609375,-0.02463993573784828,-0.005467453359346837,-0.000647193596046418
1782812353290079000,6.868078857421875,-0.030922961530089377,-0.008618903127592056,0.003865342791797593
1782812353310162000,6.888161865234375,-0.027632103291153905,-0.009774521169811487,-0.0003437445369083434
1782812353330243800,6.908243896484375,-0.008178045758605004,-0.003946052478346973,0.000469855134608224
1782812353350326800,6.928326904296875,-0.016557751569151877,0.020410755469184368,0.004119180555548519
1782812353370408700,6.94840869140625,-0.021495792493224142,-0.0199792504504323,-0.008746758157806471
1782812353390491600,6.96849169921875,-0.014160627299547195,0.0032268530920147895,-0.005951556215016171
1782812353410573800,6.98857373046875,-0.01790098287165165,0.004302519499510526,0.004252935603586957
1782812353430656800,7.00865673828125,-0.022090835776925086,0.010728186899144202,-0.00395933208502829
1782812353450738700,7.02873876953125,-0.01610708519220352,0.004504417013470083,0.006048440718231723
1782812353470822000,7.04882177734375,-0.021796821266412733,-0.018411142617184666,-0.002234563252190128
1782812353490903800,7.06890380859375,-0.025686814442276953,0.012670589671190828,-0.01171670474614948
1782812353510986800,7.08898681640625,-0.022842530927062035,0.011291300674621016,-0.00623100334405899
1782812353531069000,7.10906884765625,-0.019852701461315153,0.0016247333913110196,0.004975194596685469
1782812353551151900,7.12915185546875,-0.02613748081922531,-0.0103659842569381,0.00967955462904647
1782812353571233800,7.14923388671875,-0.016559505134820938,-0.0029546668208204206,0.000542765107192099
1782812353591316700,7.169316650390625,-0.038105566510558124,0.012561923398636281,0.016977648348500952
1782812353611398700,7.189398681640625,-0.018952537751197814,-0.009841777719743549,-0.0040468916374724355
1782812353631481600,7.209481689453125,-0.008629296657443046,-0.008145476929564029,0.004606023357575759
1782812353651564800,7.229564697265625,-0.021944120782613753,-0.006132073014229536,-0.0005177950627170502
1782812353671646700,7.249646728515625,-0.023889409631490707,-0.007024108216818422,-0.012200835001282393
1782812353691729700,7.269729736328125,-0.01835048020482063,0.01207139993533492,0.00482303624227643
1782812353711811800,7.289811767578125,-0.023885902500152587,-0.007861910747829824,-0.0036122356804087754
1782812353731894800,7.309894775390625,-0.021791560569405555,-0.010527677624672651,-0.0009499942012131214
1782812353751976700,7.329976806640625,-0.018799393016099928,0.007280147070810199,-0.00805552449063398
1782812353772059600,7.3500595703125,-0.021488778230547904,0.0010012494644150137,0.0012515161647461354
1782812353792141600,7.3701416015625,-0.016402268746495245,-0.010499894568603485,0.0031020302691031247
1782812353812224800,7.390224853515625,-0.0238853179782629,-0.014494389298558234,-0.009793107139272615
1782812353832306200,7.41030615234375,-0.0048848494321107865,0.0014504728029482066,0.004203634835453704
1782812353852389000,7.43038916015625,-0.0180512049973011,0.00377529902132228,-0.0038250838466454295
1782812353872471000,7.450470947265625,-0.02433890696465969,0.008987170184403658,-0.0005943400308024137
1782812353892554200,7.47055419921875,-0.008624620482325554,-0.0008296009582467377,-0.014157686423789709
1782812353912636200,7.49063623046875,-0.018352233770489692,-0.002328333349712193,0.000009114888217300175
1782812353932719000,7.510718994140625,-0.010721885022521018,0.011485946463886648,0.001194954538764432
1782812353952802300,7.53080224609375,-0.024929858595132828,0.0019807254884392023,0.00412816757960245
1782812353972884200,7.55088427734375,-0.01595160236954689,-0.022268968822807073,-0.000037327202549204226
1782812353992967200,7.57096728515625,-0.03390753029882908,-0.004346943163126706,-0.006313201734796166
1782812354013049000,7.591049072265625,-0.019390929168462752,0.009817392197158187,0.002781474811537191
1782812354033132000,7.611132080078125,-0.01908697778582573,0.009712580115813762,0.005949610853102058
1782812354053214000,7.6312138671875,-0.023578443986177443,-0.01384823688212782,-0.007101803962374106
1782812354073297200,7.651297119140625,-0.019687866288423537,-0.014925766453146933,0.0028656733631156383
1782812354093379300,7.67137939453125,-0.01774140839576721,0.016913761932589113,0.007471322261355817
1782812354113462300,7.691462158203125,-0.028359833043813704,-0.0006351743646897376,-0.004193862360110506
1782812354133544200,7.711544189453125,-0.016241525226831435,-0.01327920482251793,-0.009863697290606797
1782812354153627100,7.731627197265625,-0.016543723043799398,-0.016914912710059432,0.0011918857988435774
1782812354173709000,7.751708984375,-0.02895779893696308,0.006968213311117142,0.010079093606956302
1782812354193792000,7.7717919921875,-0.03194704388082027,0.007934427994769067,-0.0027858587257098403
1782812354213874200,7.791874267578125,-0.022673019579052923,-0.006736943572200834,-0.0021044249333441256
1782812354233957400,7.811957275390625,-0.012197802793979645,-0.0024389906499534845,-0.003220971340499818
1782812354254039300,7.832039306640625,-0.010102291819453239,-0.009315872415807098,-0.001674646080797538
1782812354274122200,7.852122314453125,-0.03149754654765129,0.01319103334872052,-0.005133444765163585
1782812354294205200,7.872205078125,-0.02386661327779293,-0.009546795094851403,0.00208052346794866
1782812354314287000,7.892287109375,-0.019977204623818395,-0.011185045554861425,0.001720923774782568
1782812354334370000,7.9123701171875,-0.015639467680454253,0.00025974691472947597,-0.0007036912899464369
1782812354354452200,7.9324521484375,-0.013546294793486595,-0.006578227612841874,0.005744662865530699
1782812354374535200,7.95253515625,-0.02162964800596237,0.012993190955370664,0.008093098288355395
1782812354394617000,7.9726171875,-0.027765958803892134,-0.008201353568956255,-0.012788115103635936
1782812354414700300,7.9927001953125,-0.02566518713235855,-0.010159355768933892,0.001192442921269685
1782812354434782200,8.0127822265625,-0.015041501787304878,0.01248346960125491,-0.003565400863997638
1782812354454865200,8.032865234375,-0.015641805768013,0.0032896709288470446,-0.00693336119344458
1782812354474947300,8.052947265625,-0.010553542718291281,-0.0036000155196525153,0.012197912391833961
1782812354495030300,8.0730302734375,-0.019978958189487455,-0.010069942186120897,-0.000028166648559272288
1782812354515112200,8.0931123046875,-0.01907294926047325,0.013770294541399926,-0.0020188838080503046
1782812354535195100,8.113195068359374,-0.014134323814511298,0.01046752666896209,-0.0044274701865855606
1782812354555277000,8.133277099609375,-0.01877542761862278,-0.0026115159389562903,0.0002902425176929682
1782812354575360300,8.1533603515625,-0.024911153894662856,-0.015592304070480166,-0.005580951070645824
1782812354595442200,8.173442138671875,-0.021163199537992478,-0.0013014927863143383,-0.004301761447684839
1782812354615525000,8.193525146484374,-0.020263035827875135,0.01941314100027084,0.007085483015235513
1782812354635608300,8.2136083984375,-0.016075521010160444,0.005675634483620524,-0.003222542243078351
1782812354655690200,8.233690185546875,-0.022808628657460212,-0.017634294759482146,0.001277335592592135
1782812354675773200,8.253773193359375,-0.0180208098590374,0.005752042454387992,0.003148271430470049
1782812354695855000,8.273855224609376,-0.017268530187010765,0.007730484654195607,0.009066464232001453
1782812354715938000,8.29393798828125,-0.027444471764564514,-0.0013521269950084386,-0.00573211391121149
1782812354736020000,8.31402001953125,-0.017419336834549902,-0.014955723199993371,-0.012845973637560381
1782812354756103200,8.334103271484375,-0.02011339822411537,-0.008188914212491363,0.0015670666536316275
1782812354776185300,8.354185302734376,-0.026850597524642944,0.015721903533209115,-0.006647593921469524
1782812354796268300,8.374268310546874,-0.008146481576561927,0.001986333245318383,0.00467563626137562
1782812354816350200,8.39435009765625,-0.015928806015849114,-0.00006205065185204148,-0.0014841010779142378
1782812354836433400,8.414433349609375,-0.018326514807343482,-0.018245905585493893,0.005104638795787468
1782812354856515300,8.434515380859375,-0.015033318480849265,0.012840064486581832,0.002567311471048742
1782812354876598300,8.454598388671876,-0.03478606669902801,-0.0010331241737119852,-0.009776740526361391
1782812354896680400,8.474680419921874,-0.012338088047504425,-0.011580639010015874,-0.009330019672168418
1782812354916763400,8.494763427734375,-0.023709376889467237,0.0021466383735649287,-0.007711405494390055
1782812354936845300,8.51484521484375,-0.024603695380687712,0.003703475894127041,-0.0001514825009740889
1782812354956928500,8.534928466796876,-0.01712181519269943,0.005963383650127798,0.0035399467623326926
1782812354977010400,8.555010498046874,-0.022513445103168488,-0.007820555824134498,-0.005815408280491829
1782812354997093400,8.57509326171875,-0.029543489870429037,-0.013267678781505674,-0.012687623004382476
1782812355017175600,8.595175537109375,-0.005453004708886146,0.0010338548260740935,0.008422923897765576
1782812355037258500,8.615258544921875,-0.01862286740541458,0.006813972597476094,0.011891495057474822
1782812355057341400,8.635341552734374,-0.020718378379940984,-0.01799733765190467,-0.0016347433286719023
1782812355077423400,8.65542333984375,-0.023266309297084807,-0.015199907219409942,-0.00021684848791919648
1782812355097506300,8.67550634765625,-0.014287468549609184,0.005595865511987358,0.00007423427999019622
1782812355117588200,8.695588134765625,-0.029703064346313476,0.01359919402450323,-0.006449304003547877
1782812355137671400,8.71567138671875,-0.028808161333203314,-0.003249083190131932,-0.01750375458183698
1782812355157753300,8.73575341796875,-0.009210895937681197,-0.0009637852645479142,-0.0028970183494500816
1782812355177836500,8.75583642578125,-0.007265607088804245,-0.006211166132427752,0.005905333319958299
1782812355197918500,8.77591845703125,-0.023725158980488777,0.002018061824142933,-0.002655382480146363
1782812355218001400,8.79600146484375,-0.015196400088071823,-0.0053221814034506675,0.0043018801786936815
1782812355238083300,8.816083251953126,-0.012948913422226906,-0.011972743600141257,-0.0033941542166285215
1782812355258166300,8.836166259765625,-0.015491583642363548,0.0026728359384462236,-0.004502672580955549
1782812355278248200,8.856248291015625,-0.016691022560000417,0.0015411284947767852,-0.008992750541819259
1782812355298331400,8.876331298828125,-0.011603344032168388,0.0008307882683351635,-0.004326019106106832
1782812355318413600,8.89641357421875,-0.03404664650857448,-0.011485161012597382,-0.01432221106942743
1782812355338496500,8.91649658203125,-0.02118131971657276,-0.00495090040564537,0.004574824501713737
1782812355358578400,8.936578369140625,-0.03016074498593807,0.006489270687755197,-0.009575199205428361
1782812355378661400,8.956661376953125,-0.03494914830625057,-0.002488857673667371,-0.003431490552332252
1782812355398743300,8.976743408203125,-0.027617490243911743,-0.0063523464350961146,-0.0077860416331794104
1782812355418826200,8.996826171875,-0.017742577439546586,-0.014382617753464728,-0.002627526358840987
1782812355438909200,9.0169091796875,-0.01714578059017658,0.009190163676906376,-0.008403844737960025
1782812355458991400,9.036991455078125,-0.03869359553158283,-0.0019281915836036204,-0.0023954894349444656
1782812355479074600,9.057074462890625,-0.020735914036631584,0.0011982333412393926,0.0005434044280089438
1782812355499156500,9.077156494140626,-0.016999650117754936,-0.0009436009930446743,-0.0017020820769947022
1782812355519239400,9.097239501953124,-0.022536241456866262,0.009827146406192332,-0.0024075725983828304
1782812355539321300,9.1173212890625,-0.01834405046403408,0.0144084280481562,-0.008478617874067276
1782812355559404300,9.137404296875,-0.02223229007422924,-0.0101847276722081,-0.007351075148861855
1782812355579486500,9.157486572265626,-0.038544542449712754,-0.015838095525093375,0.0081189542488195
1782812355599569400,9.1775693359375,-0.005177110376954079,0.005631959738675504,-0.016584676108695566
1782812355619651300,9.1976513671875,-0.03720189566910267,0.004517915815860033,0.003591877878969535
1782812355639734500,9.217734619140625,-0.027623335462808606,-0.005061575972195714,-0.006465999410022049
1782812355659816400,9.23781640625,-0.012806874603033066,-0.0148499247379601,-0.015085724521521479
1782812355679899400,9.2578994140625,-0.02208966673314571,0.0016229250267148017,-0.013362380460789426
1782812355699982300,9.277982421875,-0.012213584885001181,0.01586187825948,0.006002975874999538
1782812355720064500,9.298064453125,-0.01355564714372158,0.00855053233280778,-0.009352962156338617
1782812355740147500,9.3181474609375,-0.024926935985684393,0.002246390687301755,-0.0010362568457145244
1782812355760229400,9.3382294921875,-0.014158289211988449,-0.008540723324846476,-0.00047688766359351575
1782812355780311300,9.358311279296874,-0.023135376393795013,0.007282393826823681,0.006403528633061796
1782812355800394200,9.378394287109375,-0.025385201147198676,0.006096819037757813,-0.011977109248004852
1782812355820476400,9.398476318359375,-0.015654080727696418,-0.00587232609950006,-0.008566213959129527
1782812355840559000,9.41855908203125,-0.015060206487774848,-0.0013889153414405882,-0.010870801107073202
1782812355860641000,9.43864111328125,-0.024485621958971023,0.0008041194571182131,-0.007184824337018654
1782812355880724000,9.458723876953124,-0.012369067707657814,0.008872275100462138,0.0034187406686134636
1782812355900807000,9.478806884765625,-0.02389525485038757,-0.016551066100038588,0.0012240162364672868
1782812355920888800,9.498888916015625,-0.01806172639131546,-0.0033157004192471504,-0.006517291205842048
1782812355940971800,9.5189716796875,-0.01267769526541233,-0.0032560791864991185,-0.0006939918798394501
1782812355961054000,9.539053955078124,-0.020160744497179982,-0.010077193910814821,-0.005542993680434301
1782812355981137200,9.55913720703125,-0.002954173630475998,0.002842603014782071,0.0038834995029959824
1782812356001219000,9.579218994140625,-0.02136076793670654,-0.004731266305595636,-0.005733986207889392
1782812356021302000,9.599302001953125,-0.021809096226096152,0.013065817800164222,-0.005019024605257437
1782812356041384000,9.619384033203126,-0.02016483615040779,0.005353562922403216,-0.002427775136195123
1782812356061467000,9.639466796875,-0.02480593995451927,0.01037071523098275,-0.010335059395711868
1782812356081549800,9.6595498046875,-0.030942250752449035,-0.00022451120456680655,-0.009245729789044707
1782812356101632800,9.6796328125,-0.02181786405444145,-0.00909311477690935,-0.003876521772937849
1782812356121715000,9.69971484375,-0.018525836771726607,0.0037714448301121592,-0.011132201122771948
1782812356141798100,9.719798095703124,-0.013139467558264731,-0.005501611357275396,0.005919325312692672
1782812356161880000,9.739880126953125,-0.024661563047766684,0.009515230912808328,-0.005295695255324244
1782812356181963000,9.759962890625,-0.020769816306233403,-0.005048643425386399,-0.0015010339464060962
1782812356202045000,9.780044921875,-0.007604045262932777,0.0018814846313558518,-0.004728444160846993
1782812356222127900,9.8001279296875,-0.006558920124173164,0.011075593831017612,-0.0061651989656966175
1782812356242209800,9.820209716796874,-0.02885316951870918,0.0035592816504649814,-0.0035442667444236576
1782812356262292700,9.840292724609375,-0.02257306633591652,-0.004231993280258029,-0.0003608144027180969
1782812356282376000,9.8603759765625,-0.012847206613421439,0.006396934495493769,-0.0009111052292399107
1782812356302458000,9.8804580078125,-0.0158335289478302,0.0002306669507175684,-0.006238373799761757
1782812356322541000,9.900541015625,-0.0201730194568634,0.0014198584689758718,-0.002633271113038063
1782812356342623000,9.920623046875,-0.007902735948562622,-0.013865462011564522,-0.003609057342633605
1782812356362706000,9.940705810546875,-0.033038930770754815,0.00725700365724042,0.0096313224399928
1782812356382787800,9.960787841796876,-0.01867079820036888,-0.0013656988626345992,0.0036590065647382286
1782812356402870800,9.980870849609374,-0.02809679819345474,0.002923815024830401,-0.004704232168197631
1782812356422953700,10.00095361328125,-0.031688685205578805,-0.0034800789344124495,-0.006518843842111528
1782812356443036000,10.021035888671875,-0.028994623816013334,-0.0009182108234614133,-0.0065092448967043305
1782812356463119000,10.041119140625,-0.0035533085674047467,-0.0004272307024337351,0.01132417089776136
1782812356483201000,10.061200927734374,-0.014780220502614974,-0.009735394735820592,0.005707162133045494
1782812356503284000,10.081283935546875,-0.01597907489836216,-0.011485307143069803,-0.010979796173190698
1782812356523366000,10.101365966796875,-0.0158247611194849,0.010516023719497024,0.0020052936741150914
1782812356543448800,10.12144873046875,-0.010436638340353965,0.005728424116782844,-0.006499371956661343
1782812356563531800,10.14153173828125,-0.011786883905529975,0.013534823551401495,-0.008407132673589512
1782812356583614000,10.161614013671874,0.13379764507114886,-0.058041745004244145,0.06250346452030353
1782812356603697000,10.18169677734375,0.03100771720409393,0.02728465982666239,0.03270664377619978
1782812356623778800,10.20177880859375,-0.055773909670114516,0.040464294998534024,-0.04081551958899945
1782812356643862000,10.221862060546876,-0.03811784147024155,-0.02115830416716635,-0.033950337394094095
