time,seconds_elapsed,z,y,x
1782812319445973200,0.06097314453125,0.0002590383228380233,0.000019187573343515396,0.00014565186575055122
1782812319466055200,0.08105517578125,-0.0018501472659409046,0.00019181054085493088,-0.0009923817124217749
1782812319486138400,0.101138427734375,0.0016899921465665102,-0.0007293110247701406,-0.0002763213124126196
1782812319506220300,0.12122021484375,0.0001179262762889266,-0.001121344044804573,0.0000507943332195282
1782812319526303200,0.14130322265625,0.0008388450369238853,-0.0002839062362909317,-0.0007884274236857891
1782812319546385400,0.161385498046875,0.00046946294605731964,-0.0007391171529889107,0.0015356690855696797
1782812319566468400,0.18146826171875,-0.0011923974379897118,0.000448436476290226,0.000059948768466711044
1782812319586550300,0.20155029296875,-0.0008630279917269945,0.0009840377606451511,-0.0005924315191805363
1782812319606633200,0.22163330078125,-0.0008433222537860274,-0.001142775872722268,-0.00017126696184277534
1782812319626715100,0.241715087890625,0.002029432449489832,0.000030132941901683807,0.0002184098120778799
1782812319646797000,0.261797119140625,-0.001311007421463728,0.0007187998853623867,0.0012776810908690095
1782812319666880300,0.28188037109375,0.0007173652993515134,-0.0002506934106349945,-0.00011639040894806385
1782812319686962400,0.30196240234375,-0.0014717546291649342,0.000180788803845644,-0.0002214119303971529
1782812319707045400,0.32204541015625,0.0006015688995830715,-0.0016100341454148293,0.0012408874463289976
1782812319727127300,0.342127197265625,0.0004107218992430717,-0.0005480288527905941,-0.0009980499744415283
1782812319747210200,0.362210205078125,-0.0009367570164613426,0.0008213818073272705,0.00007896102033555508
1782812319767292200,0.382292236328125,0.0003055073320865631,-0.00008893664926290512,-0.0005145133472979069
1782812319787375000,0.402375,-0.0010099224746227264,0.0000674910843372345,0.0001736024860292673
1782812319807457500,0.42245751953125,0.0006324382266029716,0.0003649289719760418,0.0005451735341921449
1782812319827540500,0.44254052734375,-0.0009946112986654043,-0.0011115800589323044,0.000615372322499752
1782812319847622400,0.462622314453125,0.0004184753925073892,-0.0003216732293367386,0.00047062174417078495
1782812319867704300,0.482704345703125,-0.00009817288082558662,-0.00013561872765421867,0.0002692560665309429
1782812319887787300,0.502787353515625,0.00026215281104668975,-0.00011244881898164749,-0.00041064899414777756
1782812319907869400,0.522869384765625,0.0005548342014662921,0.0012154029682278633,0.0006436964031308889
1782812319927952400,0.542952392578125,-0.0007287654443643987,-0.0011505016591399908,0.000918164849281311
1782812319948034300,0.563034423828125,-0.00018800896941684186,-0.0006462654564529657,-0.0010816846042871475
1782812319968117500,0.583117431640625,-0.0006143911741673946,-0.0007856055162847042,0.0019734236411750317
1782812319988199400,0.603199462890625,-0.000028935348382219672,0.00035005994141101837,0.0010302407899871469
1782812320008282400,0.623282470703125,0.0007274028612300754,-0.0006566653028130531,0.0001268808264285326
1782812320028364500,0.643364501953125,-0.0003676358319353312,0.0018993853591382504,0.00039199774619191885
1782812320048447500,0.663447509765625,0.00009084457997232676,-8.759088814258575e-7,0.0007093363674357533
1782812320068529400,0.683529296875,-0.000423125340603292,-0.0002498994581401348,-0.00041214749217033386
1782812320088611300,0.703611328125,-0.0003084501076955348,0.0006496044807136059,-0.00022843806073069572
1782812320108694300,0.7236943359375,0.0002407948486506939,-0.001814844086766243,0.0001797324512153864
1782812320128776200,0.743776123046875,-0.00191899121273309,-0.0005461229011416435,-0.0005997740663588047
1782812320148859400,0.763859375,-0.0005048504681326449,-0.0008847110439091921,0.0006995509611442685
1782812320168941600,0.783941650390625,0.000033152580726891756,0.000391240231692791,0.0012997067533433437
1782812320189024500,0.8040244140625,-0.0010524136014282703,-0.0007547659333795309,0.0012132239062339067
1782812320209106400,0.8241064453125,-0.0005627473583444953,0.00010800687596201897,0.0014372763689607382
1782812320229189400,0.844189453125,0.0002849461161531508,-0.0007791421376168728,-0.0016307837795466185
1782812320249271300,0.864271240234375,0.0025989417918026447,-0.00020538084208965302,0.0013832689728587866
1782812320269354200,0.884354248046875,-0.00022182609245646745,0.0004262351430952549,0.0007851796690374613
1782812320289436400,0.9044365234375,-0.0016171822790056467,-0.0002108914777636528,0.0007169463206082582
1782812320309519400,0.924519287109375,0.00005141409928910434,0.0008918321691453457,0.00010490999557077885
1782812320329601300,0.944601318359375,-0.0012524351477622986,-0.00018698163330554962,-0.0009603092912584543
1782812320349683200,0.96468310546875,0.0008576518739573658,-0.0005494728684425354,0.0007259722333401442
1782812320369766400,0.984766357421875,-0.000016520789358764887,0.000047499313950538635,-0.00021645333617925644
1782812320389848600,1.0048486328125,-0.0014398868661373854,-0.0007346197962760925,-0.0012199582997709513
1782812320409931500,1.024931640625,-0.0012057882267981768,0.00046522356569767,-0.00027780630625784397
1782812320430013400,1.045013427734375,-0.0013947687111794949,0.00009828107431530952,0.0003032395616173744
1782812320450096400,1.065096435546875,0.00002463959390297532,-0.00014251330867409706,0.0008491798071190715
1782812320470178300,1.08517822265625,-0.000347952067386359,0.0014646071940660477,-0.0001042576041072607
1782812320490261200,1.10526123046875,-0.0015513264806941152,0.000394653994590044,0.0016180546954274178
1782812320510343400,1.125343505859375,-0.00012823985889554024,-0.0009560675825923681,-0.0011411882005631924
1782812320530426600,1.145426513671875,-0.0011185593903064728,0.00014757690951228142,-0.0004695323295891285
1782812320550508500,1.165508544921875,-0.001035052351653576,0.00011057639494538307,0.00047995185013860464
1782812320570590500,1.185590576171875,-0.00021191881387494504,0.0005026375874876976,0.00010285736061632633
1782812320590673400,1.20567333984375,0.00037454941775649786,0.0008988045156002045,0.0004374964628368616
1782812320610755300,1.22575537109375,0.00006871443474665284,0.0007325997576117516,0.0010795271955430508
1782812320630838300,1.24583837890625,0.000572717166505754,-0.00044462247751653194,-0.0016826526261866093
1782812320650920400,1.26592041015625,-0.0008442966500297189,0.0008471617475152016,-0.00030734227038919926
1782812320671003400,1.28600341796875,0.0007578687509521842,-0.0006317920051515102,-0.0009915390983223915
1782812320691085300,1.306085205078125,-0.0005966961616650224,-0.0008159573189914227,-0.00048098666593432426
1782812320711168300,1.326168212890625,0.0005177569692023098,-0.00013058539479970932,-0.0009447394404560328
1782812320731250200,1.346250244140625,0.0003567615058273077,-0.001266453880816698,-0.0006068483926355839
1782812320751333400,1.36633349609375,-0.0008609024807810783,-0.0008530777413398027,-0.0001821091864258051
1782812320771415600,1.38641552734375,0.0010574394837021828,0.00019083544611930847,0.000010486925020813942
1782812320791497500,1.40649755859375,-0.00013537483755499125,0.00043218210339546204,-0.0011296356096863747
1782812320811580200,1.426580078125,-0.0006727930158376694,0.0001829364337027073,-0.0001511615701019764
1782812320831662000,1.446662109375,-0.0004139946249779314,-0.0007721125148236752,0.0000822325237095356
1782812320851745000,1.4667451171875,-0.00012002335279248655,0.0006342767737805843,-0.0021887512411922216
1782812320871827200,1.4868271484375,-0.0010299617424607277,0.0010409797541797161,0.001324404962360859
1782812320891910100,1.50691015625,-0.001166832516901195,0.000010291114449501038,-0.00006964430212974548
1782812320911992000,1.526991943359375,-0.001703423447906971,-0.0006328306626528502,-0.0003866506740450859
1782812320932075000,1.547074951171875,0.00020747390226460993,0.00036711525171995163,-0.00027710129506886005
1782812320952157000,1.567156982421875,-0.0008305334486067295,0.00024015409871935844,-0.0012708310969173908
1782812320972240100,1.587240234375,-0.0017221486195921898,-0.00018880702555179596,-0.0010234711226075888
1782812320992322300,1.607322265625,0.0009936699643731117,0.0010233335196971893,0.00041651970241218805
1782812321012404200,1.627404296875,-0.0007602700497955084,-0.0009383871220052242,-0.000509483739733696
1782812321032487200,1.647487060546875,0.0004409553366713226,-0.0006470342632383108,-0.0005270966794341803
1782812321052569000,1.667569091796875,-0.00038190933992154896,-0.0006567395757883787,0.0005198526196181774
1782812321072652000,1.687652099609375,0.00002002422115765512,-0.00005929870530962944,0.0005105163436383009
1782812321092734200,1.707734130859375,0.000442463846411556,0.0001406390219926834,-0.00032963184639811516
1782812321112817200,1.727817138671875,-0.00023475397028960288,-0.00041233492083847523,0.0006872279336676002
1782812321132899000,1.747899169921875,0.0011825896799564362,0.0005034315399825573,-0.0007295566610991955
1782812321152982300,1.767982177734375,-0.0008032030891627073,-0.0003254918847233057,-0.00022625643759965897
1782812321173064200,1.788064208984375,-0.00011487257143016905,-0.0006935105193406343,-0.0006110754329711199
1782812321193146000,1.80814599609375,-0.00038947182474657893,0.0008646841160953045,0.0011285125510767102
1782812321213229000,1.82822900390625,-0.001225881278514862,0.0010974626056849957,-0.0004422005731612444
1782812321233311200,1.848311279296875,0.00040530069964006543,0.00032904790714383125,-0.0013148807920515537
1782812321253394200,1.868394287109375,-0.0007897692266851664,0.00029084039852023125,-0.00006346707232296467
1782812321273476000,1.88847607421875,-0.00007552900933660567,-0.0004784548655152321,0.0007058600895106792
1782812321293559000,1.90855908203125,-0.0019316939869895577,0.0005857180804014206,-0.00039455387741327286
1782812321313641000,1.928640869140625,0.000014031160390004516,0.0003875838592648506,-0.000440455274656415
1782812321333724000,1.948723876953125,-0.0009313328191637993,0.0008143167942762375,0.0011349903652444482
1782812321353806000,1.96880615234375,-0.001311946427449584,-0.0012306885328143835,-0.0008320657070726156
1782812321373889300,1.98888916015625,-0.00011799937055911869,-0.0007214411161839962,0.00026518083177506924
1782812321393971200,2.00897119140625,-0.0006385609740391374,-0.00015661818906664848,0.0002755792811512947
1782812321414053000,2.02905322265625,0.0015197964385151863,0.0002637961879372597,0.0004560741363093257
1782812321434136000,2.049135986328125,-0.0007893955335021019,-0.0007479132618755102,-0.0007873375434428453
1782812321454218200,2.06921826171875,0.0015476734843105078,0.0008154758252203465,-0.0012493503745645285
1782812321474301200,2.08930126953125,-0.0008109454065561295,0.0015058815479278564,-0.0006367315072566271
1782812321494383000,2.109383056640625,-0.0008101350395008922,-0.00026005273684859276,-0.0007661317940801382
1782812321514466000,2.129466064453125,0.0008607131312601268,0.0008865050040185452,0.0005030613392591476
1782812321534548000,2.1495478515625,-0.0002478657988831401,0.0010745422914624214,0.000046259257942438126
1782812321554631200,2.169631103515625,0.0014340810012072325,-0.00027213525027036667,0.0009317260701209307
1782812321574713300,2.18971337890625,0.00018316000932827592,-0.00039111520163714886,0.0005549588240683079
1782812321594796300,2.20979638671875,0.0004123328544665128,0.0003453269600868225,-0.0010254033841192722
1782812321614878200,2.229878173828125,-0.0012403205037117004,-0.00012815836817026138,-0.0015541664324700832
1782812321634961200,2.249961181640625,-0.002158760093152523,0.00040558120235800743,-0.00014240993186831474
1782812321655043000,2.27004296875,0.000554534955881536,0.00048310961574316025,-0.0004206954035907984
1782812321675125200,2.290125244140625,0.0005678951274603605,-0.00015958817675709724,0.0005308894906193018
1782812321695208200,2.310208251953125,0.00019486098608467728,0.0014995881356298923,-0.00046723056584596634
1782812321715290000,2.3302900390625,-0.000627676781732589,-0.0000371723435819149,0.0009797678794711828
1782812321735373000,2.350373046875,-0.00020202947780489922,0.000596839003264904,-0.0005323325749486685
1782812321755455000,2.370455078125,0.000489296275191009,-0.00008478062227368355,0.00019644456915557384
1782812321775538200,2.3905380859375,0.00020698842126876116,-0.0005578147247433662,-0.0003454263787716627
1782812321795620000,2.4106201171875,0.0005720056360587478,0.00008544698357582092,-0.000565290916711092
1782812321815703300,2.430703369140625,-0.00026365951634943485,-0.00014824792742729187,-0.0005253830458968878
1782812321835785500,2.450785400390625,-0.0012036014813929796,0.0007375990971922874,0.0012503239559009671
1782812321855868400,2.470868408203125,0.000430544198025018,-0.0003807817120105028,-0.000019720755517482758
1782812321875950300,2.490950439453125,-0.0002466984442435205,0.0007813838310539722,0.0008360500214621425
1782812321896032300,2.5110322265625,-0.0005951244966126978,0.00015782518312335014,-0.00013895053416490555
1782812321916115200,2.531115234375,-0.00015437367255799472,0.00012827059254050255,-0.0013839034363627434
1782812321936197400,2.551197265625,-0.0006868275231681764,0.0004434743896126747,0.0004323142347857356
1782812321956280600,2.571280517578125,0.00005781532672699541,0.00008128257468342781,-0.0007010023109614849
1782812321976362500,2.591362548828125,0.0005649965023621917,-0.000018781982362270355,0.0004125760169699788
1782812321996445400,2.611445556640625,0.0007050764979794621,0.00035269884392619133,-0.00043459166772663593
1782812322016527400,2.63152734375,0.0005325283273123205,-0.0006200096104294062,-0.0005243602208793163
1782812322036610300,2.6516103515625,-0.00032857837504707277,0.00042619695886969566,-0.000166706508025527
1782812322056692500,2.6716923828125,0.00004990263551007956,0.0006970311515033245,0.0006398668047040701
1782812322076775400,2.691775390625,-0.0002725464873947203,-0.0015444261953234673,0.0006293418118730187
1782812322096857300,2.711857421875,0.0006557704182341695,-0.000789568992331624,0.0008136261021718383
1782812322116939300,2.731939208984375,-0.0000063369807321578264,0.000007152557373046875,-0.00015696906484663486
1782812322137022500,2.7520224609375,0.000367044354788959,0.0007727458141744137,-0.000850198557600379
1782812322157104400,2.7721044921875,0.0008074885117821395,-0.0003460492007434368,-0.0002025756984949112
1782812322177187300,2.792187255859375,-0.0011299841571599245,-0.00024422165006399155,0.0015414860099554062
1782812322197269500,2.81226953125,0.00041786860674619675,-0.00009471364319324493,0.0011065116850659251
1782812322217352400,2.8323525390625,-0.0004424097132869065,-0.0005417990032583475,-0.0003089501988142729
1782812322237434400,2.852434326171875,-0.00008006798452697694,-0.0006761567201465368,0.00010733655653893948
1782812322257517300,2.872517333984375,0.000015339552192017436,-0.00006656348705291748,0.00012508337385952473
1782812322277599200,2.89259912109375,-0.00002174366090912372,0.0007862341590225697,-0.0008766602259129286
1782812322297682200,2.91268212890625,-0.001292334753088653,0.0006707045249640942,0.0022211018949747086
1782812322317764400,2.932764404296875,0.0004080639046151191,-0.0006928821094334126,-0.000708982115611434
1782812322337847600,2.95284765625,-0.000046373213990591466,-0.0007037629839032888,0.00068298215046525
1782812322357929500,2.972929443359375,0.00068570242729038,-0.00013918336480855942,0.0005318331532180309
1782812322378011400,2.993011474609375,-0.0008366392576135695,-0.0008098618127405643,0.0005087080644443631
1782812322398094300,3.01309423828125,0.0022954419255256653,0.00014673080295324326,-0.00003469735383987427
1782812322418176500,3.033176513671875,-0.00018148653907701373,-0.0006513835396617651,0.00016274931840598583
1782812322438259500,3.053259521484375,0.0003233706811442971,-0.0014275242574512959,0.0006169541738927364
1782812322458341400,3.07334130859375,-0.0006428235210478306,0.0006589284166693687,-0.001657597254961729
1782812322478424300,3.09342431640625,-0.00034906293149106205,-0.00023732753470540047,-0.00026305834762752056
1782812322498506200,3.11350634765625,0.0008314764709211886,0.0010743453167378902,0.00003068684600293636
1782812322518589400,3.13358935546875,0.0015622663777321577,-0.00033853412605822086,0.0013528182171285152
1782812322538671600,3.153671630859375,-0.001670812489464879,0.000510429497808218,-0.00020735454745590687
1782812322558754600,3.173754638671875,-0.00014349831326398998,0.0005653146654367447,0.00006613880395889282
1782812322578836500,3.19383642578125,0.0002551348297856748,0.0013179248198866844,-0.00017417711205780506
1782812322598918400,3.21391845703125,0.0001305602927459404,0.00027239974588155746,-0.0002949051558971405
1782812322619001300,3.23400146484375,-0.0004324386245571077,-0.0006375981029123068,0.0000643592793494463
1782812322639083300,3.254083251953125,0.0014212405076250434,-0.00009720772504806519,-0.00015385006554424763
1782812322659166500,3.27416650390625,0.000943784776609391,-0.0008568614721298218,0.0002722828648984432
1782812322679248400,3.294248291015625,0.001807742053642869,-0.0004681008867919445,0.0008220846066251397
1782812322699331300,3.314331298828125,0.00040232838364318013,-0.0013764018658548594,-0.00050551095046103
1782812322719413200,3.334413330078125,-0.00012855762906838208,0.00028597190976142883,-0.0010205220896750689
1782812322739496400,3.354496337890625,-0.00019392650574445724,0.0009436658583581448,0.000813267077319324
1782812322759578400,3.374578369140625,-0.0009291264577768743,-0.00016019167378544807,0.0004933348391205072
1782812322779661300,3.394661376953125,0.0006584345828741789,-0.00016136374324560165,-0.0008936747908592224
1782812322799743500,3.414743408203125,0.00016092712758108974,0.0011522332206368446,-0.0007541640661656857
1782812322819824600,3.43482470703125,-0.0005372443702071905,0.0011917008087038994,0.0006890231743454933
1782812322839907600,3.454907470703125,-0.0006038008141331375,-0.00015431735664606094,-0.00043939752504229546
1782812322859989800,3.47498974609375,0.0005040043615736067,-0.0002635042183101177,0.000026088906452059746
1782812322880072700,3.49507275390625,0.0007699588895775378,-0.0003487751819193363,0.0007307534106075764
1782812322900154600,3.515154541015625,-0.000157593545736745,-0.00023340759798884392,0.0002480682451277971
1782812322920237600,3.535237548828125,0.000907743931747973,0.0002970476634800434,0.00022349925711750984
1782812322940319500,3.555319580078125,-0.00005162431625649333,-0.000058069825172424316,0.00039626029320061207
1782812322960402700,3.575402587890625,0.00018435268430039287,-0.00042543257586658,0.0007378422887995839
1782812322980484600,3.595484619140625,-0.0003550816618371755,-0.0003147185780107975,-0.00043101701885461807
1782812323000567600,3.615567626953125,0.000531353463884443,0.0004999539814889431,0.0001248412299901247
1782812323020649700,3.635649658203125,0.0001503041130490601,-0.0007138475775718689,0.00007115071639418602
1782812323040732700,3.655732666015625,-0.0006842745933681726,0.0007688635960221291,-0.0008395630866289139
1782812323060814600,3.675814697265625,0.00020567362662404776,-0.000886628171429038,0.00008961907587945461
1782812323080896500,3.695896484375,0.0012655950849875808,-0.0009506130591034889,-0.0004880612250417471
1782812323100979500,3.7159794921875,-0.0009594057337380946,0.0007314630784094334,0.0005614848341792822
1782812323121061600,3.7360615234375,-0.000205999705940485,0.00014831172302365303,0.000010542571544647217
1782812323141144800,3.756144775390625,-0.00048537575639784336,0.000876306090503931,-0.0001541979145258665
1782812323161226800,3.776226806640625,0.00045047543244436383,-0.00010652327910065651,-0.0009510032832622528
1782812323181309700,3.796309814453125,-0.0004873521684203297,-0.0006544401403516531,0.000738476519472897
1782812323201391600,3.8163916015625,-0.0007323852041736245,0.0007384112104773521,0.0009167640237137675
1782812323221474600,3.836474609375,0.0008280860492959619,0.0013391640968620777,0.0002718938048928976
1782812323241556700,3.856556640625,0.0011585396714508533,-0.0005549544002860785,-0.0005969281774014235
1782812323261639700,3.8766396484375,0.0009470501681789756,-0.00037950812838971615,0.00040961639024317265
1782812323281721600,3.8967216796875,-0.0008700825273990631,0.0006441180594265461,0.0012701716041192412
1782812323301803500,3.916803466796875,-0.0008729752153158188,-0.0013356648851186037,0.0005836999043822289
1782812323321886500,3.936886474609375,0.00034358969423919916,-0.00006354087963700294,-0.0006007307674735785
1782812323341968600,3.95696875,-0.00009891879017231986,-0.0010794945992529392,0.0005773596931248903
1782812323362051800,3.9770517578125,0.0007978228386491537,-0.00033736275508999825,0.0007789336377754807
1782812323382133800,3.9971337890625,-0.0008885135175660253,-0.0007100761868059635,-0.0021248823031783104
1782812323402216700,4.017216796875,-0.00008997664554044604,-0.0007569182198494673,0.0013496181927621365
1782812323422298600,4.037298583984375,-0.0005994650418870151,0.0007712822407484055,-0.00045086699537932873
1782812323442381600,4.057381591796875,0.0008719839388504624,0.00008378829807043076,-0.00013017398305237293
1782812323462463700,4.077463623046875,-0.0012297179782763124,-0.001135719008743763,0.0009053832618519664
1782812323482546700,4.097546630859375,-0.0021356153301894665,-0.0001188213936984539,0.00023278151638805866
1782812323502628600,4.117628662109375,-0.00022525322856381536,-0.0004156001377850771,-0.001226857304573059
1782812323522710500,4.13771044921875,-0.0011451615719124675,-0.00020310375839471817,0.00012330245226621628
1782812323542793700,4.157793701171875,0.0012207682011649013,-0.0008778863120824099,0.00015604030340909958
1782812323562875600,4.177875732421875,0.00028569588903337717,0.0005629519000649452,0.00008816435001790524
1782812323582958600,4.19795849609375,-0.0007267106557264924,-0.00037098489701747894,-0.0012848852202296257
1782812323603040800,4.218040771484375,0.0020291893742978573,-0.0002596941776573658,0.000827034586109221
1782812323623123700,4.238123779296875,0.0003664766263682395,0.0003504757769405842,0.001198289799503982
1782812323643205600,4.25820556640625,-0.0018367095617577434,-0.00014992058277130127,-0.0009017344564199448
1782812323663288600,4.27828857421875,0.0007882334757596254,0.0003289110027253628,-0.0013973633758723736
1782812323683370500,4.29837060546875,-0.0019431402906775475,-0.00010497588664293289,-0.0005972960498183966
1782812323703453400,4.318453369140625,-0.00021406974701676518,-0.0000453433021903038,0.00010957545600831509
1782812323723535600,4.33853564453125,0.0004528482095338404,0.0008005998097360134,-0.001073705730959773
1782812323743618800,4.358618896484375,0.0010428465902805328,0.0016036974266171455,0.0005197924328967929
1782812323763700700,4.37870068359375,0.0010261883726343513,-0.0005637160502374172,0.0014456170611083508
1782812323783782700,4.39878271484375,0.0005970878410153091,0.0004875962622463703,0.0007512884913012385
1782812323803865600,4.418865478515625,0.0005369898863136768,0.0008049882017076015,-0.00009162514470517635
1782812323823948000,4.438947998046875,-0.0007394945132546127,-0.0002486472949385643,-0.00021550804376602173
1782812323844031000,4.459031005859375,0.0018209517002105713,-0.0009171853307634592,0.00021937908604741096
1782812323864113200,4.479113037109375,-0.0009340556571260095,-0.0009964206255972385,0.00019578333012759686
1782812323884196000,4.499196044921875,0.0005971631035208702,0.000400397926568985,-0.0001497967168688774
1782812323904278000,4.519278076171875,0.00025643856497481465,-0.001445699017494917,-0.0006631605792790651
1782812323924361200,4.539361328125,-0.00032064918195828795,0.00010255910456180573,0.000049623893573880196
1782812323944443100,4.559443115234375,-0.000004679590347222984,0.0007089469581842422,-0.00018295273184776306
1782812323964526000,4.579526123046875,-0.001492006704211235,-0.0012064664624631405,-0.001144350040704012
1782812323984608300,4.599608154296875,0.0006784371798858047,-0.0006240985821932554,-0.0006788980681449175
1782812324004691200,4.619691162109375,0.00011227813956793398,-0.0007285967003554106,-0.0005254633724689484
1782812324024773000,4.639773193359375,0.0002525000600144267,-0.0002374914474785328,0.0010793862165883183
1782812324044856000,4.65985595703125,0.00017517627566121519,-0.0003474755212664604,0.0003144752699881792
1782812324064938000,4.67993798828125,0.00017074529023375362,0.00021806173026561737,0.000649857334792614
1782812324085021000,4.70002099609375,-0.0003402958682272583,-0.0006482712924480438,-0.00038930773735046387
1782812324105103000,4.72010302734375,0.0007608870510011911,-0.00023989146575331688,0.0007413743296638131
1782812324125185300,4.740185302734375,0.00031449622474610806,-0.0002514687366783619,-0.00020626862533390522
1782812324145268200,4.760268310546875,0.00005435096682049334,-0.00004995614290237427,0.00028643105179071426
1782812324165350100,4.78035009765625,-0.0003874929971061647,0.0004431246779859066,0.00003230920992791653
1782812324185433000,4.80043310546875,0.001995684811845422,0.00041307276114821434,-0.0003094780258834362
1782812324205515300,4.820515380859375,0.00030928096384741366,0.0005646757781505585,-0.00005528377369046211
1782812324225598200,4.84059814453125,-0.00025958134210668504,0.0005317805334925652,-0.0008421486709266901
1782812324245680000,4.86068017578125,-0.0010740001453086734,-0.0009027644991874695,-0.00010359683074057102
1782812324265763000,4.88076318359375,0.0004457787435967475,-0.00039685750380158424,0.00024695531465113163
1782812324285845000,4.900844970703125,0.0018339173402637243,0.0001643383875489235,0.0014645465416833758
1782812324305928200,4.92092822265625,-0.0009040836011990905,-0.000894536729902029,0.0006157071329653263
1782812324326010000,4.941010009765625,-0.00025799378636293113,0.0011115381494164467,-0.0000661702360957861
1782812324346093000,4.961093017578125,-0.000714339897967875,-0.0005227383226156235,-0.0005547062028199434
1782812324366175200,4.98117529296875,-0.0002965541207231581,0.00001360289752483368,0.000008977716788649559
1782812324386258200,5.001258056640625,0.00043070322135463357,-0.0011333790607750416,-0.0008280263282358646
1782812324406340000,5.021340087890625,0.0008859075605869293,-0.000023385044187307358,0.00032036867924034595
1782812324426423000,5.041423095703125,0.00027193271671421826,-0.0006142270285636187,-0.00017187325283885002
1782812324446505000,5.0615048828125,0.00010733846283983439,0.0010393285192549229,0.0002263546921312809
1782812324466587100,5.081587158203125,-0.00008209275256376714,-0.00008701346814632416,-0.00008414359763264656
1782812324486670000,5.101670166015625,0.00004098725912626833,-0.0001045367680490017,0.0010805063648149371
1782812324506752300,5.121752197265625,-0.000003562454367056489,0.0006903796456754208,-0.00011299457401037216
1782812324526835200,5.141835205078125,0.002285266062244773,-0.0014747071545571089,0.0018141183536499739
1782812324546917000,5.161917236328125,0.0009140971233136952,0.0005246344953775406,-0.0007045150268822908
1782812324567000000,5.182,0.0006320617394521832,-0.00008245790377259254,-0.0008195887785404921
1782812324587082200,5.202082275390625,-0.0001529408764326945,0.001237594522535801,-0.00018899748101830482
1782812324607165200,5.222165283203125,0.00038942816900089383,0.000694530550390482,0.00019858591258525848
1782812324627247000,5.2422470703125,-0.00008108226029435173,0.00031053274869918823,-0.0010589524172246456
1782812324647330000,5.262330078125,-0.0006672446615993977,0.00021185213699936867,0.0006768155144527555
1782812324667412000,5.282411865234375,0.0004820495378226042,0.00031498679891228676,-0.00011805328540503979
1782812324687494100,5.302494140625,-0.002179918112233281,0.0017413469031453133,0.0018597925081849098
1782812324707577300,5.322577392578125,0.0002425727725494653,-0.0009133194107562304,-0.0010376048739999533
1782812324727659300,5.3426591796875,0.000650975329335779,-0.0014724996872246265,0.0007114732870832086
1782812324747742200,5.3627421875,0.0002265381335746497,-0.0006737157236784697,0.0004514377797022462
1782812324767824100,5.38282421875,0.0001958954380825162,-0.0005196444690227509,-0.0010203288402408361
1782812324787907000,5.402906982421875,-0.000045327600673772395,0.0015175859443843365,-0.0003385581076145172
1782812324807988500,5.422988525390625,-0.0004349648952484131,0.00018869386985898018,0.0015961909666657448
1782812324828071400,5.443071533203125,0.00024610498803667724,0.0012089917436242104,0.0011350886197760701
1782812324848153300,5.4631533203125,-0.0010309870122000575,-0.0006343908607959747,-0.0007651459891349077
1782812324868235300,5.4832353515625,0.0009526198264211416,0.0006607053801417351,0.0006993133574724197
1782812324888318200,5.503318115234375,0.000520430039614439,-0.0006510221865028143,-0.0004504246171563864
1782812324908400400,5.523400390625,-0.00017959263641387224,0.0005650259554386139,0.0004964334657415748
1782812324928483600,5.543483642578125,0.00007191153417807072,0.0005120863206684589,0.00021924078464508057
1782812324948565500,5.5635654296875,-0.000018123835616279393,0.0003482191823422909,-0.0004367572255432606
1782812324968648400,5.5836484375,-0.0005125278839841485,-0.00021239183843135834,-0.0005553676746785641
1782812324988730400,5.60373046875,-0.0003122497582808137,0.0001140139065682888,-0.0002907887101173401
1782812325008813300,5.623813232421875,0.0006652347510680556,-0.0016185075510293245,-0.000002244720235466957
1782812325028895500,5.6438955078125,-0.000014348363038152456,0.0014145500026643276,-0.0007369250524789095
1782812325048977400,5.663977294921875,-0.0002977949334308505,-0.0007144140545278788,-0.0004715723916888237
1782812325069060400,5.684060302734375,0.00042741550714708865,-0.0005260293837636709,0.00045179761946201324
1782812325089143300,5.704143310546875,-0.0005782144144177437,-0.0012329542078077793,0.00012456299737095833
1782812325109225200,5.72422509765625,0.0005032730405218899,0.0005624988116323948,-0.0002736554015427828
1782812325129308400,5.744308349609375,0.0003776494995690882,0.0007834285497665405,-0.0013107566628605127
1782812325149390300,5.764390380859375,0.0014574103988707066,0.0003934483975172043,-0.0000704906415194273
1782812325169473500,5.7844736328125,-0.00045765077811665833,-0.00044562085531651974,-0.00038758781738579273
1782812325189555500,5.804555419921875,0.0007005964289419353,-0.0005826475098729134,0.0011060594115406275
1782812325209637400,5.824637451171875,0.00004516482295002788,0.0009221285581588745,-0.00008647330105304718
1782812325229720300,5.84472021484375,0.0011474161874502897,-0.0009272550232708454,0.0015680798096582294
1782812325249802200,5.86480224609375,-0.00020752297132275999,-0.0000020791776478290558,0.00003307010047137737
1782812325269885200,5.88488525390625,0.00016983530076686293,0.0004927706904709339,-0.0009521320462226868
1782812325289967400,5.90496728515625,-0.00044296012492850423,-0.000822319881990552,-0.001344212330877781
1782812325310050600,5.925050537109375,0.0007697113323956728,-0.00009064096957445145,0.000408354913815856
1782812325330132500,5.945132568359375,-0.0005644304910674691,-0.0002730835694819689,-0.0009722583927214146
1782812325350215400,5.96521533203125,0.000637053744867444,0.0010907049290835857,-0.0017458111979067326
1782812325370297300,5.98529736328125,0.0000029978546081110835,-0.0004705882165580988,0.0013244490837678313
1782812325390380300,6.00538037109375,0.0002082005812553689,0.0005585704930126667,0.00028689554892480373
1782812325410462500,6.02546240234375,-0.0011099788825958967,-0.000005764421075582504,0.0016795566771179438
1782812325430544400,6.04554443359375,-0.0005318260518833995,0.0003322567790746689,0.0002306362148374319
1782812325450627300,6.06562744140625,0.0009584042127244174,0.00028201937675476074,0.000521437730640173
1782812325470709200,6.085709228515625,0.0003104803035967052,-0.00025385990738868713,-0.0010776522103697062
1782812325490792200,6.105792236328125,0.0012016695691272616,-0.0002822880633175373,-0.0008200791198760271
1782812325510874400,6.125874267578125,0.0011265622451901436,-0.000032481271773576736,-0.0008039267268031836
1782812325530957600,6.14595751953125,0.00003560769255273044,-0.0009745780844241381,0.00024166074581444263
1782812325551039500,6.16603955078125,-0.0007930362480692565,0.00045635970309376717,-0.0005812624003738165
1782812325571122400,6.186122314453125,0.0005142815643921494,0.000047616660594940186,0.0005118800327181816
1782812325591204400,6.206204345703125,-0.0000766526791267097,-0.00004349229857325554,0.0002800500951707363
1782812325611287300,6.226287353515625,-0.0011547651374712586,-0.0003832867369055748,-0.0004338100552558899
1782812325631369500,6.246369384765625,-0.00025297512183897197,-0.00015270011499524117,0.001592310261912644
1782812325651452400,6.266452392578125,0.00032598228426650167,0.00025050994008779526,0.000916879391297698
1782812325671534300,6.286534423828125,-0.0014562407741323113,0.0004508211277425289,-0.0005907237064093351
1782812325691616300,6.3066162109375,-0.0002196253335569054,0.0005409298464655876,0.0016177650541067123
1782812325711699500,6.326699462890625,0.00003562864731065929,-0.0002823481336236,0.0003266138955950737
1782812325731781400,6.346781494140625,0.0003152286517433822,-0.0008334903977811337,-0.0002865518908947706
1782812325751864300,6.3668642578125,-0.0000015727709978818893,-0.0016882559284567833,0.0016752538504078984
1782812325771946500,6.386946533203125,-0.00016412090917583555,-0.000373288057744503,-0.00042752944864332676
1782812325792029400,6.407029541015625,-0.00140003627166152,-0.000617992365732789,-0.00007840851321816444
1782812325812111600,6.427111572265625,-0.0005327658145688474,-0.000917796278372407,-0.00002326071262359619
1782812325832194600,6.447194580078125,0.00019549045828171074,-0.0007746613118797541,0.001986113376915455
1782812325852276500,6.4672763671875,0.001223082421347499,-0.00012832460924983025,-0.0018139886669814587
1782812325872359700,6.487359619140625,0.00020163320004940033,0.0001263790763914585,-0.001024946803227067
1782812325892441900,6.50744189453125,0.0007721911533735693,-0.00006886804476380348,-0.0005963821895420551
1782812325912524800,6.52752490234375,-0.000737526104785502,0.0007113860920071602,0.00016122055239975452
1782812325932606700,6.547606689453125,-0.0006358217797242105,-0.0011023851111531258,0.00019404571503400803
1782812325952689700,6.567689697265625,-0.000752187566831708,-0.001309284009039402,-0.0010087897535413504
1782812325972771600,6.587771484375,0.0003214951721020043,-0.00018005119636654854,0.00014602066949009895
1782812325992853800,6.607853759765625,-0.0005512445350177586,-0.0006936157587915659,-0.0003003880847245455
1782812326012936700,6.627936767578125,0.00042525434400886297,0.00028182659298181534,0.0011056291405111551
1782812326033018600,6.6480185546875,0.0006935552810318768,0.0005908901803195477,0.0005342714721336961
1782812326053101600,6.6681015625,-0.0011504155118018389,0.0006042211316525936,0.00033449428156018257
1782812326073183500,6.68818359375,-0.0006877187988720834,0.0017000283114612103,0.00007843039929866791
1782812326093266700,6.7082666015625,-0.0005059028626419604,0.0001825406216084957,0.00038758222945034504
1782812326113348600,6.7283486328125,0.0009523584158159792,-0.0004287285264581442,-0.0004536497872322798
1782812326133431600,6.748431640625,0.0004883711226284504,-0.0005204211920499802,0.0004209098406136036
1782812326153513700,6.768513671875,0.0004121662932448089,0.00041882554069161415,0.0007602480472996831
1782812326173596700,6.7885966796875,0.00006397294055204839,0.00008964119479060173,0.000833134981803596
1782812326193678600,6.8086787109375,-0.0014225473860278726,-0.000104549340903759,-0.0007328612264245749
1782812326213761500,6.828761474609375,0.00040479234303347766,-0.0005830591544508934,0.0006006206385791302
1782812326233843500,6.848843505859375,-0.0003668030840344727,0.00006529176607728004,0.000686997314915061
1782812326253926700,6.8689267578125,-0.00045652594417333603,0.0014259889721870422,-0.00008241343311965466
1782812326274008800,6.8890087890625,-0.00012769471504725516,0.00042679207399487495,0.00014928285963833332
1782812326294091800,6.909091796875,0.0011084843426942825,0.0007061166688799858,-0.0008321653585880995
1782812326314173700,6.929173583984375,0.0014379555359482765,0.001245979219675064,-0.0005491964984685183
1782812326334255600,6.949255615234375,-0.00016178376972675323,-0.00028124917298555374,0.00035559781827032566
1782812326354338600,6.969338623046875,-0.0003620119532570243,-0.0005256757140159607,-0.0002841574605554342
1782812326374420700,6.989420654296875,-0.00025409937370568514,0.00041513098403811455,0.0009350208565592766
1782812326394503700,7.009503662109375,-0.0012171315029263496,0.0005709780380129814,0.00023087160661816597
1782812326414585600,7.029585693359375,0.000010885385563597083,0.0008577336557209492,0.0002814244944602251
1782812326434668500,7.04966845703125,-0.0003772017953451723,0.0006710332818329334,0.0002637582365423441
1782812326454750500,7.06975048828125,-0.0006033587851561606,-0.0001516435295343399,0.0008740713819861412
1782812326474833700,7.089833740234375,0.000542080553714186,-0.0013837055303156376,0.0004169880412518978
1782812326494915800,7.109915771484375,0.0009488783543929458,0.0008874284103512764,-0.0005698897875845432
1782812326514998800,7.129998779296875,0.0015260785585269332,-0.0007823999039828777,0.00021204818040132523
1782812326535080700,7.150080810546875,0.00023465833510272205,-0.0005655111744999886,-0.0004166639409959316
1782812326555163600,7.17016357421875,0.0009841900318861008,-0.00017065182328224182,0.00045335455797612667
1782812326575245600,7.19024560546875,0.0004730164655484259,0.0004366454668343067,-0.00046337908133864403
1782812326595328500,7.21032861328125,0.00033420504769310355,0.0004591173492372036,0.0004063439555466175
1782812326615410700,7.23041064453125,0.000059026991948485374,-0.00011251983232796192,0.00006692809984087944
1782812326635492600,7.25049267578125,-0.00024116330314427614,-0.0007549736183136702,-0.00044630514457821846
1782812326655575800,7.270575927734375,0.0007805356872268021,0.000012514181435108185,-0.0007470468990504742
1782812326675657700,7.29065771484375,-0.0010580127127468586,0.0007059820927679539,-0.0004910698626190424
1782812326695740700,7.31074072265625,-0.00007142209506127983,-0.001904402393847704,0.00006014062091708183
1782812326715822600,7.330822509765625,-0.00040274416096508503,0.000024572014808654785,-0.001456068828701973
1782812326735905500,7.350905517578125,0.00025233131600543857,-0.000344577943906188,-0.0007130722515285015
1782812326755987700,7.37098779296875,0.0006659219507128,0.0013742302544414997,0.001123474445194006
1782812326776070700,7.391070556640625,-0.00248752161860466,-0.00001443270593881607,0.00012220931239426136
1782812326796152600,7.411152587890625,0.001002972712740302,0.00018079718574881554,-0.0005925351288169622
1782812326816235000,7.431235107421875,0.000572743418160826,0.000057149678468704224,0.0001948564313352108
1782812326836318200,7.451318115234375,-0.001357808243483305,0.0009771757759153843,0.0007767806528136134
1782812326856400100,7.471400146484375,-0.0008973389049060643,-0.000742193078622222,-0.00044970796443521976
1782812326876483300,7.4914833984375,0.00018438906408846378,0.00012078182771801949,0.00022964016534388065
1782812326896565200,7.511565185546875,0.00024283386301249266,-0.0002952923532575369,-0.0008907062001526356
1782812326916648200,7.531648193359375,-0.0008963104337453842,0.0015606754459440708,0.0001053791493177414
1782812326936730000,7.551730224609375,0.0005741011700592935,-0.0003560604527592659,-0.0004224611911922693
1782812326956813000,7.57181298828125,-0.00009733431943459436,0.0005867625586688519,0.0008410786977037787
1782812326976895000,7.59189501953125,0.0006696432246826589,0.0007357336580753326,-0.0004111099988222122
1782812326996978200,7.611978271484375,0.0013592055765911937,-0.000033723656088113785,0.0013469007099047303
1782812327017060400,7.632060302734375,-0.0010088179260492325,0.0003820224665105343,-0.00028710602782666683
1782812327037142300,7.652142333984375,0.0021647734101861715,-0.0002604189794510603,-0.000044882530346512794
1782812327057225200,7.67222509765625,-0.0005688934470526874,-0.00039122975431382656,0.0009596982272341847
1782812327077307100,7.69230712890625,0.0018039210699498653,0.0002552708610892296,0.0013610613532364368
1782812327097390000,7.71239013671875,-0.00035913451574742794,-0.0005335861351341009,-0.0009427783079445362
1782812327117472300,7.73247216796875,0.00018129181989934295,-0.00040229782462120056,-0.000021070241928100586
1782812327137555200,7.75255517578125,-0.0001637489185668528,-0.0004096801858395338,-0.0004750953521579504
1782812327157637000,7.77263720703125,-0.0022533941082656384,0.0002199159935116768,-0.0010769495274871588
1782812327177720000,7.792719970703125,-0.00038128168671391904,-0.000010236166417598724,0.00018609385006129742
1782812327197802000,7.812802001953125,-0.0005438152002170682,-0.0010187635198235512,-0.0006427573971450329
1782812327217884200,7.83288427734375,-0.0014133191434666514,0.00048317527398467064,0.0005188251379877329
1782812327237967400,7.85296728515625,0.0001242726866621524,0.000904544722288847,0.0009904797188937664
1782812327258049300,7.87304931640625,-0.00042837735963985324,0.00006902450695633888,-0.0000225782860070467
1782812327278132200,7.89313232421875,-0.000716088805347681,0.00027325842529535294,0.00022775051183998585
1782812327298214100,7.913214111328125,-0.000008024973794817924,-0.0003148664254695177,0.000049856025725603104
1782812327318297000,7.933297119140625,0.00022571475710719824,-0.0006279074586927891,0.00021457113325595856
1782812327338379300,7.953379150390625,-0.00009745811257744208,-0.0012464195024222136,0.00066500308457762
1782812327358462200,7.973462158203125,0.00033408618764951825,-0.0002896655350923538,0.0019473140127956867
1782812327378544000,7.993544189453125,-0.0002725555095821619,0.0009258617646992207,0.0006123690400272608
1782812327398626000,8.0136259765625,0.0005738022737205029,-0.0006115925498306751,0.0001048592384904623
1782812327418709200,8.033709228515624,0.0001678263652138412,0.0005595218390226364,0.0010847956873476505
1782812327438791200,8.053791259765624,-0.000013416109140962362,-0.0003509859088808298,0.0013952595181763172
1782812327458874000,8.0738740234375,-0.0010574616026133299,-0.0001794537529349327,0.00016787485219538212
1782812327478956300,8.093956298828125,0.0007710054633207619,0.0004555205814540386,0.00029783532954752445
1782812327499039200,8.114039306640626,0.0005474616191349924,0.0002716486342251301,-0.00010744179598987103
1782812327519121200,8.13412109375,-0.0002232719853054732,0.00042859092354774475,-0.0013501141220331192
1782812327539204000,8.1542041015625,-0.0007431230042129755,-0.0009771515615284443,-0.0005549304187297821
1782812327559286000,8.1742861328125,0.00024767767172306776,-0.0010630241595208645,-0.00062975799664855
1782812327579368200,8.1943681640625,-0.001131017692387104,-0.00021123839542269707,0.0016747725894674659
1782812327599451100,8.214451171875,-0.0007995479973033071,0.0007147169671952724,0.00010018609464168549
1782812327619533000,8.234532958984374,-0.0018538129515945911,-0.0004883890505880117,-0.0005861313547939062
1782812327639616300,8.2546162109375,0.0005520405247807503,-0.0008947153110057116,0.0023233129177242517
1782812327659698200,8.2746982421875,0.0006744613638147712,-0.000470378203317523,-0.0011113854125142097
1782812327679781000,8.294781005859376,-0.00016829627566039562,0.0014219442382454872,0.00012531294487416744
1782812327699863300,8.31486328125,0.00017628488421905786,-0.0008900398388504982,0.00025225826539099216
1782812327719946200,8.3349462890625,0.0004893058212473989,-0.00012592971324920654,-0.00023873522877693176
1782812327740028200,8.355028076171875,-0.001099355984479189,0.00011359434574842453,0.0002556620165705681
1782812327760111000,8.375111083984375,0.0010543445823714137,0.0007192054763436317,-0.00088531244546175
1782812327780193000,8.395193115234376,0.0008718849276192486,-0.000723719596862793,-0.0004926072433590889
1782812327800275200,8.415275146484374,-0.0006077656289562583,0.00008057290688157082,-0.0009663936216384172
1782812327820358400,8.4353583984375,0.000008186674676835537,0.0003047422505915165,0.0007450092816725373
1782812327840440300,8.4554404296875,0.0008518996182829142,-0.0002359817735850811,-0.0003497644793242216
1782812327860523300,8.475523193359376,-0.0008729902328923345,0.0006695985794067383,0.0014659727457910776
1782812327880605200,8.495605224609376,0.0006932794931344688,-0.0004954899195581675,-0.0009084483608603477
1782812327900688100,8.515688232421875,-0.0007761673186905682,-0.0007220988627523184,0.00042837404180318117
1782812327920770000,8.53577001953125,-0.000490950420498848,0.0002879383973777294,0.0005175743717700243
1782812327940852200,8.555852294921875,-0.0006574469734914601,0.00043405545875430107,0.0017402113880962133
1782812327960935400,8.575935302734376,-0.0010287973564118147,0.0008005239069461823,-0.0018045215401798487
1782812327981017300,8.596017333984374,0.0010497237090021372,0.0005055107176303864,0.0010571327293291688
1782812328001100300,8.616100341796875,-0.0007538956124335527,0.0016291365027427673,-0.0006413229275494814
1782812328021182200,8.63618212890625,0.00028332683723419905,0.000437246635556221,-0.00022754957899451256
1782812328041265200,8.65626513671875,0.00027174968272447586,-0.0003860779106616974,-0.0005150493234395981
1782812328061347300,8.676347412109376,0.0009727728902362287,-0.00041850004345178604,-0.000056952936574816704
1782812328081430300,8.69643017578125,-0.0001655333035159856,-0.0009003134910017252,0.00001490139402449131
1782812328101512200,8.71651220703125,0.0007595710339955986,0.00013845739886164665,0.0009252035524696112
1782812328121595100,8.73659521484375,0.00042568426579236984,0.0009106523357331753,-0.00018963729962706566
1782812328141677000,8.756677001953125,0.00011246335634496063,0.00018482189625501633,0.0010880919871851802
1782812328161759500,8.776759521484376,-0.00014575524255633354,0.0008589294739067554,-0.00032394006848335266
1782812328181842400,8.796842529296875,-0.0006813070503994823,0.0010441183112561703,0.001213663606904447
1782812328201924400,8.81692431640625,0.00016907024837564677,-0.0018244325183331966,-0.00044267461635172367
1782812328222007300,8.83700732421875,-0.0017404388636350632,0.000446537509560585,-0.00032939319498836994
1782812328242089200,8.857089111328126,-0.0007196662481874228,0.001640446949750185,-0.0004962338134646416
1782812328262172200,8.877172119140624,0.0006008303025737405,0.0005303998477756977,-0.0001280719880014658
1782812328282254300,8.89725439453125,-0.0015142387710511684,0.00004821084439754486,0.0007049695122987032
1782812328302337300,8.917337158203125,0.0007371287792921066,0.0008185943588614464,-0.001210370333865285
1782812328322419200,8.937419189453125,0.0007245925953611732,-0.0006382493302226067,-0.0003551649861037731
1782812328342502400,8.95750244140625,0.0004964403924532235,0.0005691996775567532,0.00002282741479575634
1782812328362584300,8.977584228515624,-0.00016919698100537062,-0.0005965768359601498,-0.0010816932190209627
1782812328382666200,8.997666259765625,0.0011108823819085956,0.0006154472939670086,0.000870641553774476
1782812328402749200,9.017749267578125,-0.00014122370339464396,0.0005964869633316994,0.00006478722207248211
1782812328422831400,9.037831298828126,-0.0007471194257959723,-0.0006870522629469633,0.0010115165496245027
1782812328442914300,9.057914306640624,0.00016418268205597997,0.0008581769652664661,-0.00047653517685830593
1782812328462996200,9.077996337890625,-0.00040025264024734497,0.0007347920909523964,0.0006149079417809844
1782812328483079200,9.0980791015625,-0.0009103144402615726,0.0009672627784311771,0.0009127442026510835
1782812328503161000,9.1181611328125,-0.00016222048725467175,-0.0006796836387366056,0.0008668219670653343
1782812328523244000,9.138244140625,-0.00034641538513824344,-0.0002798391506075859,-0.0010123932734131813
1782812328543326500,9.158326416015624,0.00022219766105990857,-0.0006865740288048983,0.0001782854087650776
1782812328563409400,9.178409423828125,-0.0008415393531322479,0.0005575492978096008,0.0008844282710924745
1782812328583491300,9.1984912109375,-0.0005804582615382969,-0.0015430445782840252,0.0007718373090028763
1782812328603573200,9.2185732421875,0.0005490696057677269,-0.00039115198887884617,-0.0003710465971380472
1782812328623656200,9.23865625,-0.0005130140343680978,-0.0004176052752882242,0.0014547430910170078
1782812328643738400,9.25873828125,-0.0009522404288873076,-0.001054869731888175,-0.00005925772711634636
1782812328663821300,9.2788212890625,0.0011808407725766301,-0.000224315095692873,-0.0001629756297916174
1782812328683903200,9.2989033203125,-0.0005809954600408673,-0.0007166019640862942,-0.0012077761348336935
1782812328703985200,9.318985107421875,-0.00012053491082042456,-0.000040691811591386795,0.0018055905820801854
1782812328724695300,9.3396953125,0.001042954041622579,0.000180188100785017,-0.0006603659130632877
1782812328744777200,9.359777099609374,0.000836334191262722,-0.0010225442238152027,-0.00027584517374634743
1782812328764860200,9.379860107421875,-0.000021824133000336587,0.00032616639509797096,0.0008030075114220381
1782812328784942000,9.399942138671875,-0.0012920652516186237,-0.0004650130867958069,-0.0003155199810862541
1782812328805025300,9.420025390625,-0.0007452344289049506,-0.0013177639339119196,-0.00019303569570183754
1782812328825107200,9.440107177734374,-0.0000988745887298137,-0.0000919438898563385,0.0008888053707778454
1782812328845190100,9.460190185546875,0.001193522592075169,-0.0006267589051276445,-0.0007036423776298761
1782812328865272000,9.48027197265625,0.0008491371991112828,-0.00018983939662575722,-0.0011068794410675764
1782812328885355000,9.50035498046875,-0.0002805752446874976,0.00005547422915697098,0.001295233378186822
1782812328905437000,9.52043701171875,-0.00020322082855273038,0.0001974068582057953,0.0007396477740257978
1782812328925519000,9.54051904296875,0.000669357948936522,-0.0005388390272855759,0.0004450100241228938
1782812328945602000,9.56060205078125,-0.00013399521412793547,0.0003503747284412384,0.000002791639417409897
1782812328965684000,9.58068408203125,0.00040622666710987687,0.0015527866780757904,-0.0003681581001728773
1782812328985767200,9.60076708984375,-0.0004208350437693298,-0.0005538074765354395,0.001462635351344943
1782812329005849000,9.62084912109375,0.000028984155505895615,0.0007586805149912834,-0.00046484428457915783
1782812329025932000,9.64093212890625,-0.0011736019514501095,0.0007984205149114132,0.00014385860413312912
1782812329046014000,9.661013916015625,0.0003616281901486218,0.0021697748452425003,0.0020033884793519974
1782812329065470000,9.680469970703125,-0.00045287981629371643,0.0005810083821415901,-0.0018256425391882658
1782812329085551900,9.7005517578125,0.0009441447909921408,-0.0011352784931659698,-0.0011096000671386719
1782812329105635000,9.720635009765624,-0.0020932252518832684,0.00017206277698278427,0.00022232881747186184
1782812329125717200,9.74071728515625,0.00024170754477381706,0.0005647037178277969,-0.0008152597583830357
1782812329145800200,9.76080029296875,0.0014071394689381123,0.0008054622448980808,0.00018653995357453823
1782812329165882000,9.780882080078126,0.00005695910658687353,0.00044832099229097366,0.0004945805994793773
1782812329185965000,9.800965087890624,-0.0005749691044911742,-0.0002451320178806782,-0.00036296620965003967
1782812329206047000,9.821046875,0.0006992024136707187,0.0009791073389351368,0.0006867451593279839
1782812329226130000,9.8411298828125,0.0002266351948492229,-0.00024396274238824844,0.0007411717670038342
1782812329246212000,9.861212158203125,-0.0005552463117055595,0.0005497746169567108,-0.0003666661214083433
1782812329266295000,9.881294921875,0.00015226477989926934,-0.000739645678550005,-0.000034726690500974655
1782812329286377000,9.901376953125,0.00033598486334085464,-0.0011377583723515272,-0.001928768353536725
1782812329306460200,9.921460205078125,-0.0013493986334651709,-0.0005301549099385738,0.0009322942933067679
1782812329326542000,9.9415419921875,-0.001538216369226575,-0.00007701059803366661,0.0002896403893828392
1782812329346624300,9.961624267578125,-0.0017028932925313711,0.0009121168404817581,-0.00008922256529331207
1782812329366707200,9.981707275390624,-0.00020493913325481117,0.0005429256707429886,-0.0006446146871894598
1782812329386789000,10.0017890625,0.0007278912235051394,-0.0003344058059155941,0.00019993283785879612
1782812329406872000,10.0218720703125,-0.0007841301849111915,0.0007823463529348373,-0.0004991604946553707
1782812329426954000,10.0419541015625,0.00132020004093647,-0.00030114431865513325,0.0008667381480336189
1782812329447037000,10.062036865234376,-0.00020565747399814427,-0.000681558158248663,0.00033903634175658226
1782812329467119000,10.082119140625,-0.0000783391878940165,-0.0009830466005951166,0.00038119032979011536
1782812329487202000,10.1022021484375,0.0006953274714760482,0.001294674351811409,-0.000996207818388939
1782812329507284200,10.1222841796875,-0.0015744393458589911,0.0011711539700627327,-0.00013058981858193874
1782812329527367200,10.1423671875,-0.0001914257009048015,0.0012993533164262772,-0.0012487347703427076
1782812329547449000,10.162448974609376,0.0015248252311721444,0.0006292304024100304,0.00037441961467266083
1782812329567532000,10.182531982421875,0.000007355964044108987,-0.00028154999017715454,0.001475351513363421
1782812329587614000,10.202614013671875,0.0006962282350286841,-0.0008456686045974493,-0.0004950398579239845
1782812329607697000,10.22269677734375,0.0008894436177797616,0.002316542435437441,0.0004206560552120209
1782812329627779000,10.242779052734376,0.0007395307184197009,0.0007839379832148552,-0.0003988028038293123
1782812329647862000,10.262862060546874,0.0011549768969416618,-0.00007391953840851784,0.0003637532936409116
1782812329667944000,10.28294384765625,-0.0012153824791312218,-0.0004997076466679573,0.00011190632358193398
1782812329688025900,10.30302587890625,-0.00024792601470835507,-0.0005974199157208204,0.0009450289653614163
1782812329708109000,10.323109130859375,0.00014945963630452752,0.0021720300428569317,0.0005555250681936741
1782812329728191200,10.343191162109376,-0.0008362257503904402,0.0007424666546285152,-0.0002868412993848324
1782812329748274200,10.363274169921874,0.0006792054045945406,0.0004293108358979225,-0.0014832157175987959
1782812329768356000,10.383356201171875,-0.0014756573364138603,0.07533591240644455,0.02282707765698433
1782812329788439000,10.40343896484375,0.00022878989693708718,-0.018569238483905792,-0.00685260770842433
1782812329808521000,10.42352099609375,0.0022245512809604406,-0.013008709996938705,-0.002544766990467906
