time,seconds_elapsed,z,y,x
1782813948120943000,0.090943115234375,0.45648996853530405,-0.02687534837340936,-0.02560991328116506
1782813948141025000,0.11102490234375,-0.059763856089115136,-0.043248208362329746,0.0017382219694554804
1782813948161107000,0.13110693359375,-0.2519084761887789,0.07620132401315495,0.04556269584977999
1782813948181189000,0.151189208984375,0.22032149779200552,-0.07556963851349428,-0.04482132116425782
1782813948201271000,0.17127099609375,-0.16246844376027583,0.01661103439265862,0.00987074808590114
1782813948221353000,0.19135302734375,-0.11830196977555751,0.02110556933293119,0.00965255702426657
1782813948241435100,0.21143505859375,0.14554361244440078,-0.05628516539419069,-0.02127131782127544
1782813948261518000,0.23151806640625,-0.11328443387448787,0.01799070698171854,0.02111020897543058
1782813948281600000,0.25160009765625,-0.017138181805610657,-0.016951427061855793,-0.009641122314799577
1782813948301682000,0.271681884765625,0.02691080327928066,-0.016235807872097937,-0.010849164664000273
1782813948321764000,0.29176416015625,-0.1233393794208765,0.006609207272995263,0.01111641903175041
1782813948341846000,0.311845947265625,0.05605272661149501,-0.029356296735256908,-0.006934621568769216
1782813948361928000,0.331927978515625,-0.0505897850304842,-0.0070262088423594824,-0.012514960718061774
1782813948382009900,0.352009765625,-0.0008078092515468597,-0.006564107755944132,0.015351298388838768
1782813948402092000,0.372092041015625,0.01404839909672737,-0.01103939000647515,-0.02648318898435682
1782813948422174000,0.392174072265625,-0.03834288239777088,0.00015241408273577688,0.025582751279603688
1782813948442256000,0.412255859375,0.012526888617873192,-0.02210868196086958,-0.008357219984102994
1782813948462338000,0.432338134765625,0.0019137246668338775,0.010607976319268346,-0.004795618512388318
1782813948482420000,0.452419921875,-0.07125029574334621,-0.014450020433869212,-0.01432085936255753
1782813948502503000,0.4725029296875,-0.01514203955233097,-0.016512999111972747,0.011359945464041083
1782813948522584800,0.492584716796875,-0.011550152540206908,-0.010246175535861402,0.01971347565371543
1782813948542667000,0.5126669921875,-0.023529928669333455,0.008445300126355141,-0.008708499373495578
1782813948562749000,0.5327490234375,-0.024136077868938444,-0.022387663299031555,-0.005703289675526321
1782813948582830800,0.552830810546875,0.0063899932980537415,0.0020806421989575026,-0.003542293983045965
1782813948602913000,0.5729130859375,-0.04702829315662384,-0.015159648274257777,-0.012772917534504085
1782813948622995000,0.592994873046875,-0.01665478220283985,-0.004078391887433827,0.001819269582722336
1782813948643076900,0.613076904296875,-0.003778349494934082,0.00889686155244708,0.007648578524403274
1782813948663158800,0.63315869140625,-0.03505377772450447,-0.00821846910053864,-0.008461173548921942
1782813948683241000,0.653240966796875,-0.023086861076951026,-0.01529622546704486,0.007907357324752956
1782813948703323000,0.673322998046875,-0.015149638336896896,-0.011566299957409501,-0.0037462190573103724
1782813948723404800,0.69340478515625,-0.03520458437204361,-0.0034301023128442466,0.003485558827128261
1782813948743488000,0.713488037109375,-0.009329553881287575,-0.0057686099966987965,0.010433332138415425
1782813948763570200,0.733570068359375,-0.023242343899607658,0.0013304266198538243,0.0042022557291202245
1782813948783652000,0.753652099609375,-0.033577859953045845,-0.002702938815765083,-0.0051154798502102495
1782813948803734000,0.773734130859375,-0.01113748008608818,-0.01239389162166044,-0.0014574505330063401
1782813948823816000,0.79381591796875,-0.0317845467954874,-0.0020993286331184207,0.00018706527100875972
1782813948843898000,0.813898193359375,-0.02117255188822746,-0.00932290494479239,0.0009453362924046814
1782813948863980000,0.83397998046875,-0.005298690930008888,-0.008302055730763822,-0.007884780166763812
1782813948884062000,0.85406201171875,-0.03239128051698208,-0.005882262971624731,-0.0017960165712982415
1782813948904144100,0.87414404296875,-0.0018710545688867567,-0.006893431041855365,0.00827131353262812
1782813948924226000,0.89422607421875,-0.05528700293600559,0.0247548308217898,-0.012630476856511086
1782813948944308000,0.914307861328125,0.0004968436062335968,-0.005276972288545221,0.010164652998559176
1782813948964390100,0.93439013671875,-0.005014028769731521,-0.02005332033364102,0.00479488786002621
1782813948984472000,0.95447216796875,-0.0596434445798397,-0.006236830296646803,-0.01611713166218251
1782813949004555000,0.974554931640625,0.005742927566170692,-0.008265650976821779,0.011707681189477443
1782813949024637000,0.994636962890625,-0.022823826226592063,-0.011112911900412291,0.004309442430641502
1782813949044718300,1.01471826171875,-0.0135591542750597,-0.01659150770828128,-0.00026034970292821525
1782813949064800300,1.03480029296875,-0.018341712376475333,0.010429952871240674,0.004696834313031285
1782813949084882200,1.054882080078125,-0.033467385315895076,-0.01888871526736766,0.0027390330424532294
1782813949104964400,1.07496435546875,-0.025378771406412124,0.003049706426821649,-0.010965429721120743
1782813949125046300,1.09504638671875,-0.03600128770768642,0.007186550503224134,0.011365279226284473
1782813949145128200,1.115128173828125,-0.01475683962702751,-0.0008848017442040144,-0.009892576325219124
1782813949165210400,1.13521044921875,-0.01564823550879955,0.006286368526797741,-0.002544807378295809
1782813949185292300,1.155292236328125,-0.03704465928077698,0.007463942672498523,0.009531341797392815
1782813949205374200,1.175374267578125,-0.011004793617129326,0.000903707374073565,-0.0005941847671754658
1782813949225456000,1.1954560546875,-0.012201309925317764,-0.0017792115669697521,0.005742069049645215
1782813949245539000,1.2155390625,-0.01639642352759838,-0.00776075192829594,-0.007991528476867824
1782813949265621200,1.235621337890625,-0.02955518030822277,0.0024032800157554445,0.0016020649017766118
1782813949285703200,1.255703125,-0.022229367464780807,0.00023011896144598722,0.01045598236164078
1782813949305785000,1.27578515625,0.012642623952031135,-0.010924768917169422,-0.001833225042838603
1782813949325867300,1.2958671875,-0.025667525219917296,-0.006939608271140605,-0.00650306175108999
1782813949345949200,1.31594921875,-0.03674655311703682,-0.012574764613900332,-0.007681110820826143
1782813949366031000,1.336031005859375,-0.013546294793486595,-0.006157006526086479,0.007755911356396973
1782813949386113300,1.35611328125,-0.016537293303012846,-0.00006585004413500427,0.00684040394667536
1782813949406195200,1.3761953125,-0.041083705538511275,0.003441792750637978,-0.009917345440294593
1782813949426277000,1.396277099609375,-0.009218494722247124,0.0013040318032726645,0.005155209072399884
1782813949446359000,1.416359130859375,-0.02597147660255432,0.004160846006497741,-0.002646057529374957
1782813949466441200,1.436441162109375,-0.026425650110840797,-0.0042873584629967805,-0.0020690978916361926
1782813949486523100,1.456523193359375,-0.006961071184277534,-0.013336213973071425,-0.003962218161858618
1782813949506605000,1.47660498046875,-0.029406711748242376,0.010195559593476355,0.001701196161005646
1782813949526688300,1.496688232421875,-0.026859949874877928,-0.0007597871250472962,0.002666607127059251
1782813949546770400,1.5167705078125,-0.03283610167503357,0.007061243623122573,-0.00730493445219472
1782813949566852400,1.536852294921875,-0.01818155337870121,-0.005702559023164212,0.009388754988927394
1782813949586934300,1.556934326171875,-0.012339257091283798,0.008243658340722323,-0.0010654738070443271
1782813949607016400,1.577016357421875,-0.047203065201640124,0.003777472712099552,0.006045399377774447
1782813949627098400,1.597098388671875,-0.019077040913701056,-0.0051138906813226635,-0.003387779274769127
1782813949647180300,1.61718017578125,-0.027899814316630363,-0.011097951793298125,0.006915259281173348
1782813949667262200,1.63726220703125,-0.029256489622592925,0.000010356997232884168,-0.004087397177796811
1782813949687344400,1.657344482421875,-0.0051566521108150475,0.003545234858803451,-0.007905110568739474
1782813949707426300,1.67742626953125,-0.01981412301659584,0.0002189947792328894,0.0009540858544409274
1782813949727508200,1.69750830078125,-0.01937222446799278,-0.016885284756775944,0.004391640821378678
1782813949747590400,1.71759033203125,-0.00918809958398342,0.0027838950974866748,-0.0046745859486050905
1782813949767672300,1.73767236328125,-0.03523381046652794,0.003850592747237533,0.0064323528687469655
1782813949787754200,1.757754150390625,-0.017127660411596298,0.0013602737688459454,-0.0024218020531348882
1782813949807836400,1.77783642578125,-0.02520633744895458,-0.01263942734794691,-0.010369600986130535
1782813949827919400,1.79791943359375,-0.01369768596291542,-0.004303652010671794,-0.008037778771389276
1782813949848001300,1.818001220703125,0.001723170530796051,-0.006959226287063211,0.003068703388236463
1782813949868083200,1.838083251953125,-0.04346797032654285,0.0013947788266465066,-0.00901506283832714
1782813949888165000,1.8581650390625,-0.027765374282002448,0.008377093728352337,0.0005771788334473967
1782813949908247300,1.878247314453125,-0.02162789444029331,-0.003404218952916562,0.004610398138593882
1782813949928329200,1.8983291015625,-0.016543138521909712,-0.002960292844008654,-0.01377909890236333
1782813949948411100,1.9184111328125,-0.015944003584980965,-0.0023489742789417505,-0.011705854558572173
1782813949968493300,1.938493408203125,-0.03569499823749065,-0.01184814910609275,0.011053582928609102
1782813949988575200,1.9585751953125,-0.019537059640884397,-0.0019414346576668321,-0.012446242863405494
1782813950008657200,1.9786572265625,-0.004281622841954231,-0.009732545191608368,-0.002245623502321541
1782813950028739300,1.9987392578125,-0.011910218024253844,0.004844353024940937,-0.010824176353216171
1782813950048822000,2.018822021484375,-0.05530161598324775,-0.012196213625092059,-0.00011100436011329293
1782813950068904000,2.038904052734375,-0.0032370822250843046,-0.006114299895521253,-0.010721519696339964
1782813950088985900,2.05898583984375,-0.01879588588476181,-0.0022528752270154656,-0.00932520649973303
1782813950109068000,2.079068115234375,-0.03586217149794101,0.002630092775262892,-0.006669358228705823
1782813950129150000,2.09914990234375,-0.014461071550846099,-0.013086714457720517,0.003656787208188325
1782813950149231900,2.11923193359375,-0.02418985388278961,0.008220478394534438,0.011464282621350139
1782813950169313800,2.139313720703125,-0.016418050837516785,0.004184025952685624,-0.0032737244410440325
1782813950189396700,2.159396728515625,-0.036621465432643885,0.0012057590605691075,0.001224354163184762
1782813950209479000,2.17947900390625,-0.030943419796228406,0.0002907448411919176,0.002080075943376869
1782813950229560800,2.199560791015625,-0.005361234772205352,-0.006318097105622291,-0.0016796967152506112
1782813950249642800,2.219642822265625,-0.01942424691617489,0.006087338823359459,0.007052621925249696
1782813950269725000,2.239724853515625,-0.015243161839246748,0.0007232362406328321,-0.0003260901492089033
1782813950289806800,2.259806884765625,-0.018977672192454338,-0.006143891316186636,0.012253314107190817
1782813950309888800,2.279888671875,-0.022578911554813383,-0.0020877843257971107,-0.004723649254720658
1782813950329971000,2.299970947265625,-0.023026655322313308,0.0015580613632686436,0.000978635773807764
1782813950350052900,2.320052978515625,-0.023172785794734953,-0.0018699585903435944,-0.01332342755673453
1782813950370134800,2.340134765625,-0.019136662146449088,-0.008783519104775041,-0.009664740652404726
1782813950390216700,2.360216796875,-0.011197101318836212,-0.0010581490171141922,0.0008413096623495221
1782813950410299000,2.380298828125,-0.028111995762586592,0.0023579247703775764,-0.00449899191968143
1782813950430380800,2.400380859375,-0.008809329399466515,-0.0005807224974036216,-0.02113386384565383
1782813950450462700,2.420462646484375,-0.04128770367801189,-0.011321275687776505,0.001286295217182487
1782813950470545000,2.440544921875,-0.013760229805111884,0.001021707730554044,0.00024109701318666336
1782813950490626800,2.460626708984375,-0.015104630151391029,-0.009834781723376363,0.00216338857896626
1782813950510708700,2.480708740234375,-0.01540916605591774,0.006862926305737346,0.0032730120549909767
1782813950530791000,2.500791015625,-0.021242109993100167,0.00042675577839836477,-0.0029578451585955917
1782813950550872800,2.520872802734375,-0.034705402678251264,-0.008962693330273032,0.00430862044673413
1782813950570954800,2.540954833984375,-0.02393500233888626,0.0009153430129401385,0.019074100037943572
1782813950591036700,2.56103662109375,-0.03680149817466736,-0.005475326138548553,0.0038656076532788573
1782813950611119900,2.581119873046875,-0.006429156264662742,0.005158332611247897,0.007732384350337088
1782813950631202000,2.6012021484375,-0.040841128954291345,-0.0037828978058882055,-0.008958802606444806
1782813950651284000,2.621283935546875,-0.023487843093276024,-0.001885265757329762,0.006405629258602857
1782813950671366000,2.641365966796875,-0.0041822541207075115,-0.010625457177031785,0.010247253248095512
1782813950691448000,2.661447998046875,-0.027225276055932043,-0.00993298140084371,-0.0006926219066604971
1782813950711530000,2.681530029296875,-0.03560790447592735,0.006073365096934139,-0.000015818623639643192
1782813950731612000,2.70161181640625,-0.007173837152123451,0.0006024046062491834,-0.004478168327361345
1782813950751694000,2.721694091796875,-0.018247604352235793,0.010543642378784716,0.002439191579353064
1782813950771776000,2.74177587890625,-0.01720072564780712,0.0017749007180333136,0.011190434116031973
1782813950791858000,2.76185791015625,-0.042938393494486804,0.01104439497515559,0.008720153278671204
1782813950811939800,2.78193994140625,-0.01630582263469696,0.0013163798281922935,-0.010873824181221426
1782813950832022000,2.80202197265625,-0.02932195607423782,0.0013162702303379772,0.002974704961851239
1782813950852104000,2.82210400390625,-0.025139117431640625,-0.00017261662054806947,0.000861366069689393
1782813950872185900,2.842185791015625,0.0004559270739555359,0.004729366609454154,0.013014379873871803
1782813950892268000,2.86226806640625,-0.059548167511820786,-0.006463149865809828,0.0007921550246886909
1782813950912350000,2.882349853515625,-0.005093523746728897,-0.0009409341119229793,-0.006417118766997009
1782813950932432000,2.902431884765625,-0.0029892449438571928,0.0026942440526559947,0.014221600239165126
1782813950952514000,2.92251416015625,-0.03248071236610412,-0.0016293365011923013,0.0005486833913251757
1782813950972596000,2.942595947265625,-0.008383212941884995,-0.01037577499859035,0.0015011435442604123
1782813950992678000,2.962677978515625,-0.03801613466143608,-0.0029535708422772583,0.005891158664133399
1782813951012760800,2.9827607421875,-0.017675357422232627,0.0021709873635321853,-0.010209661184065043
1782813951032842800,3.0028427734375,-0.03742342946529388,0.00498661103984341,-0.010598404773324728
1782813951052925000,3.022925048828125,-0.025460604470968245,-0.000009863806888461112,0.016625464776810258
1782813951073006800,3.0430068359375,-0.012737901020050048,0.002805905999895185,0.003736757109221071
1782813951093088800,3.0630888671875,-0.030252514922618864,-0.0027097886816598474,0.02871368798278272
1782813951113171000,3.0831708984375,-0.006912555867433548,-0.002494081838056445,0.006795815886277705
1782813951133252900,3.1032529296875,-0.008854337584972382,-0.00013581000780686736,-0.005129910234361886
1782813951153334800,3.123334716796875,-0.007209492987394333,0.0036151582898572084,0.003730729227233678
1782813951173417000,3.1434169921875,-0.024863807621598243,-0.003057086015678942,0.0016620331943966447
1782813951193499000,3.163498779296875,-0.0006201777249574661,0.006297657105792313,0.013442670022230594
1782813951213580800,3.183580810546875,-0.018428221616148946,0.0017335823269560933,-0.006757730631902814
1782813951233662700,3.203662841796875,-0.011401683980226516,0.0028164273939095437,0.007054795616026967
1782813951253745000,3.223744873046875,-0.03174889096021652,-0.0038731151062995194,0.0096169742542319
1782813951273826800,3.243826904296875,-0.026361352702975273,0.0012162987208925186,-0.0013165807575918733
1782813951293908700,3.26390869140625,-0.018132453539967536,-0.019331801126059145,0.006372804701235145
1782813951313991000,3.283990966796875,-0.03383797219395637,-0.001985091136302799,0.00634354207413271
1782813951334072800,3.30407275390625,-0.015292261677980422,0.019648301463015376,-0.0009670732001774013
1782813951354154800,3.32415478515625,-0.01693184557855129,-0.002573960407543927,0.00000478577297180891
1782813951374237000,3.34423681640625,-0.01454465818107128,0.002442351650819182,0.005637658827099949
1782813951394320100,3.364320068359375,-0.0007785831570625305,0.0005522270552814006,0.0014352935001254081
1782813951414402000,3.384402099609375,-0.048205520242452615,0.006496266684122383,-0.0019519012527540326
1782813951434484000,3.40448388671875,-0.02292319494783878,-0.008409571225848048,0.010560374317876995
1782813951454566000,3.42456591796875,0.002969371199607849,0.006990041550435125,0.01227729777097702
1782813951474648000,3.44464794921875,-0.039375148054957385,0.007157543604448437,-0.0013078859944827854
1782813951494730000,3.46472998046875,-0.030101708275079724,-0.003175908356066793,-0.005227178330067545
1782813951514812000,3.48481201171875,-0.002715104177594185,-0.0016343049372546375,0.01365225765230134
1782813951534894000,3.50489404296875,-0.022472528570890424,0.0058462783427909015,-0.007947433606814592
1782813951554976000,3.52497607421875,-0.01813362258374691,0.00407092096703127,-0.005334017971716821
1782813951575058000,3.545057861328125,-0.029653379985690113,0.004868391487654299,-0.005055310628190636
1782813951595140000,3.56514013671875,-0.01574234353303909,-0.005273282494116574,0.007338306998834014
1782813951615222000,3.585221923828125,-0.02831424033641815,-0.0068944174225442105,0.0017888013792224228
1782813951635304000,3.605303955078125,0.03557750933766365,-0.01090969921220094,0.007347458419669419
1782813951655385900,3.6253857421875,-0.05014437935054302,0.0008575666774064302,-0.0026047939372248947
1782813951675468000,3.645468017578125,-0.05256488449573517,-0.011194836296513676,-0.0011424845660105347
1782813951695550000,3.665550048828125,0.025101708030700682,-0.005688073840085417,-0.00023114187475293873
1782813951715631900,3.6856318359375,-0.06333060865998268,0.0012246098915114998,0.004841357350256294
1782813951735714000,3.705714111328125,-0.03925239845812321,-0.013362407860253006,0.003651818772125989
1782813951755797000,3.725796875,-0.003925064489245415,0.0097557068714872,0.003224569803383201
1782813951775879000,3.74587890625,-0.01620470034778118,-0.005571772250346839,0.012313118003029375
1782813951795960800,3.7659609375,-0.020384616380929945,-0.005042725141253322,-0.0004577537048608064
1782813951816043000,3.78604296875,-0.04044073145985603,-0.0015477408986538648,-0.0031071174361743032
1782813951836125000,3.806125,0.012221768191456794,-0.008741433528717606,0.0010858955405652522
1782813951856206800,3.826206787109375,-0.02412146482169628,0.0007583258203230798,0.00810666102282703
1782813951876288800,3.846288818359375,-0.05227086998522281,-0.00434528092900291,0.002453804626595229
1782813951896371000,3.866370849609375,0.008634557354450225,0.0017947927285917103,0.005644855752866715
1782813951916452900,3.886452880859375,-0.04269230977892875,0.004512015798036009,-0.004649159246403724
1782813951936534800,3.90653466796875,0.006674655458331108,0.010213606706820427,0.013507935544475913
1782813951956617000,3.926616943359375,-0.0483762006342411,-0.0034221564684063194,0.00825613422980532
1782813951976699000,3.946698974609375,-0.04376081579327583,0.005959401594754308,0.009898567674588412
1782813951996780800,3.96678076171875,0.006232172387838363,-0.0003283186389133334,0.0044555911693722
1782813952016863000,3.986863037109375,-0.06709259154200553,0.007884725367836654,0.0014885580573230982
1782813952036946000,4.00694580078125,-0.010385200414061546,0.0044050848248414695,0.0028002982430160046
1782813952057028000,4.027028076171875,-0.017400047612190245,-0.005023308054730296,0.0016400222919881343
1782813952077110000,4.047110107421875,-0.02893207997381687,-0.005388652502093464,0.01717000171598047
1782813952097192000,4.06719189453125,-0.02009293995797634,-0.0031602175965905186,0.011080069076735526
1782813952117274000,4.087274169921875,-0.018596563920378683,0.004370689364895224,0.004695080747362226
1782813952137356000,4.10735595703125,-0.00019406126737594602,0.006274787686858326,0.002939925909414887
1782813952157438000,4.12743798828125,-0.03445698087513446,-0.0019551161231473086,0.004547014046180993
1782813952177520000,4.14752001953125,-0.027430443239212034,0.0021499628418125212,0.009097882283572107
1782813952197602000,4.16760205078125,-0.00019406126737594602,0.0035313889965415,-0.001335029729735106
1782813952217684200,4.187684326171875,-0.032958266749978066,-0.002318268613424152,-0.007673512036260217
1782813952237766100,4.20776611328125,-0.03416121279895305,-0.003672678897064179,-0.002173983038216829
1782813952257848300,4.227848388671875,-0.003487257593870163,-0.017278174798190594,0.0027363478950224816
1782813952277930200,4.24793017578125,-0.0012292495340108871,0.0021724121356382965,-0.008376216945517807
1782813952298013200,4.26801318359375,-0.08936988980174064,-0.01472922096773982,0.0014050444923341273
1782813952318095000,4.28809521484375,0.006688099461793899,-0.001304926852416247,0.0079103529994376
1782813952338177300,4.30817724609375,-0.01274608432650566,0.006444390366412699,-0.0005043327929452062
1782813952358259200,4.32825927734375,-0.045081250742077826,0.010618333316501229,-0.005257208142150193
1782813952378341000,4.348341064453125,0.011045710149407386,-0.007480565013736486,-0.002973590716999024
1782813952398423300,4.36842333984375,-0.03309387582838535,0.008287661879230291,0.003255184137355536
1782813952418505200,4.388505126953125,-0.031001871985197067,0.0010086838521994649,-0.002520531453564763
1782813952438587100,4.408587158203125,-0.026802082207798957,-0.00493091706354171,0.004349884038884193
1782813952458669300,4.42866943359375,-0.03175122904777527,-0.008062493087537587,0.005591006673779339
1782813952478751200,4.448751220703125,-0.0016699790388345717,0.0011845701420679687,0.00990207480592653
1782813952498833200,4.468833251953125,-0.024409634113311766,-0.00927126608910039,0.001428772427793592
1782813952518915000,4.4889150390625,-0.010803133565187454,0.009238021406624466,-0.00007708382420241832
1782813952538998000,4.508998046875,-0.027556699967384336,0.008228077179100363,0.0024795783886685965
1782813952559080200,4.529080078125,-0.032496494457125664,0.006477762913051992,0.006918839477747679
1782813952579162000,4.549162109375,-0.013799977293610571,-0.004503211437072605,-0.007475486979819834
1782813952599244000,4.569244140625,-0.03324292891025543,-0.010427925310935825,0.0017694938905537128
1782813952619326200,4.589326171875,-0.03115677028596401,0.002660871506016701,-0.0012832447435706853
1782813952639408000,4.609408203125,-0.0028752631753683087,-0.00020461919400840996,-0.010002265511080622
1782813952659490000,4.629489990234375,-0.0239724117398262,-0.0038667584307491777,0.000442136010620743
1782813952679572200,4.649572265625,-0.019936872613430023,-0.0061805335321463645,-0.008658102626819163
1782813952699654100,4.669654052734375,-0.019489128845930098,-0.003011895167082548,0.005380414396710694
1782813952719736000,4.689736083984375,-0.019039631512761116,0.00776338227679953,0.00415571317365393
1782813952739818000,4.70981787109375,-0.016048633003234863,-0.001351560739427805,0.009283358385693281
1782813952759900200,4.729900146484375,-0.013203764966130255,0.009094941407814621,0.0055144525725394486
1782813952779983000,4.749983154296875,-0.015449498066306114,0.007015742247272283,0.005398004852328449
1782813952800065000,4.77006494140625,-0.02113514248728752,0.002451868397835642,0.0008456022449769079
1782813952820147000,4.79014697265625,-0.01844166561961174,-0.007430716256331652,-0.006120254712272435
1782813952840229000,4.81022900390625,-0.010813070437312125,-0.005137545551545918,0.003966857804358005
1782813952860311000,4.83031103515625,-0.025176526832580565,-0.0001280468264594674,0.0008148783131502568
1782813952880393200,4.850393310546875,-0.026674071913957594,-0.012510229744017123,0.002333794976118952
1782813952900475100,4.87047509765625,0.013280337333679199,-0.005329396595526486,-0.0036117790226824578
1782813952920557300,4.890557373046875,-0.08097673998773097,0.008427033817302435,0.00992211294695735
1782813952940639200,4.91063916015625,-0.015007014995813368,-0.003019841011520475,0.010054013964626938
1782813952960721200,4.93072119140625,0.023314824613928795,-0.0036787798442877826,0.006256009921152144
1782813952980803300,4.95080322265625,-0.04462707723379135,0.00032024493031203744,-0.008655618408787995
1782813953000885200,4.97088525390625,-0.028767244800925254,-0.009561499473638832,0.01265851564090699
1782813953020968200,4.99096826171875,-0.025164836394786835,-0.01387483262810856,-0.001976085845939815
1782813953041049600,5.011049560546875,-0.01664601437449455,0.002337247308529913,-0.003184237792994827
1782813953061131800,5.0311318359375,-0.027415245670080184,-0.005375646890047938,-0.005748096931632608
1782813953081213700,5.051213623046875,-0.03909399302601814,0.01086697431532666,-0.00893978737872094
1782813953101295600,5.071295654296875,0.0072936641395092,-0.006043755409959703,-0.0015866116043180226
1782813953121377800,5.091377685546875,-0.0518096822142601,-0.004201324147358536,0.014682349618710577
1782813953141459700,5.111459716796875,-0.02204582759141922,0.0001425868084654212,0.0060796669735573225
1782813953161541600,5.131541748046875,-0.014856792870163917,-0.003152454415243119,0.00020317615559324622
1782813953181623800,5.151623779296875,-0.040299277162551876,0.0007952237646095455,-0.0005907324347645044
1782813953201705700,5.171705810546875,0.015213351222872732,0.006622870472166687,0.006857482945639639
1782813953221787600,5.19178759765625,-0.03326514074206352,0.006157645846903324,0.009203644212987274
1782813953241869600,5.21186962890625,-0.012623334729671478,-0.0035699491749517616,0.0073643730218522245
1782813953261951700,5.23195166015625,-0.0021440262913703916,-0.0002722593364305794,-0.001308963706716895
1782813953282034700,5.25203466796875,-0.03162497231960296,0.0018324578578583896,-0.00012112389532849191
1782813953302116600,5.27211669921875,-0.006482347756624221,-0.004717931899987161,0.014256909014564006
1782813953322198500,5.292198486328125,-0.020399813950061796,0.001494019683729857,0.004149794889520854
1782813953342280700,5.31228076171875,-0.025789690294861792,0.005766582436393946,-0.002620101104211062
1782813953362989600,5.332989501953125,-0.026832477346062658,0.011475607732962816,0.0003038417847827077
1782813953383071700,5.35307177734375,-0.015759294667840002,0.005814732427056878,0.007326232968550175
1782813953403153700,5.373153564453125,-0.008128361397981643,0.003515753035992384,-0.0025990765824913976
1782813953423235600,5.393235595703125,-0.022942484170198438,-0.0025468349386006594,0.008227127331029623
1782813953443317800,5.41331787109375,-0.02578326055407524,0.0025592194961383936,-0.0019443755334243177
1782813953463399700,5.433399658203125,-0.030273557710647582,-0.0006256576176732778,0.004998502407036721
1782813953483481600,5.453481689453125,-0.00962649100124836,0.0083781897068955,0.0006488010312430561
1782813953503563500,5.4735634765625,-0.01696457880437374,-0.0036804786110296844,-0.0067614752252586185
1782813953523645700,5.493645751953125,-0.01771276682317257,-0.0018068667588755486,-0.006804675046168268
1782813953543729000,5.51372900390625,-0.022498832055926322,0.0024962737951427696,0.009448558884765952
1782813953563810800,5.533810791015625,-0.021304069313406945,0.002262519838195294,-0.0017331074029207228
1782813953583892700,5.553892822265625,-0.02788870840072632,0.007945022454019636,0.004579765538312495
1782813953603975000,5.573974853515625,-0.03148234897851944,-0.011537932379450649,0.005264788660407066
1782813953624056800,5.594056884765625,-0.006937690308690071,0.0015650208270177244,-0.006200699537340551
1782813953644138800,5.614138671875,-0.04060556663274765,-0.007324278473481535,-0.004321169401053339
1782813953664221000,5.634220947265625,-0.009634674307703971,-0.000662646893505007,0.007349047588557004
1782813953684302800,5.654302734375,-0.027281974679231644,0.00844475213708356,0.0009914587227627635
1782813953703757800,5.6737578125,-0.03581891687810421,0.010137490996997803,0.006362648633401841
1782813953723839700,5.69383984375,-0.00933364553451538,0.004226878713723272,0.006274404094368219
1782813953743921700,5.713921630859375,-0.031027006426453587,0.00416543085006997,0.009979834483563899
1782813953764003800,5.73400390625,-0.02429974399805069,-0.014548822899535298,0.005618479202594608
1782813953784086800,5.754086669921875,-0.029681437036395072,0.0068202927404083305,0.009296254399884492
1782813953804168700,5.774168701171875,-0.01846563101708889,-0.009075250326655805,0.009304529037885367
1782813953824250600,5.794250732421875,-0.02280395248234272,-0.0018447876164689658,0.005882810960896313
1782813953844332800,5.814332763671875,-0.037620997864007945,-0.0047087256802245975,0.0023873335279524324
1782813953864414700,5.834414794921875,-0.008587211081385613,-0.003396601902041584,0.0019195333531126378
1782813953884496600,5.85449658203125,-0.029687282255291936,-0.005010978296119719,0.01804093933161348
1782813953904578600,5.87457861328125,-0.015926467928290368,0.0068916957424953575,0.001122665620688349
1782813953924660700,5.89466064453125,-0.012626257339119911,-0.004060509170871228,0.00050645168479532
1782813953944742700,5.91474267578125,-0.026256138762831685,0.0036054588797502216,-0.004587236458715051
1782813953964824600,5.934824462890625,0.0024731121152639386,-0.00890084360782057,0.004603201212827116
1782813953984906800,5.95490673828125,-0.01698152993917465,0.011333258386515081,-0.00523693253910169
1782813954004988700,5.97498876953125,-0.01922843208312988,-0.0007727744707837701,-0.004129756748490036
1782813954025070600,5.995070556640625,-0.034189854371547694,-0.003063424424920231,0.00644183308314532
1782813954045153300,6.0151533203125,-0.017882862693071364,0.005208528428524733,-0.006568966594152152
1782813954065235500,6.0352353515625,-0.02791033571064472,-0.00611691197771579,-0.0025686083789914845
1782813954085317400,6.0553173828125,-0.046613867136836046,-0.00004471592456102371,0.002515873544756323
1782813954105399300,6.0753994140625,-0.02342646829485893,-0.0028456534883938727,0.0017987747839652
1782813954125481500,6.0954814453125,-0.013095628416538238,-0.014314685350097715,0.0065510656112805
1782813954145563400,6.1155634765625,-0.02312368595600128,-0.004491685396060347,-0.0038270840074867006
1782813954165645300,6.135645263671875,-0.020876199290156362,-0.0030166809400543567,0.0030708588127046823
1782813954185727200,6.155727294921875,-0.023117840737104413,-0.0165194288527593,-0.0034421398105099793
1782813954205809400,6.175809326171875,-0.0117465518951416,-0.00352653015833348,0.016815215195249766
1782813954225891300,6.195891357421875,-0.008448679393529892,-0.0038949068129993975,0.004923172148503363
1782813954245973200,6.21597314453125,-0.02251812127828598,0.004256798927951604,0.004842106268927455
1782813954266055400,6.236055419921875,-0.020566402688622473,-0.00332589301969856,0.006195164845697582
1782813954286137300,6.256137451171875,-0.02790215240418911,0.006682071579806506,0.0008355923076160251
1782813954306220300,6.27622021484375,-0.018469722670316695,0.005073960529733449,-0.010730141394212842
1782813954326302200,6.29630224609375,-0.030147885504364966,-0.0006307904505170882,0.007131422782503068
1782813954346384400,6.31638427734375,-0.01818155337870121,0.01045192724103108,0.003746419986709952
1782813954366466300,6.33646630859375,-0.015786767196655272,-0.004577043858263641,0.0032377946111373603
1782813954386548500,6.356548583984375,-0.02251987484395504,-0.008837824841588736,0.009830434341821818
1782813954406630400,6.37663037109375,-0.026561259189248083,0.006700118693150579,0.005698650033026933
1782813954426712600,6.396712646484375,-0.012798106774687767,0.00744299121601507,-0.005938961594924331
1782813954446794500,6.41679443359375,-0.02386485971212387,0.003042619098909199,0.006993146822974085
1782813954466876400,6.43687646484375,-0.02551964118182659,-0.0008224040324799716,-0.0030794074453413486
1782813954486958600,6.45695849609375,-0.0032230536997318268,-0.005593892750609666,0.00855208496907726
1782813954507040500,6.47704052734375,-0.04466799376606941,0.005460238167271017,0.0116543983659707
1782813954527122400,6.497122314453125,-0.02253331884741783,0.00161055873548612,-0.002295673189125955
1782813954547204600,6.51720458984375,-0.0300070157289505,-0.005250486140418798,0.006575487666483968
1782813954567287600,6.53728759765625,-0.03061959466934204,-0.011860387533158063,-0.0035056517670862377
1782813954587369500,6.557369384765625,0.023845570489764212,0.0018128581082448361,0.007709533197712152
1782813954607451400,6.577451416015625,-0.03869593361914157,0.008302439323253929,0.005305906122084707
1782813954627533300,6.597533203125,-0.0050374096453189845,-0.006266476516239345,-0.002736329628713429
1782813954647615500,6.617615478515625,0.007845452803373336,0.0010198263007216155,-0.00524409293225035
1782813954667697400,6.637697509765625,-0.04902385088801384,0.007038337671570479,0.004912522890325635
1782813954687779300,6.657779296875,-0.006388239732384681,0.005964826688542962,0.009614636166673154
1782813954707861500,6.677861572265625,-0.020299276185035704,0.005578348121605813,-0.006440810169838368
1782813954727943400,6.697943359375,-0.03512684296071529,-0.002581979317218065,0.015515110648423432
1782813954748025300,6.718025390625,0.001388239488005638,0.008699749811459332,0.014027319776080549
1782813954768107500,6.738107421875,-0.026292963641881942,-0.0007509096988476812,0.006748615743685514
1782813954788189400,6.758189453125,-0.007888707423210144,0.017341357961203903,0.003196823279932141
1782813954808271400,6.778271240234375,-0.03706277945935726,-0.007896287941467017,0.008112469709105789
1782813954828353300,6.798353271484375,-0.011932429856061934,-0.0006124693425372242,0.004887096188124269
1782813954848436500,6.8184365234375,-0.0001087210714817047,-0.0005520261258818209,0.012513462880719452
1782813954868518400,6.838518310546875,-0.027792846810817718,-0.002373706861399114,0.008308485471550374
1782813954888600300,6.858600341796875,-0.014029694396257399,-0.0010122457824647427,0.0022292751557193694
1782813954908682200,6.87868212890625,-0.004752162963151931,0.003313307532761246,-0.007946081899944692
1782813954928764400,6.898764404296875,-0.031241525959968566,-0.0114376868753694,-0.0030042233172804115
1782813954948846300,6.918846435546875,-0.03513210365772247,-0.0015627740710042416,0.005906812890991568
1782813954968928300,6.93892822265625,-0.012543255230784416,-0.005990691782161593,0.00432880471823737
1782813954989010400,6.959010498046875,-0.019572130954265594,-0.0005387465192005038,0.005003543908335268
1782813955009092400,6.97909228515625,-0.04291910427212715,-0.010842424395959824,0.011542078831605613
1782813955029174300,6.99917431640625,-0.007158055061101913,0.004788640782330185,0.00767555786287412
1782813955049256400,7.01925634765625,-0.02720481778979301,0.00433055828390643,0.01884767087092623
1782813955069338400,7.03933837890625,-0.0225695592045784,-0.005799041667580604,0.005376231411937624
1782813955089420300,7.059420166015625,-0.024063012632727622,-0.005562566030584275,0.0030793891790322956
1782813955109502200,7.079502197265625,-0.014042553877830504,0.008476097123418003,-0.00026027663769200444
1782813955129584400,7.09958447265625,-0.022864742758870123,-0.005313906765449791,0.009195059047732502
1782813955149666300,7.119666259765625,-0.04037351144254207,-0.0023996998191811144,0.004411003108974546
1782813955169748200,7.139748291015625,0.0009252981513738632,0.004101115175895393,0.004109609009604901
1782813955189831200,7.1598310546875,-0.023315993657708166,0.004895754418615251,-0.000778802352771163
1782813955209913300,7.179913330078125,-0.03858078280687332,-0.014530830585118382,0.01723406166182831
1782813955229995300,7.199995361328125,-0.0204781398832798,-0.0028590061603114007,0.008001775876246392
1782813955250077200,7.2200771484375,-0.027965280768275258,-0.00035765433125197886,0.009986940077785401
1782813955270159400,7.240159423828125,-0.006716156512498855,-0.006149206812120974,0.00008464607615023852
1782813955290241300,7.2602412109375,-0.03110416331589222,0.004341810330282896,-0.002768624463118613
1782813955310323200,7.2803232421875,-0.017935469663143157,0.0010997414028272032,0.011029416601732372
1782813955330405000,7.300405029296875,-0.02616319978237152,-0.005826313266996294,0.0029813173657283185
1782813955350487300,7.3204873046875,-0.007757774519920348,0.0002801503819413483,0.007627517470065504
1782813955370569200,7.3405693359375,-0.029010405907034874,-0.012428688940405845,0.007233166123926639
1782813955390651100,7.360651123046875,-0.011502221745252608,-0.0017539127289317546,0.012876359642669559
1782813955410733300,7.3807333984375,-0.027067455145716665,0.007148556580394506,0.0035768538397736847
1782813955430815200,7.400815185546875,-0.020632453662157057,-0.004289879213646054,0.0004595255368389189
1782813955450897200,7.420897216796875,-0.033200843334197996,-0.004059650654345751,0.009592972324136645
1782813955470979300,7.440979248046875,-0.018542787906527518,-0.004331818659231067,0.0028926161689683794
1782813955491061200,7.461061279296875,-0.020484569624066352,0.003788523829076439,0.0057658883166499435
1782813955511144200,7.481144287109375,-0.03560615091025829,-0.01889457875257358,-0.0018399835771881043
1782813955531226000,7.50122607421875,0.003750292444229126,-0.0073883566856384275,-0.002347713903617114
1782813955551308300,7.521308349609375,-0.034999417188763614,0.0010393164524808525,0.00775461444845423
1782813955571390500,7.541390380859375,-0.03591594751179218,-0.003950929582864046,0.003714600076340139
1782813955591472400,7.561472412109375,-0.012266191855072975,-0.013416823194921016,-0.0015778803085908294
1782813955611554300,7.58155419921875,-0.0441413395434618,-0.0034376828311011194,0.010860928167030215
1782813955631636500,7.601636474609375,-0.01570668769776821,-0.011892006514128297,0.01564491104055196
1782813955651718400,7.621718505859375,-0.02558276954591274,0.006326901466585696,0.01147657584734261
1782813955671800300,7.64180029296875,-0.01751169129312038,-0.008660806040558964,0.006842066180799156
1782813955691882500,7.661882568359375,-0.024687282010912893,0.002917915007006377,0.009063505089934915
1782813955711964400,7.68196435546875,-0.031578210568428036,-0.006924575098790228,0.007470335880666971
1782813955732046300,7.70204638671875,0.005983166062831878,-0.013011712992750108,0.006021707974933088
1782813955752128300,7.722128173828125,-0.04339548961222171,0.00810039567882195,-0.0002401836977340281
1782813955772210400,7.74221044921875,-0.021404022556543348,-0.014709895212762057,0.005943363775406032
1782813955792292400,7.762292236328125,-0.027084406280517576,0.0028150574207305907,-0.00016834230422973633
1782813955812374300,7.782374267578125,-0.04519347894489765,-0.0015067878337576984,0.0034260471922345458
1782813955832456400,7.80245654296875,-0.016314005941152572,-0.006387362949550152,0.01299795846203342
1782813955852538400,7.822538330078125,-0.016162614771723746,0.005616232446581125,0.0019836298315785822
1782813955872621300,7.842621337890625,-0.02663841607868671,-0.009467628911416977,0.019068053889647125
1782813955892703200,7.862703125,-0.041460722157359124,-0.007538889338541775,0.012383717287518083
1782813955912785400,7.882785400390625,-0.02485094814002514,-0.0058447074402123685,0.008546787739451974
1782813955932867300,7.902867431640625,-0.011387070932984352,-0.006585570669081062,0.010538893138431012
1782813955952949200,7.92294921875,-0.017526304340362547,-0.0027740130242891606,-0.001021470268536359
1782813955973031200,7.94303125,-0.028154665860533713,0.0013914908910170197,0.015191705646645277
1782813955993113300,7.96311328125,-0.02276595855951309,-0.0013526567179709672,0.0001232245208695531
1782813956013195300,7.9831953125,-0.03698036187291145,0.007739362080395221,0.020681918827071783
1782813956033277200,8.003277099609376,-0.016934183666110037,-0.010072426404152065,0.004020706883445382
1782813956053359400,8.023359375,0.009859715235233307,0.0018435820400714872,0.000997322207968682
1782813956073441300,8.043441162109374,-0.054036710613965984,0.0013077033313922584,0.011623601368907839
1782813956093523200,8.063523193359375,0.0007259761869907379,-0.004485620981454849,0.005384633914101869
1782813956113605400,8.08360546875,-0.024103929165005682,-0.0012155498022213577,0.0010609985613264142
1782813956133687300,8.103687255859375,-0.03309446035027504,-0.007743855592422187,0.002532075760886073
1782813956153769200,8.123769287109376,0.0007294833183288574,-0.0001765256106853485,0.009344660118874162
1782813956173851100,8.14385107421875,-0.0354793096601963,0.008699421017896383,0.009594853753969073
1782813956193933300,8.163933349609374,-0.02590834823846817,-0.006041526920255273,0.007256820994149893
1782813956214016300,8.184016357421875,-0.032927287089824675,-0.0007601524512283503,0.015857055953890083
1782813956234098200,8.20409814453125,-0.034579145950078966,0.007552442939858883,0.0036484577712602912
1782813956254180000,8.22418017578125,-0.0031488194197416305,-0.002313610704615712,0.01122875683242455
1782813956274262300,8.24426220703125,-0.04668868593871593,-0.00312505495166406,0.005493976040091365
1782813956294344200,8.26434423828125,0.002381342178583145,-0.0008384601181372999,0.01245544908316806
1782813956314426000,8.284426025390625,-0.016007131949067114,-0.0002743234293535352,0.008562953422963619
1782813956334508300,8.30450830078125,-0.02948445315957069,0.004281622841954231,0.006947572381887585
1782813956354590200,8.324590087890625,-0.01706511656939983,-0.008845332294609397,0.017185619410220534
1782813956374672100,8.344672119140625,-0.03037760260701179,0.004067322504147887,0.011301401943527162
1782813956394754000,8.364754150390626,-0.021405191600322723,-0.0012311126975342631,0.015254797478113322
1782813956414836200,8.384836181640624,-0.022743162205815314,-0.0009120002783834934,0.016919917678739873
1782813956434918100,8.404918212890625,-0.03756254567503929,0.0005012092540971934,-0.008167049440555274
1782813956455000000,8.425,-0.024544658669829366,-0.003927037250623107,0.00886904196375981
1782813956475082200,8.445082275390625,-0.028584873971343037,-0.004455390239972621,0.003584598754812032
1782813956495164200,8.4651640625,-0.0007552022814750671,-0.007460618204250932,0.009444668160937727
1782813956515246000,8.48524609375,-0.02364391043782234,0.004328220196347684,0.002630220639426261
1782813956535328300,8.505328369140624,-0.052827334824204444,0.008188658484164625,-0.00006205065185204148
1782813956555410200,8.52541015625,0.0010381108760833739,-0.004187533084023744,0.02069539936315268
1782813956575492000,8.5454921875,-0.022304770788550376,0.00031427184725180265,-0.0004182436783798039
1782813956595574000,8.565573974609375,-0.020814239969849584,-0.014370872516743839,0.01363537958273664
1782813956615657200,8.5856572265625,-0.012136427995562553,0.00013823942691087722,-0.0007500877149403095
1782813956635739400,8.605739501953124,-0.0327910934895277,-0.003201554253976792,0.012741974406968802
1782813956655821300,8.6258212890625,-0.0015168343037366865,0.00042487434856593604,0.013857169107254593
1782813956675903200,8.6459033203125,-0.029192776736617087,0.0012145634215325117,0.007703139989543706
1782813956695985400,8.6659853515625,-0.02021802764236927,-0.007145652237255126,0.020151191217545418
1782813956716067300,8.6860673828125,-0.009290390914678573,0.0006326170814223587,-0.009020524464733897
1782813956736149200,8.706149169921876,-0.0344295083463192,-0.005238868767861277,0.02047382903434336
1782813956756231400,8.7262314453125,0.0047726212292909615,0.0023657975495792924,0.009741221688408404
1782813956776313300,8.746313232421874,-0.034276363611221314,0.006800546860322356,0.0006564546147361397
1782813956796395300,8.766395263671875,-0.02022153477370739,0.005462156129721552,0.010517466757912187
1782813956816477200,8.786477294921875,0.0016319851160049438,-0.0002536094348877668,0.00008108414588496089
1782813956836559400,8.806559326171875,-0.02171031202673912,0.00088861940279603,0.0030044607792980966
1782813956856641300,8.826641357421876,-0.02051554928421974,-0.006047865329496562,0.008852748416084796
1782813956876723200,8.84672314453125,-0.012727379626035689,-0.002153944897186011,0.007356134916469454
1782813956896805400,8.866805419921874,-0.038618776729702944,-0.011005451204255223,0.012753281252272427
1782813956916887300,8.88688720703125,-0.028740941315889355,-0.010516809170786292,0.0001841791941784322
1782813956936969200,8.90696923828125,-0.01736322273313999,0.009324877706170081,0.0008764540409669279
1782813956957051400,8.927051513671875,-0.037416415202617646,0.00043490255223587154,0.012715944916568696
1782813956977133300,8.94713330078125,-0.017213585129380225,-0.001558097895886749,0.0010106931461952627
1782813956997215200,8.96721533203125,0.0010404489636421203,0.0015652582890354097,-0.0066340129206888376
1782813957017297200,8.987297119140624,-0.04668810141682624,-0.0001631729387678206,0.011780728159379214
1782813957037380000,9.007380126953125,-0.04250643181800842,-0.005198920349963009,0.006686181499343365
1782813957057463000,9.027463134765625,-0.0013566753059625625,-0.006197630797419697,0.0024084311149083076
1782813957077545000,9.047544921875,-0.019160627543926237,0.0013176219372078777,-0.006246091315336525
1782813957097627000,9.067626953125,-0.02619067231118679,0.0032381416710093617,-0.0010195340397767723
1782813957117708800,9.087708740234374,-0.023943185645341872,0.0010202098932117223,0.005149491717666387
1782813957137791000,9.107791015625,-0.01497252820432186,0.0010361929136328398,0.007918079648166895
1782813957157873000,9.127872802734375,-0.014516601130366324,-0.011674838365800678,0.016289985744748263
1782813957177954800,9.147954833984375,-0.024399112719297407,-0.004672795850317925,0.0007208616204559803
1782813957198037000,9.168037109375,-0.008386720073223114,-0.0019642310113646088,-0.007393270322773605
1782813957218119000,9.188118896484376,-0.01586450860798359,-0.0032979820994660258,0.0038373679394833743
1782813957238200800,9.208200927734374,-0.011828969481587409,-0.0005795351873151957,0.005990509119071066
1782813957258283000,9.228282958984375,-0.011828969481587409,0.015290124519821256,0.0027650260002352297
1782813957278365000,9.248364990234375,-0.029342414340376852,0.0007084953292272985,0.0248405728764832
1782813957298446800,9.26844677734375,-0.003457446977496147,-0.0026882892359048126,0.002309573850315064
1782813957318528800,9.28852880859375,-0.034276948133110996,0.0031961656928062437,0.01386854901779443
1782813957338611000,9.30861083984375,-0.04385843094885349,-0.004723283928539604,0.004436375012248754
1782813957358692900,9.32869287109375,-0.015421441015601157,-0.003717047761753201,0.004283540804404765
1782813957378774800,9.34877490234375,-0.02365092470049858,0.0020103351754136383,0.007019358976464718
1782813957398857000,9.36885693359375,-0.014676760128140448,-0.0174017646452412,0.006666983608528972
1782813957418939000,9.38893896484375,-0.0131757079154253,0.005267802601400763,0.0003659289692528546
1782813957439020800,9.409020751953125,-0.01855973904132843,-0.006900792364403605,0.0038879290829412637
1782813957459103000,9.42910302734375,-0.034274025523662564,-0.002213365200534463,-0.008423106560856104
1782813957479185000,9.449184814453124,-0.008388473638892174,-0.005856306546460837,0.005328684209473431
1782813957499266800,9.469266845703125,-0.020506196933984755,-0.0006370375282131135,0.008468333942070604
1782813957519348700,9.4893486328125,-0.033978257447481154,0.0025705446077510714,-0.005920622220635414
1782813957539432000,9.509431884765625,-0.006298807883262634,0.008580799606908112,0.013116013617441058
1782813957559513900,9.529513916015626,-0.04071253413856029,0.0033386429034173485,0.0011310315902344882
1782813957579595800,9.549595703125,-0.01976736126542091,-0.008452259590104223,0.010682996050547807
1782813957599677700,9.569677734375,-0.012278466814756393,-0.014865304970182477,0.0023657244843430817
1782813957619759900,9.589759765625,-0.03443009286820888,0.005284991198219359,0.0075829294096678495
1782813957639841800,9.609841796875,-0.01647182685136795,-0.003224953395873308,0.00496825339924544
1782813957659923700,9.629923828125,-0.030676877814531326,0.009072272918280213,0.019449363091122357
1782813957680006000,9.650005859375,-0.012575988456606865,-0.0019548238622024653,0.006489983073808252
1782813957700087800,9.670087890625,-0.0294797769844532,0.0011959683189168573,0.006907477833516896
1782813957720169700,9.690169677734374,-0.0031499884635210035,0.002276548363547772,0.00632754078740254
1782813957740252000,9.710251953125,-0.012276128727197647,-0.003110533235967159,0.008661554959230124
1782813957760333800,9.730333740234375,-0.022594109123945234,0.009641359776817262,0.013451109057012944
1782813957780415700,9.750415771484375,-0.032768297135829925,-0.0028844693951308726,0.008445482789445668
1782813957800497700,9.77049755859375,-0.017653730112314223,-0.002300385896861553,0.010659304647706449
1782813957820579800,9.790579833984374,-0.025130349603295323,-0.003732829852774739,0.0181551768284291
1782813957840661800,9.810661865234374,-0.007922025170922279,0.0006918181890621781,-0.002542323160264641
1782813957860743700,9.83074365234375,-0.03305763547122478,0.0005591317201033235,0.012513152353465557
1782813957880825900,9.850825927734375,5.845218896865844e-7,-0.011769549178238957,0.017229970008600503
1782813957900907800,9.87090771484375,-0.03365150971114635,0.0016563341059722006,-0.0026998335432261225
1782813957920991000,9.890990966796876,-0.04637830481529236,-0.006871876797173172,0.0077900145553983745
1782813957941073000,9.911072998046874,0.005995441022515297,0.00022652049856260417,0.009382909770030527
1782813957961154800,9.93115478515625,-0.011512158617377281,0.005915525920409709,0.007354637079127133
1782813957981237000,9.951237060546875,-0.020042671075463293,-0.0027744879483245313,-0.0010613638875074684
1782813958001319000,9.97131884765625,-0.025277064597606657,-0.0006261873406358063,0.01050303637376055
1782813958021400800,9.99140087890625,-0.03156768917441368,-0.003988941772002727,-0.002058978356420994
1782813958041482200,10.011482177734376,-0.029468671068549154,0.00024285057885572314,0.018751845813635735
1782813958061564200,10.031564208984374,-0.024833997005224227,-0.003205901635531336,0.00436033236766234
1782813958081646000,10.05164599609375,-0.011224573847651482,0.00029169468926265834,0.00942958018966019
1782813958101728300,10.071728271484375,-0.019892448949813842,-0.007479304638411849,0.013877481242921203
1782813958121810200,10.09181005859375,-0.04922200380861759,0.002532313222903758,0.008583977944683283
1782813958141892000,10.11189208984375,0.002248071187734604,-0.0005973631049506366,0.012340700129698961
1782813958161974300,10.131974365234376,-0.024375731843709943,0.00034344314280897376,-0.0030907142906449734
1782813958182056200,10.15205615234375,-0.02378478021323681,-0.008552724289894103,0.00009988017790019512
1782813958202138000,10.17213818359375,-0.03529343169927597,-0.004673106377571821,0.010254103113990276
1782813958222220300,10.19222021484375,-0.029315526333451268,0.00004186638034880161,0.006363068758510053
1782813958242302200,10.21230224609375,0.017666005071997642,0.0003521013732999563,0.002425363983400166
1782813958262384000,10.232384033203125,-0.030512042641639706,0.009408738331031053,0.0031953071762807666
1782813958282466000,10.252466064453126,-0.03620996202230453,-0.010731785362027586,0.008665847541857511
1782813958302548200,10.27254833984375,-0.0062742579638957975,-0.0016688282613642512,0.010037318558152765
1782813958322630100,10.292630126953124,-0.04757248303592205,-0.0005402626228518784,0.00013038491401821375
1782813958342713000,10.312713134765625,-0.02363397356569767,-0.009394033952243626,0.018127192842960358
1782813958362795000,10.332794921875,-0.005372340688109397,-0.0020718926369212567,0.004870747841522098
1782813958382877200,10.352877197265625,-0.016744214051961897,0.00267274460690096,0.001562445277441293
1782813958402959000,10.372958984375,-0.021233926686644554,0.007717552107386291,0.007393580850027501
1782813958423041000,10.393041015625,-0.012402385455369948,-0.017117193816509096,-0.0011825243154540658
1782813958443123200,10.413123291015625,-0.021380641680955884,-0.003087937811668962,-0.0019403569454327224
1782813958463205000,10.433205078125,-0.03244739461839199,-0.002141268078703433,0.013263367932569235
1782813958483287000,10.453287109375,-0.02151157458424568,-0.00016030512824654578,0.002539638012833893
1782813958503369200,10.473369140625,0.0072176762938499445,-0.0020113215561024843,0.020916184240672736
1782813958523451100,10.493451171875,-0.11163549762368201,0.02201398941474035,-0.05277511144662276
1782813958543533000,10.513532958984374,-0.01606792222559452,0.1836163178649731,0.2076338291218504
1782813958563615000,10.533614990234375,0.12787526928484438,-0.3669263462597504,0.08741813467945903
1782813958583697200,10.553697265625,0.5087707753926515,0.13625908501492812,0.005242430698126554
