time,seconds_elapsed,z,y,x
1782813964497258000,0.067258056640625,0.00017490776372142136,0.0012982464395463467,-0.005118769593536854
1782813964517340000,0.08733984375,0.0006808568141423166,0.003880149219185114,-0.006194956600666046
1782813964537421800,0.107421875,-0.00021435457165353,-0.005462730303406715,0.007724522612988949
1782813964557504000,0.12750390625,0.00036757427733391523,0.004734509624540806,-0.004774424247443676
1782813964577586000,0.1475859375,-0.0007403113413602114,-0.002358905738219619,0.0029384002555161715
1782813964597667800,0.167667724609375,0.0003321408003102988,-0.0016080709174275398,0.0015925943152979016
1782813964617750000,0.18775,0.00013749636127613485,0.002838339190930128,-0.0052300915122032166
1782813964637832000,0.20783203125,-0.0017790464917197824,-0.003063653130084276,0.004003978334367275
1782813964657913900,0.227913818359375,0.00014825176913291216,-0.000044636428356170654,-0.003223623149096966
1782813964677996000,0.24799609375,0.000462871219497174,0.0009889639914035797,0.0018870523199439049
1782813964698078000,0.268077880859375,0.0005966532626189291,-0.0007415679283440113,0.0032595773227512836
1782813964718160000,0.288159912109375,-0.00045104589662514627,0.0018358430825173855,-0.001392232021316886
1782813964738241800,0.30824169921875,-0.0009396608220413327,-0.00039891363121569157,0.0009819529950618744
1782813964758324000,0.328323974609375,0.0011349241249263287,0.0008035982027649879,0.0013628741726279259
1782813964778406000,0.348406005859375,-0.0005723865469917655,0.002206547185778618,-0.0005228437948971987
1782813964798487800,0.36848779296875,0.00019317466649226844,-0.0011246975045651197,0.004072864539921284
1782813964818570000,0.388570068359375,-0.00003942383045796305,0.00019274605438113213,-0.0010887440294027328
1782813964838652000,0.40865185546875,0.0011063693091273308,-0.00032996246591210365,0.00175619893707335
1782813964858733800,0.42873388671875,0.0012092350516468287,-0.0001512286253273487,0.0021090705413371325
1782813964878816000,0.44881591796875,0.00021841732086613774,0.0008144993335008621,-0.0018395786173641682
1782813964898898000,0.46889794921875,-0.0014198549324646592,-0.0011764555238187313,0.0009656649781391025
1782813964918979800,0.488979736328125,0.00012336717918515205,0.0011065909639000893,0.0015307003632187843
1782813964939061800,0.509061767578125,-0.0015532160177826881,-0.00006442051380872726,0.001301798620261252
1782813964959144000,0.52914404296875,0.00006248604040592909,-0.0004995770286768675,-0.0022858118172734976
1782813964979225900,0.549225830078125,0.0002168520586565137,0.00041931401938199997,-0.001310338731855154
1782813964999307800,0.569307861328125,0.001058490015566349,-0.0021465655881911516,-0.0013469362165778875
1782813965019389000,0.589388916015625,-0.0009260114748030901,0.00008154241368174553,-0.0010624858550727367
1782813965039470300,0.60947021484375,-0.0005198422586545348,-0.0012796935625374317,-0.0006790140178054571
1782813965059552500,0.629552490234375,0.0012844620505347848,0.00004389137029647827,-0.00013559730723500252
1782813965079634400,0.649634521484375,-0.00034305668668821454,-0.000875961035490036,-0.002313596196472645
1782813965099716400,0.66971630859375,-0.0009478981955908239,0.00003932788968086243,-0.0009536752477288246
1782813965119798500,0.689798583984375,-0.00102048902772367,-0.0003701816312968731,-0.0004992543254047632
1782813965139880400,0.70988037109375,0.0007774145342409611,-0.0018332523759454489,0.0013884740183129907
1782813965159962400,0.72996240234375,0.00021904194727540016,0.00015469593927264214,-0.00120584387332201
1782813965180044300,0.750044189453125,0.000052471295930445194,0.0005582226440310478,0.0007466430542990565
1782813965200126500,0.77012646484375,0.0006889979122206569,-0.0010774824768304825,0.000036238692700862885
1782813965220208400,0.79020849609375,0.0012881297152489424,0.0010300688445568085,0.0011558911064639688
1782813965240290300,0.810290283203125,-0.00020521978149190545,-0.00003879517316818237,0.0009887871565297246
1782813965260372500,0.83037255859375,-0.00024109933292493224,-0.00022046035155653954,0.001400871784426272
1782813965280454400,0.850454345703125,-0.0003305677673779428,-0.001030247425660491,-0.001791216665878892
1782813965300536300,0.870536376953125,0.00034269498428329825,-0.0006686486303806305,0.0020896231289952993
1782813965320618500,0.890618408203125,-0.0017370020505040884,0.000003598630428314209,-0.0009290480520576239
1782813965340700400,0.910700439453125,0.0005397654604166746,0.00046773161739110947,0.0013625654391944408
1782813965360782300,0.9307822265625,0.0006832894869148731,-0.0005610678344964981,-0.00024289637804031372
1782813965380864300,0.9508642578125,0.00011149412603117526,-0.0007099069189280272,-0.0009570647962391376
1782813965400946400,0.970946533203125,0.00017277852748520672,-0.0017126917373389006,0.002587801543995738
1782813965421028400,0.9910283203125,0.00014373351586982608,0.0017792843282222748,-0.0013634581118822098
1782813965441110300,1.0111103515625,0.0011089807376265526,-0.0004715719260275364,0.0020257108844816685
1782813965461192400,1.0311923828125,0.00037857514689676464,0.0005816854536533356,-0.00015186332166194916
1782813965481274400,1.0512744140625,0.0005659690941683948,-0.0005086036399006844,0.001076411921530962
1782813965501356300,1.071356201171875,0.00034000969026237726,0.00015154341235756874,0.0014057961525395513
1782813965521438500,1.0914384765625,-0.0011716346489265561,0.0005216263234615326,-0.0010161022655665874
1782813965541520400,1.111520263671875,0.0019701856654137373,-0.0003224578686058521,0.0015316493809223175
1782813965561602300,1.131602294921875,-0.00003059743903577328,-0.00011891452595591545,0.0004194718785583973
1782813965581684200,1.151684326171875,-0.0004564354312606156,-0.00017471425235271454,0.00017841323278844357
1782813965601766400,1.171766357421875,-0.0008027693838812411,-0.00020819762721657753,-0.00036806613206863403
1782813965621848300,1.191848388671875,-0.0014608987839892507,-0.0009457007981836796,-0.0012472218368202448
1782813965641930200,1.21193017578125,-0.00022669746249448508,0.0008701244369149208,0.0001417575404047966
1782813965662011400,1.232011474609375,0.00015225177048705518,-0.002943336497992277,0.0010283133015036583
1782813965682093300,1.25209326171875,-0.0003861506120301783,-0.0002954090014100075,-0.0015043525490909815
1782813965702175500,1.272175537109375,-0.0006354625802487135,0.00010286783799529076,-0.003038636175915599
1782813965722257400,1.29225732421875,-0.0003012607921846211,-0.0022284206934273243,0.0004500863142311573
1782813965742339300,1.31233935546875,0.0004080526705365628,-0.00020632613450288773,-0.00010536401532590389
1782813965762421200,1.332421142578125,-0.0011404294054955244,-0.0009359563700854778,-0.0005495408549904823
1782813965782503400,1.35250341796875,0.000545312010217458,-0.0007472129072993994,-0.0016078923363238573
1782813965802585300,1.37258544921875,0.000738448987249285,-0.00022198446094989777,-0.0012272687163203955
1782813965822667300,1.392667236328125,0.00007967828423716128,0.00047117751091718674,0.0016525471583008766
1782813965842749400,1.41274951171875,-0.00007365757483057678,0.0008305073715746403,0.0007656140951439738
1782813965862831400,1.432831298828125,-0.0006561176851391792,-0.0014244725462049246,0.0016755745746195316
1782813965882913300,1.452913330078125,-0.001120454864576459,0.00038925325497984886,-0.001413246151059866
1782813965902995500,1.472995361328125,0.0006126146763563156,0.00014236150309443474,-0.0002703226637095213
1782813965923077400,1.493077392578125,-0.000977456453256309,-0.0013271842617541552,0.0009029916254803538
1782813965943159300,1.5131591796875,-0.00016783722094260156,0.0008845748379826546,-0.0013448945246636868
1782813965963241200,1.5332412109375,0.00026857867487706244,-0.0026542029809206724,-0.0004851564299315214
1782813965983323400,1.553323486328125,0.00008817229536361992,0.0005570491775870323,-0.00016600335948169231
1782813966003405300,1.5734052734375,-0.0008393964380957186,-0.00017994176596403122,-0.0015701856464147568
1782813966023487200,1.5934873046875,0.00007500709034502506,-0.0001809876412153244,0.0016071159625425935
1782813966043570000,1.61356982421875,0.00016188278095796704,-0.000016750767827033997,-0.0016354646068066359
1782813966063652000,1.633652099609375,-0.00040683522820472717,0.0008891983889043331,0.0015750944148749113
1782813966083734000,1.653734130859375,-0.0010790989035740495,-0.00017887167632579803,0.0007659465773031116
1782813966103816000,1.67381591796875,0.000728728249669075,0.000899316743016243,0.0015060650184750557
1782813966123898000,1.693898193359375,-0.0005703347269445658,-0.001347920624539256,0.001930914120748639
1782813966143980000,1.71397998046875,-0.0008412988972850144,0.00022579357028007507,0.0013546551344916224
1782813966164061200,1.734061279296875,0.0005829917499795556,-0.0013416274450719357,-0.00026480364613234997
1782813966184143000,1.75414306640625,-0.00008734538278076798,-0.00027701864019036293,0.00058893789537251
1782813966204225000,1.77422509765625,0.000060098012909293175,-0.00018905755132436752,0.001901581883430481
1782813966224307000,1.794306884765625,0.000505850650370121,-0.0005158272106200457,0.000483865849673748
1782813966244389000,1.81438916015625,-0.00045648604282177985,0.0010361685417592525,0.0019139447249472141
1782813966264471000,1.834470947265625,-0.00022487036767415702,-0.00039432570338249207,0.00023620598949491978
1782813966284553000,1.854552978515625,-0.00017846806440502405,0.00052646454423666,0.0004368005320429802
1782813966304635100,1.87463525390625,-0.001347479410469532,-0.0007461477071046829,-0.0002911621704697609
1782813966324717000,1.894717041015625,0.00025049614487215877,0.00020041968673467636,-0.00018339930102229118
1782813966344799000,1.914799072265625,0.000981945893727243,-0.001139829633757472,0.0007716560503467917
1782813966364881200,1.934881103515625,-0.00039278840995393693,0.0009826966561377048,-0.0013719110284000635
1782813966384963000,1.954963134765625,0.00015121058095246553,-0.002176216570660472,-0.0006302949041128159
1782813966405045000,1.975044921875,0.0007576995994895697,-0.001868740189820528,-0.00034050364047288895
1782813966425127000,1.995126953125,-0.0007004428771324456,0.0017955792136490345,0.0012680935906246305
1782813966445209000,2.015208984375,0.0006460406584665179,-0.00021536601707339287,-0.0007885606028139591
1782813966465291000,2.035291015625,-0.0012855229433625937,-0.0009044501930475235,0.0012239195639267564
1782813966485373000,2.055373046875,-0.0005349703133106232,0.0011192644014954567,0.0008604013128206134
1782813966505455000,2.075455078125,-0.0005760659696534276,-0.0004333360120654106,0.00037667714059352875
1782813966525537000,2.095537109375,-0.0005397172062657773,0.00038387998938560486,-0.0013671517372131348
1782813966545619000,2.115618896484375,-0.0003200327046215534,0.0002727699466049671,-0.00010448996908962727
1782813966565701000,2.135701171875,0.0004824843490496278,0.0005898787640035152,-0.0008212681859731674
1782813966585783000,2.155782958984375,-0.000007972470484673977,-0.0016742313746362925,0.0014343326911330223
1782813966605864000,2.175864013671875,0.0013300762511789799,0.0012837504036724567,-0.00121534732170403
1782813966625946000,2.195946044921875,-0.0015182329807430506,-0.0003247307613492012,-0.00126146269030869
1782813966646028000,2.216028076171875,-0.0004948400892317295,-0.0022314235102385283,0.0009852595394477248
1782813966666110000,2.23610986328125,0.0016845688223838806,0.00134293083101511,-0.0028921542689204216
1782813966686192000,2.256192138671875,0.0006308673764578998,-0.0018379348330199718,0.0016152980970218778
1782813966706274000,2.276274169921875,0.0002159475116059184,0.0008291266858577728,0.00033193384297192097
1782813966726356000,2.29635595703125,0.0009696358465589583,-0.0008333334699273109,0.0007419987814500928
1782813966746438100,2.316438232421875,-0.0004670795751735568,0.0003994540311396122,0.0028744074515998363
1782813966766520000,2.33652001953125,-0.0008206811035051942,-0.0009113338310271502,0.00072098383679986
1782813966786602000,2.35660205078125,0.00006505314377136528,-0.00006868317723274231,0.0016473555006086826
1782813966806684000,2.376683837890625,-0.0008310223347507417,0.0003246413543820381,0.0010354104451835155
1782813966826766000,2.39676611328125,0.000526357558555901,0.0020179999992251396,-0.0009718937799334526
1782813966846848000,2.416847900390625,0.00044038513442501426,0.0002083107829093933,0.0009901038138195872
1782813966866930000,2.436929931640625,-0.0006716542411595583,0.001025964505970478,0.0007019398035481572
1782813966887012000,2.45701220703125,-0.0003720688109751791,0.0005817916244268417,-0.0015343613922595978
1782813966907094000,2.477093994140625,-0.00012571508705150336,-0.0010804145131260157,0.003919507376849651
1782813966927176000,2.497176025390625,0.0007246553432196379,-0.000007918570190668106,-0.0017981540877372026
1782813966947258000,2.517258056640625,0.0010947296395897865,0.00010185129940509796,-0.0015219419728964567
1782813966967340000,2.537340087890625,-0.00024177672457881272,-0.0012538472656160593,0.0024002492427825928
1782813966987422000,2.557421875,0.00027567383949644864,0.002897832076996565,-0.0024787811562418938
1782813967007503000,2.577503173828125,-0.0006222303491085768,-0.002689742250367999,0.00047538860235363245
1782813967027585000,2.5975849609375,0.00007857283344492316,0.0014069019816815853,-0.0009069624356925488
1782813967047666700,2.617666748046875,-0.0021211556158959866,-0.00020467350259423256,-0.0010681555140763521
1782813967067748900,2.637748779296875,0.000835483311675489,0.0001812581904232502,0.0020661354064941406
1782813967087830800,2.657830810546875,0.00051130261272192,0.0014634155668318272,-0.0014958556275814772
1782813967107912700,2.67791259765625,0.0016552114393562078,-0.001331899780780077,0.002682509832084179
1782813967127995000,2.697994873046875,0.00022584525868296623,0.0012513864785432816,-0.0006665848195552826
1782813967148076800,2.718076904296875,-0.001172240125015378,0.00004361988976597786,0.0005009978776797652
1782813967168158700,2.73815869140625,-0.00015536826686002314,0.00035983696579933167,0.0011464421404525638
1782813967188240600,2.75824072265625,0.0002698848838917911,-0.000992204761132598,-0.002142461482435465
1782813967208322800,2.77832275390625,0.0005083786090835929,0.00022134045138955116,0.001248240121640265
1782813967228404700,2.79840478515625,0.00015186864766292274,0.0007689287886023521,-0.0010564769618213177
1782813967248486700,2.818486572265625,-0.0026379514019936323,-0.0005846614949405193,0.0016407286748290062
1782813967268568800,2.83856884765625,0.0007743776659481227,0.0007424326613545418,-0.0014977927785366774
1782813967288650800,2.858650634765625,0.0010286013130098581,-0.0008471191395074129,-0.00003634789027273655
1782813967308732700,2.878732666015625,0.0001970120647456497,0.00022956868633627892,0.00009728036820888519
1782813967328814800,2.89881494140625,0.0008927804883569479,-0.0004196041263639927,-0.002027984010055661
1782813967348896800,2.918896728515625,0.0010505185928195715,0.0003685140982270241,0.001936830929480493
1782813967368978700,2.938978759765625,-0.00005610179505310953,0.0011336947791278362,0.0014111753553152084
1782813967389059800,2.959059814453125,-0.0005486393347382545,-0.0003589121624827385,0.00010521546937525272
1782813967409141800,2.979141845703125,-0.00046645523980259895,0.00038345810025930405,0.000278951833024621
1782813967429223700,2.9992236328125,-0.0000897235149750486,0.00038303155452013016,0.00008028256706893444
1782813967449305900,3.019305908203125,0.0009906776249408722,-0.00036301231011748314,0.0017093461938202381
1782813967469387800,3.0393876953125,-0.0011276563163846731,0.0012151170521974564,0.0016688928008079529
1782813967489469700,3.0594697265625,-0.00055484171025455,0.00045423489063978195,0.0003659182693809271
1782813967509551900,3.0795517578125,0.0004878535692114383,-0.0013189020100980997,-0.0005445994902402163
1782813967529633800,3.0996337890625,-0.0003391283971723169,-0.0012317318469285965,-0.0000448648352175951
1782813967549715700,3.1197158203125,0.0004389434470795095,0.003006506711244583,-0.001691021490842104
1782813967569797600,3.139797607421875,0.0007914095185697079,-0.002546996343880892,0.0025586034171283245
1782813967589879800,3.1598798828125,0.000038664438761770725,0.0025451509281992912,-0.0007805542554706335
1782813967609961700,3.179961669921875,0.0008896369254216552,-0.0015490322839468718,-0.0024042651057243347
1782813967630043600,3.200043701171875,-0.00024583778576925397,-0.0011649052612483501,0.003055484499782324
1782813967650125800,3.220125732421875,0.0004440431366674602,0.001335392240434885,-0.004386653192341328
1782813967670207700,3.240207763671875,0.0011922772973775864,-0.0016306950710713863,0.0008835088228806853
1782813967690289700,3.26028955078125,0.00067355134524405,0.001049739308655262,-0.002282615751028061
1782813967710371800,3.280371826171875,-0.0002696322917472571,-0.00043842033483088017,0.001207789871841669
1782813967730453800,3.300453857421875,0.0016035046428442001,-0.00046126474626362324,0.0006083020707592368
1782813967750534700,3.32053466796875,-0.0006929413648322225,0.0025843270123004913,-0.0014817388728260994
1782813967770616800,3.340616943359375,0.0008496413938701153,-0.0001500663347542286,-0.00020128977485001087
1782813967790698800,3.36069873046875,-0.0004250858910381794,0.0009402311407029629,-0.0006371652707457542
1782813967810780700,3.38078076171875,0.00024035410024225712,-0.0009094057604670525,0.0007086324039846659
1782813967830862800,3.40086279296875,-0.00032917867065407336,-0.00042023020796477795,-0.0008677111472934484
1782813967850944800,3.42094482421875,-0.0010037277825176716,0.0006839083507657051,-0.0011668095830827951
1782813967871026700,3.441026611328125,-0.0001128294097725302,-0.0002571477089077234,-0.00011347350664436817
1782813967891108900,3.46110888671875,0.001194914453662932,0.0011222409084439278,-0.0003079371526837349
1782813967911190800,3.481190673828125,-0.0003939815505873412,-0.0010770938824862242,0.001596594462171197
1782813967931272700,3.501272705078125,0.00047445957898162305,0.0015093996189534664,-0.0020515492651611567
1782813967951354600,3.521354736328125,-0.0013976430054754019,-0.0008878109510987997,0.0018801824189722538
1782813967971436800,3.541436767578125,0.00013297534314915538,0.00048669520765542984,-0.00006428011693060398
1782813967991518700,3.561518798828125,0.0003481236635707319,0.00022267969325184822,0.00016642967239022255
1782813968011600600,3.5816005859375,-0.0002642389154061675,-0.0001347595825791359,0.0027282722294330597
1782813968031682800,3.601682861328125,0.0017841834342107177,0.000576910562813282,-0.0024738225620239973
1782813968051764700,3.6217646484375,0.0004909054841846228,-0.0015855904202908278,0.0033467982430011034
1782813968071846700,3.6418466796875,-0.0009061757591553032,0.0006199930794537067,-0.001016079680994153
1782813968091928800,3.6619287109375,0.0005667471559718251,0.0015611336566507816,-0.00040480494499206543
1782813968112009500,3.682009521484375,-0.00039021536940708756,0.00004974612966179848,0.0010454506846144795
1782813968132091600,3.702091552734375,0.00003914232365787029,0.0007509901188313961,-0.0006710279267281294
1782813968152173600,3.722173583984375,-0.0014918280066922307,-0.00017947563901543617,0.0016727184411138296
1782813968172255700,3.742255859375,-0.0009134217980317771,0.0007170294411480427,-0.0003745106514543295
1782813968192337700,3.762337646484375,0.00025735399685800076,-0.0005017104558646679,0.0008543520234525204
1782813968212419800,3.782419921875,-0.0009107158984988928,0.0010739490389823914,0.0006762571865692735
1782813968232501800,3.802501708984375,-0.0014670060481876135,-0.00011832965537905693,-0.0012545729987323284
1782813968252583700,3.822583740234375,0.0007689857156947255,0.0007388493977487087,-0.0007592327892780304
1782813968272665900,3.842665771484375,0.0009236119221895933,0.0008431114256381989,-0.002638954436406493
1782813968292747800,3.862747802734375,-0.00007321123848669231,-0.000434377696365118,-0.0004717072006314993
1782813968312829700,3.88282958984375,0.0003489671798888594,-0.00037193926982581615,0.0003013412933796644
1782813968332911600,3.90291162109375,-0.0007425082148984075,0.00047102849930524826,0.0006788593018427491
1782813968352993800,3.922993896484375,-0.0007409700192511082,-0.000248943455517292,-0.0030257904436439276
1782813968373075700,3.94307568359375,-0.001913437619805336,0.00005931174382567406,-0.0009339307434856892
1782813968393157600,3.96315771484375,0.00013558138743974268,-0.0017140344716608524,0.0008062594570219517
1782813968413239800,3.98323974609375,-0.00018595208530314267,0.0007508601993322372,-0.0010313729289919138
1782813968433320400,4.003320556640625,-0.0005332374712452292,-0.0005500123370438814,-0.0003794357180595398
1782813968453402600,4.023402587890625,-0.0006056723068468273,-0.0004876104649156332,-0.00047051231376826763
1782813968473484800,4.04348486328125,-0.00012203634832985699,-0.0008176872506737709,-0.0008934480138123035
1782813968493566700,4.063566650390625,-0.0014392351731657982,-0.0011668947990983725,-0.0005792304873466492
1782813968513648600,4.083648681640625,-0.0005093542858958244,0.0006004646420478821,-0.00024397368542850018
1782813968533730800,4.103730712890625,0.0012930749217048287,-0.0010311275254935026,0.0016422051703557372
1782813968553812700,4.123812744140625,0.0006009904900565743,0.0008772192522883415,-0.002157906536012888
1782813968573894700,4.143894775390625,-0.00010190044122282416,-0.000614227494224906,0.002005553338676691
1782813968593976800,4.163976806640625,0.00029382624779827893,0.001383583527058363,-0.0018132873810827732
1782813968614058800,4.184058837890625,0.00015064739272929728,-0.000013096258044242859,0.0007676648674532771
1782813968634140700,4.204140625,-0.0012526226928457618,0.0002015465870499611,-0.0006358721293509007
1782813968654222800,4.224222900390625,0.0005798801430501044,0.0011298512108623981,0.00012154015712440014
1782813968674304800,4.2443046875,-0.0021133245900273323,-0.001736331032589078,0.0029256315901875496
1782813968694386700,4.26438671875,-0.0001751056406646967,0.002166023477911949,-0.0005613029934465885
1782813968714468600,4.284468505859375,-0.0001653828949201852,-0.0008757964242249727,0.0023921034298837185
1782813968734549500,4.304549560546875,0.0005763815715909004,0.0009800088591873646,-0.00009020185098052025
1782813968754631400,4.32463134765625,-0.00034983345540240407,0.0003780354745686054,0.0004134757909923792
1782813968774713900,4.3447138671875,-0.0002166716440115124,-0.0002525718882679939,0.0011835431214421988
1782813968794795800,4.364795654296875,0.0007843797793611884,0.002239834051579237,-0.00020698853768408298
1782813968814877700,4.384877685546875,0.0009430884965695441,-0.001666047377511859,0.00021095131523907185
1782813968834960000,4.4049599609375,0.0005029526073485613,-0.00016367388889193535,-0.0012432339135557413
1782813968855041800,4.425041748046875,-0.0005779940402135253,0.0009825881570577621,-0.0026778383180499077
1782813968875123700,4.445123779296875,0.000010838150046765804,-0.0033059720881283283,0.0013629765016958117
1782813968895205600,4.46520556640625,0.000052317307563498616,-0.00003484729677438736,-0.0005980061832815409
1782813968915287800,4.485287841796875,0.0006769897881895304,0.0003528422676026821,-0.0018241261132061481
1782813968935369700,4.50536962890625,-0.00017767533427104354,-0.0005640673916786909,-0.0003551726695150137
1782813968955451600,4.52545166015625,-0.00023940045502968132,0.0005810880102217197,-0.0006004977039992809
1782813968975533800,4.545533935546875,0.0006056194542907178,-0.0006733653135597706,0.0008516736561432481
1782813968995615700,4.56561572265625,-0.000003779627149924636,0.00041103409603238106,-0.0005013416521251202
1782813969015696600,4.585696533203125,0.0012172367423772812,-0.0008091332856565714,-0.0006998628377914429
1782813969035778600,4.605778564453125,0.00007135816849768162,-0.0002600178122520447,0.001059461385011673
1782813969055860500,4.625860595703125,-0.0004263998125679791,-0.0008576875552535057,-0.0022958614863455296
1782813969075942700,4.645942626953125,0.0003167950198985636,-0.00050133909098804,-0.0007590679451823235
1782813969096024800,4.66602490234375,0.0006004017777740955,-0.00011205952614545822,-0.001141824759542942
1782813969116106800,4.686106689453125,0.000818852277006954,-0.00006384169682860374,-0.0002939370460808277
1782813969136188700,4.706188720703125,0.0002464636927470565,-0.0005195194389671087,-0.0006857835687696934
1782813969156270800,4.726270751953125,-0.0001582646946189925,0.0004165112040936947,0.0002731706481426954
1782813969176352800,4.746352783203125,-0.0008800427312962711,-0.00015577860176563263,-0.0009048590436577797
1782813969196434700,4.7664345703125,0.0004620398976840079,-0.0012816144153475761,0.0002953603398054838
1782813969216516600,4.7865166015625,0.0009342181729152799,-0.0007829372771084309,-0.0014603831805288792
1782813969236598800,4.806598876953125,0.00009296563803218305,-0.001194327138364315,0.0005736234597861767
1782813969256680700,4.8266806640625,-0.0017598771955817938,-0.0002921191044151783,-0.00037967879325151443
1782813969276762600,4.8467626953125,0.0008727215463295579,0.0012422879226505756,-0.0002965410239994526
1782813969296843500,4.866843505859375,0.0005910225445404649,-0.0007933015003800392,-0.00009715580381453037
1782813969316925400,4.886925537109375,0.0006393478251993656,-0.0007392808329313993,0.0008642305620014668
1782813969337007600,4.907007568359375,0.00011064414866268635,0.002258299384266138,-0.001220758305862546
1782813969357089500,4.927089599609375,0.0005091822240501642,-0.0020284780766814947,0.0028313477523624897
1782813969377171700,4.947171630859375,-0.000638165045529604,0.0013735033571720123,-0.0002764256205409765
1782813969397253600,4.967253662109375,0.0011166069889441133,-0.0009462595917284489,-0.0014494340866804123
1782813969417335800,4.987335693359375,0.0006915897247381508,0.00037418631836771965,0.0003243819810450077
1782813969437417700,5.007417724609375,-0.00209148321300745,0.00007308740168809891,-0.002274583326652646
1782813969457499600,5.027499755859375,-0.0007699667476117611,-0.0022205556742846966,0.003047429956495762
1782813969477581800,5.047581787109375,0.000910530099645257,0.0006858315318822861,-0.0016848105005919933
1782813969497663700,5.067663818359375,-0.0009309767046943307,-0.00041158776730298996,-0.0022732375655323267
1782813969517745700,5.08774560546875,-0.0009630097774788737,0.00029802974313497543,0.0007116639753803611
1782813969537827800,5.107827880859375,0.0012337081134319305,0.001459635328501463,-0.0020218994468450546
1782813969557908500,5.127908447265625,0.0011832138989120722,-0.0022859186865389347,-0.0005788665730506182
1782813969577990700,5.14799072265625,-0.001312771113589406,-0.0011238399893045425,0.0001188395544886589
1782813969598072600,5.168072509765625,0.0005720951012335718,0.0006031505763530731,-0.001631460851058364
1782813969618154500,5.188154541015625,0.0008884541457518935,-0.0015352675691246986,0.001458209939301014
1782813969638236400,5.208236328125,0.00045542503357864916,-0.0009681831579655409,-0.0009182277135550976
1782813969658318600,5.228318603515625,0.0009653972228989005,-0.0022950777783989906,-0.0008376950863748789
1782813969678400800,5.24840087890625,-0.00018746734713204205,0.001046427059918642,0.000792153412476182
1782813969698482700,5.268482666015625,-0.0010426717344671488,-0.0006937163416296244,-0.001333898864686489
1782813969718564900,5.28856494140625,0.00020996673265472054,-0.0007489961571991444,-0.00045539718121290207
1782813969738646800,5.308646728515625,-0.0008648891234770417,0.00036499183624982834,-0.0006658125203102827
1782813969758728700,5.328728759765625,-0.000545874354429543,0.00030250102281570435,-0.0014510483015328646
1782813969779436500,5.3494365234375,0.0014175401302054524,-0.0005409475415945053,-0.0008070874027907848
1782813969799518500,5.3695185546875,0.0008544838055968285,-0.0005682017654180527,-0.0004408997483551502
1782813969819600600,5.3896005859375,0.001714480691589415,-0.0004191487096250057,0.0009927140781655908
1782813969839682600,5.4096826171875,0.0004745845217257738,-0.0008161079604178667,0.0010419002501294017
1782813969859764500,5.429764404296875,0.0014740634942427278,-0.00006954604759812355,0.0007264843443408608
1782813969879846700,5.4498466796875,0.00023117969976738095,-0.0001379484310746193,-0.0011817060876637697
1782813969899928600,5.469928466796875,-0.002632393967360258,0.0003818431869149208,0.002187422476708889
1782813969920010500,5.490010498046875,0.00012085988419130445,-0.0005530477501451969,0.0015476378612220287
1782813969940092700,5.5100927734375,-0.0003037031274288893,-0.0009356106165796518,-0.0004792038816958666
1782813969960174600,5.530174560546875,0.00017159647541120648,-0.00030197110027074814,-0.00005461042746901512
1782813969980256500,5.550256591796875,-0.0006661874358542264,0.00007333466783165932,0.00017102109268307686
1782813970000338400,5.57033837890625,0.00027674282318912446,-0.0015699227806180716,-0.000021483981981873512
1782813970020420600,5.590420654296875,0.00036318934871815145,0.0010061804205179214,0.0002663948107510805
1782813970040501500,5.61050146484375,0.0014221390010789037,0.00031748414039611816,-0.0001013271976262331
1782813970060584200,5.630584228515625,-0.0014534539077430964,-0.00031690625473856926,0.0011687364894896746
1782813970080666400,5.650666259765625,-0.0005832714377902448,-0.0006692465394735336,-0.000708101550117135
1782813970100748300,5.670748291015625,-0.00019853143021464348,-0.0005650282837450504,0.0007214888464659452
1782813970120203300,5.690203369140625,-0.00009826896712183952,0.0005264435894787312,0.0009285139385610819
1782813970140285200,5.71028515625,0.0012032461818307638,0.0012262663803994656,0.0017262290930375457
1782813970160367400,5.730367431640625,-0.00009923889592755586,0.00004616100341081619,0.0004521764349192381
1782813970180449300,5.75044921875,-0.000691020512022078,-0.0005869946908205748,-0.0007534234318882227
1782813970200531200,5.77053125,0.00030136111308820546,-0.0004601599648594856,-0.002179190283641219
1782813970220613000,5.790613037109375,0.00037462488398887217,-0.0009580599144101143,-0.0007692431099712849
1782813970240695300,5.8106953125,-0.00016587384743615985,0.0003008674830198288,-0.002936391159892082
1782813970260777200,5.830777099609375,-0.0007512486772611737,-0.0020382474176585674,0.001373010571114719
1782813970280859100,5.850859130859375,0.0008783205994404852,0.002592654898762703,-0.001009943662211299
1782813970300941300,5.87094140625,0.0007692195940762758,0.0006400891579687595,-0.0006504945922642946
1782813970321023200,5.891023193359375,0.0005124292802065611,-0.000652338145300746,0.0002988975029438734
1782813970341104400,5.9111044921875,0.00042429217137396336,0.0013846992515027523,-0.0013049808330833912
1782813970361186300,5.931186279296875,-0.0007883916841819882,-0.0006251260638237,0.002095287898555398
1782813970381268200,5.951268310546875,0.0005726040108129382,0.0010786866769194603,-0.0011964649893343449
1782813970401350100,5.97135009765625,0.0014948796015232801,0.0007128911092877388,0.0013106815749779344
1782813970421432300,5.991432373046875,0.00015940360026434064,-0.0015798951499164104,0.000812384532764554
1782813970441514200,6.01151416015625,0.0007121142698451877,0.00042013637721538544,-0.0019518113695085049
1782813970461596200,6.03159619140625,0.00030778086511418223,0.000009856652468442917,-0.0009443797171115875
1782813970481678300,6.05167822265625,0.0014028605073690414,-0.0014221507590264082,-0.0004749405197799206
1782813970501760300,6.07176025390625,-0.00010239091352559626,-0.0005249057430773973,-0.0005380569491535425
1782813970521842200,6.09184228515625,-0.00009968520316760987,-0.0005364026874303818,0.0011897259391844273
1782813970541924400,6.11192431640625,0.00020429614232853055,0.0004474804736673832,-0.0007680533453822136
1782813970562006300,6.13200634765625,0.0008758716867305338,-0.0009157820604741573,-0.0012924347538501024
1782813970582088200,6.152088134765625,0.0019360666628926992,0.0008928640745580196,0.001197023899294436
1782813970602169300,6.17216943359375,0.00010583546827547252,0.00013580173254013062,0.0017129043117165565
1782813970622251300,6.192251220703125,0.00007180601824074984,0.0005571376532316208,0.0008132823277264833
1782813970642333200,6.212333251953125,0.0008017066866159439,0.000541346613317728,0.002019474282860756
1782813970662415400,6.232415283203125,-0.00033894513035193086,-0.0003934628330171108,0.0009171614656224847
1782813970682497300,6.252497314453125,-0.00022566402913071215,-0.0013277970720082521,0.0018750831950455904
1782813970702579200,6.2725791015625,-0.002697923220694065,-0.00023370841518044472,0.0007150630699470639
1782813970722661400,6.292661376953125,0.00016518449410796165,0.0006250082515180111,-0.000930518377572298
1782813970742743300,6.312743408203125,-0.00020740421314258128,-0.0015789135359227657,0.0022429386153817177
1782813970762825200,6.3328251953125,-0.0014020396629348397,0.00025213276967406273,-0.0008761298377066851
1782813970782907100,6.3529072265625,-0.0006369335460476577,-0.0011254658456891775,-0.000989491119980812
1782813970802989300,6.3729892578125,0.0009220881620422006,0.00026040105149149895,0.00033489917404949665
1782813970823071200,6.3930712890625,-0.00019121263176202774,0.001975405029952526,-0.0006938767619431019
1782813970843153200,6.413153076171875,0.00012872795923613012,-0.002115007722750306,0.0014945873990654945
1782813970863235300,6.4332353515625,-0.0001899407070595771,0.0009400602430105209,-0.002046964829787612
1782813970883316200,6.453316162109375,-0.000020384788513183594,-0.001655432628467679,-0.0002234182320535183
1782813970903398400,6.4733984375,-0.001437089522369206,-0.000026300549507141113,-0.0020672446116805077
1782813970923480300,6.493480224609375,0.0005368028650991619,0.0008659297600388527,-0.0016675342340022326
1782813970943562200,6.513562255859375,0.0009396289242431521,-0.0009369542822241783,0.002188780577853322
1782813970963644200,6.53364404296875,0.00038639214471913874,0.001951728481799364,-0.0014305929653346539
1782813970983726300,6.553726318359375,0.00014693450066260993,-0.0008664836641401052,0.0018863036530092359
1782813971003808300,6.573808349609375,0.00021575772552751005,0.0007664160802960396,-0.002046512207016349
1782813971023890200,6.59389013671875,0.0004991362802684307,0.00048549799248576164,0.00023797841276973486
1782813971043972400,6.613972412109375,0.0002941591665148735,-0.00041083991527557373,0.0005166346672922373
1782813971064053500,6.634053466796875,0.0013204580172896385,0.00015508802607655525,-0.002730719745159149
1782813971084135400,6.654135498046875,0.0014819644857198,-0.0011127570178359747,0.0005995847750455141
1782813971104217600,6.674217529296875,0.000313017051666975,0.0001922985538840294,-0.002539712004363537
1782813971124298500,6.694298583984375,-0.001012942404486239,-0.00013487180694937706,-0.002935538301244378
1782813971144380700,6.714380615234375,-0.00013580099039245397,-0.0016926010139286518,0.0005422370741143823
1782813971164462600,6.734462646484375,0.0004178061499260366,0.0005796314217150211,-0.002338661113753915
1782813971184544500,6.75454443359375,0.0003365655429661274,0.00024629663676023483,-0.00015083164907991886
1782813971204626700,6.774626708984375,0.00012251283624209464,-0.000439284835010767,-0.001094078877940774
1782813971224708600,6.79470849609375,0.00011778422049246728,0.00043015601113438606,-0.0011063071433454752
1782813971244790500,6.81479052734375,0.00026206066831946373,-0.0009364504367113113,-0.0002711906563490629
1782813971264872400,6.83487255859375,-0.0004342565080150962,-0.00023198220878839493,-0.00028133857995271683
1782813971284954600,6.85495458984375,-0.0018252194859087467,0.000005051959306001663,0.0015072624664753675
1782813971305036500,6.87503662109375,0.0013374167028814554,0.0007085967808961868,0.0008591294754296541
1782813971325118500,6.895118408203125,0.0013043911894783378,0.00018822494894266129,0.00128947664052248
1782813971345200600,6.91520068359375,0.000581568107008934,-0.0008808940183371305,0.0019605804700404406
1782813971365282600,6.935282470703125,0.000840096443425864,0.00021588755771517754,0.0000473617110401392
1782813971385363500,6.955363525390625,-0.0016836111899465322,0.000040164217352867126,-0.00009532389231026173
1782813971405445600,6.975445556640625,-0.000010180228855460882,-0.0007675052620470524,0.0011541617568582296
1782813971425527600,6.995527587890625,-0.0015118018491193652,-0.00022942852228879929,0.0005078384419903159
1782813971445609500,7.015609375,-0.0007234420627355576,-0.000003957189619541168,0.0019110586727038026
1782813971465691600,7.035691650390625,0.0004937825142405927,-0.00021931389346718788,-0.0014486175496131182
1782813971485773600,7.055773681640625,-0.00015162472845986485,0.00005119713023304939,-0.00027124187909066677
1782813971505855500,7.07585546875,-0.00020287546794861555,0.0006830901838839054,-0.0010046132374554873
1782813971525937700,7.095937744140625,0.0008825394907034934,-0.0014452091418206692,-0.001946313539519906
1782813971546019600,7.11601953125,-0.0016109072603285313,-0.0019003425259143114,0.002759623806923628
1782813971566101500,7.1361015625,0.00032574398210272193,0.0013867272064089775,-0.003263894934207201
1782813971586183400,7.156183349609375,-0.00038694299291819334,-0.0019420669414103031,-0.0005986739415675402
1782813971606264600,7.1762646484375,0.00060474086785689,-0.0004693819209933281,-0.0005301723722368479
1782813971626346500,7.196346435546875,0.0005559024284593761,-0.001043239375576377,-0.0014511970803141594
1782813971646428700,7.2164287109375,-0.0005219849990680814,-0.0023915187921375036,0.0006021737353876233
1782813971666510600,7.236510498046875,-0.0010253733489662409,0.0015921154990792274,-0.0021573726553469896
1782813971686592500,7.256592529296875,0.00019965655519627035,-0.0026283878833055496,0.0008731181733310223
1782813971706674700,7.2766748046875,-0.0014796281466260552,-0.0006363107822835445,-0.00004498288035392761
1782813971726756600,7.296756591796875,-0.0012682203669101,-0.0008724620565772057,-0.00021387008018791676
1782813971746838500,7.316838623046875,-0.001145028742030263,-0.0007078486960381269,-0.0003897694405168295
1782813971766920400,7.33692041015625,-0.00003812511567957699,0.0006460314616560936,-0.0018305894918739796
1782813971787002600,7.357002685546875,0.00039926290628500283,-0.00072440505027771,0.00033349054865539074
1782813971807084500,7.37708447265625,-0.0008427131688222289,-0.00043088849633932114,-0.0002779581118375063
1782813971827165700,7.397165771484375,0.0009065051563084126,0.00001963786780834198,-0.0005162430461496115
1782813971847247600,7.41724755859375,0.0005635876441374421,-0.00122296460904181,-0.0007630931213498116
1782813971867329500,7.43732958984375,-0.0009609643602743745,0.001059048343449831,0.001165613648481667
1782813971887411700,7.45741162109375,0.0003815859672613442,0.001002700999379158,-0.0015228609554469585
1782813971907493600,7.47749365234375,-0.0008193193352781236,-0.0017152626533061266,0.0007674650987610221
1782813971927575600,7.497575439453125,0.000676657713484019,0.0013120709918439388,-0.00006666476838290691
1782813971947657500,7.517657470703125,0.0008432465838268399,-0.0017784957308322191,0.0007207237649708986
1782813971967739600,7.53773974609375,-0.00022406769858207554,-0.00006663519889116287,0.0005357560003176332
1782813971987821600,7.557821533203125,0.00047244789311662316,0.0013264203444123268,-0.00039958953857421875
1782813972007903500,7.577903564453125,0.00028108060359954834,0.0005072308704257011,0.0010115542681887746
1782813972027985700,7.597985595703125,-0.0020495757926255465,0.0016073929145932198,-0.0027416569646447897
1782813972048066300,7.61806640625,-0.0013389070518314838,-0.002391581190750003,0.002535869600251317
1782813972068148500,7.6381484375,-0.0007571540190838277,0.0007598199881613255,-0.000922775361686945
1782813972088230400,7.65823046875,-0.0005362100200727582,-0.0007062745280563831,-0.0023551483172923326
1782813972108312300,7.678312255859375,-0.000051201219321228564,-0.002836930099874735,0.001005914993584156
1782813972128394200,7.698394287109375,-0.0005416577914729714,0.000085427425801754,-0.0006513416301459074
1782813972148476400,7.718476318359375,0.0007685688324272633,-0.001020672731101513,0.00018969341181218624
1782813972168558300,7.738558349609375,-0.0011699202004820108,-0.0013385014608502388,0.00026117567904293537
1782813972188640300,7.75864013671875,-0.00018281108350493014,-0.0010270182974636555,-0.0026953595224767923
1782813972208722400,7.778722412109375,0.0002597637940198183,-0.0015117954462766647,0.0013691739877685905
1782813972228804400,7.798804443359375,0.0004282314912416041,-0.0002863067202270031,-0.002126076491549611
1782813972248886300,7.81888623046875,-0.0003789275069721043,-0.0014790729619562626,0.00019462616182863712
1782813972268967400,7.838967529296875,-0.0007793249096721411,-0.002087376546114683,-0.00033991062082350254
1782813972289049300,7.85904931640625,0.0006171333370730281,0.0011792490258812904,0.00006207148544490337
1782813972309131300,7.87913134765625,0.0009239544742740691,-0.0007842383347451687,0.0008588641649112105
1782813972329213400,7.89921337890625,0.001209583249874413,0.0013501467183232307,-0.0009116092696785927
1782813972349295400,7.91929541015625,0.00041268591303378344,-0.00009461631998419762,-0.0015547042712569237
1782813972369377300,7.939377197265625,-0.0011328294640406966,0.0009141908958554268,0.0007019034819677472
1782813972389459500,7.95945947265625,0.0012964680790901184,-0.0030648396350443363,0.0004359460435807705
1782813972409541400,7.979541259765625,0.00035976190702058375,-0.00011076126247644424,0.0006399580743163824
1782813972429623300,7.999623291015625,0.0004927500849589705,0.001124825794249773,0.0004361756145954132
1782813972449705500,8.01970556640625,-0.000012831354979425669,-0.001685411436483264,0.0005060094408690929
1782813972469786400,8.039786376953124,0.0008005606941878796,-0.00033967336639761925,-0.0006597202736884356
1782813972489868300,8.059868408203124,0.0011475090868771076,0.000596153549849987,-0.002728271996602416
1782813972509950500,8.079950439453125,-0.0003173464210703969,-0.00039253197610378265,0.0010806776117533445
1782813972530032400,8.100032470703125,0.0006034548860043287,-0.0006416232790797949,0.00017847749404609203
1782813972550114300,8.1201142578125,0.0010352800600230694,-0.00009774044156074524,-0.002365573775023222
1782813972570196500,8.140196533203126,0.001319374656304717,0.00022557051852345467,-0.00019987300038337708
1782813972590278400,8.1602783203125,0.0008227022481150925,-0.0017924760468304157,-0.001528068445622921
1782813972610360300,8.1803603515625,-0.0008266174700111151,0.0008895075879991055,-0.0005935132503509521
1782813972630442500,8.2004423828125,0.0003475327102933079,0.0014188461937010288,0.0021374747157096863
1782813972650524400,8.2205244140625,-0.0004666946770157665,0.0016415389254689217,-0.0012913597747683525
1782813972670605300,8.240605224609375,0.0004631048650480807,0.00001744600012898445,-0.0006564182695001364
1782813972690687500,8.2606875,-0.00047910219291225076,-0.0005354245658963919,0.0014374860329553485
1782813972710769400,8.280769287109376,-0.00021019541600253433,0.0005002631805837154,-0.0009315968491137028
1782813972730851300,8.300851318359374,0.0001551487948745489,-0.0008122406434267759,0.0016499508637934923
1782813972750933500,8.32093359375,0.00017767914687283337,0.002376704942435026,-0.0019420054741203785
1782813972771015400,8.341015380859375,-0.0003071012906730175,0.00009483564645051956,0.0013019213220104575
1782813972791097300,8.361097412109375,0.0005023807752877474,0.0007931450381875038,-0.0006302287802100182
1782813972811179500,8.381179443359375,0.00008074709330685437,-0.00009018508717417717,-0.0005089705809950829
1782813972831261400,8.401261474609376,0.0003735106438398361,-0.0011479444801807404,0.0006799274124205112
1782813972851342300,8.42134228515625,-0.00043694963096641004,0.0011111265048384666,-0.002892526565119624
1782813972871424500,8.441424560546874,0.00010431889677420259,-0.0011178737040609121,0.0011607701890170574
1782813972891506400,8.46150634765625,-0.0002157090639229864,0.000602151732891798,-0.0033094610553234816
1782813972911588400,8.48158837890625,0.0005437703803181648,-0.0010992439929395914,-0.0008415887132287025
1782813972931670500,8.50167041015625,-0.0013259286060929298,0.002654353156685829,0.00021226704120635986
1782813972951752400,8.52175244140625,0.0008691718685440719,-0.0018975490238517523,-0.0014478599186986685
1782813972971834400,8.54183447265625,0.0003911265230271965,0.0018739663064479828,0.0011916471412405372
1782813972991916500,8.56191650390625,-0.00143413245677948,-0.000874044606462121,0.0005808309651911259
1782813973011998500,8.58199853515625,-0.00030577799770981073,0.0002555493265390396,-0.0014574644155800343
1782813973032080400,8.602080322265625,0.00004795574932359159,-0.0006494452245533466,0.0023628724738955498
1782813973052161800,8.622161865234375,0.0002624938206281513,0.0007423302158713341,-0.0021772398613393307
1782813973072243700,8.64224365234375,0.0007415853906422853,-0.0003385334275662899,-0.001056878361850977
1782813973092325600,8.66232568359375,-0.0012022231239825487,-0.000029774382710456848,0.0003976244479417801
1782813973112407800,8.68240771484375,-0.000591028481721878,-0.0006063133478164673,-0.0004592838231474161
1782813973132489700,8.70248974609375,-0.000749781436752528,-0.0017706346698105335,0.002095753327012062
1782813973152571600,8.722571533203125,-0.0009331862675026059,0.0008116639219224453,-0.002305440604686737
1782813973172653600,8.742653564453125,-0.0018999826861545444,0.0007172557525336742,0.0006905330810695887
1782813973192735700,8.76273583984375,-0.00028332386864349246,-0.000028390903025865555,0.0023603374138474464
1782813973212817700,8.782817626953126,-0.00039107660995796323,0.001529728528112173,-0.0027680033817887306
1782813973232898800,8.80289892578125,0.001394544611684978,-0.0006312243640422821,0.003265916835516691
1782813973252980700,8.822980712890624,0.001289281528443098,0.0008086389862000942,-0.0002944685984402895
1782813973273062700,8.843062744140624,0.00015714712208136916,0.000026782508939504623,-0.0009259646758437157
1782813973293144600,8.86314453125,0.00036964856553822756,-0.0021310467272996902,0.001986687071621418
1782813973313226800,8.883226806640625,0.0007668752805329859,-0.00003994675353169441,0.00045356317423284054
1782813973333308700,8.90330859375,0.0001151731121353805,-0.0005007083527743816,0.0004290367942303419
1782813973353390600,8.923390625,-0.0005658197915181518,0.00003175484016537666,0.00034170900471508503
1782813973373472800,8.94347265625,0.00021453321096487343,0.0012638629414141178,0.00014339364133775234
1782813973393554700,8.9635546875,-0.0004531732411123812,-0.0008042925037443638,0.004614666104316711
1782813973413635800,8.9836357421875,0.0011991739738732576,0.0010007782839238644,-0.0015148376114666462
1782813973433717800,9.0037177734375,-0.0001495574542786926,-0.002725918311625719,0.0022071748971939087
1782813973453799700,9.023799560546875,0.0010921648936346173,0.0003194944001734257,-0.00005835713818669319
1782813973473881600,9.043881591796875,0.0002525632444303483,0.000935364980250597,-0.0005213855765759945
1782813973493963800,9.0639638671875,0.0006684015970677137,-0.0019526504911482334,0.0013545799301937222
1782813973514045700,9.084045654296874,0.0005866785650141537,-0.0002402355894446373,-0.00041678687557578087
1782813973534127600,9.104127685546874,0.0002588891366031021,0.000025242101401090622,-0.000695820664986968
1782813973554209800,9.124209716796875,-0.000186238088645041,-0.0012667716946452856,0.0005981812719255686
1782813973574291700,9.144291748046875,0.0006823292933404446,-0.0012007416225969791,-0.0015548591036349535
1782813973594372900,9.164372802734375,0.00045575579861178994,-0.0016663698479533195,0.0008684401400387287
1782813973614454800,9.184454833984375,-0.0015085035702213645,-0.001337917521595955,-0.0006739809177815914
1782813973634536700,9.20453662109375,-0.0009142222697846591,-0.0001283511519432068,-0.0005638699512928724
1782813973654618600,9.22461865234375,0.0021206748206168413,-0.00011540250852704048,-0.0006973077543079853
1782813973674700800,9.24470068359375,-0.00012044300092384219,-0.0017052425537258387,-0.00025215023197233677
1782813973694782700,9.26478271484375,0.0008106542518362403,0.00027805380523204803,-0.0010578613728284836
1782813973714864600,9.28486474609375,-0.00044188101310282946,-0.0008162781596183777,0.003331181826069951
1782813973734946800,9.30494677734375,0.00024519755970686674,0.00007947441190481186,-0.0010080004576593637
1782813973755028700,9.32502880859375,0.0011856539640575647,0.0010874471627175808,0.001633776817470789
1782813973775110000,9.34510986328125,0.00022136664483696222,-0.002278056228533387,-0.0006220699287950993
1782813973795191800,9.36519189453125,0.0012313358020037413,0.0002457788214087486,-0.0026175668463110924
1782813973815273700,9.385273681640625,0.0010179572273045778,0.0007956959307193756,0.002059368649497628
1782813973835355600,9.405355712890625,-0.00027531044906936586,-0.0007467616815119982,0.00021040719002485275
1782813973855437800,9.425437744140625,0.0008331751450896263,-0.000683582155033946,-0.0003193384036421776
1782813973875519700,9.445519775390625,-0.0008006709394976497,-0.0006771311163902283,0.0014382676454260945
1782813973895601700,9.4656015625,-0.0023225818295031786,-0.001237712800502777,-0.0024694770108908415
1782813973915682800,9.485682861328126,0.0002903762797359377,-0.00017821229994297028,-0.001053743762895465
1782813973935764700,9.5057646484375,0.00023289493401534855,0.0003845072351396084,0.0008829842554405332
1782813973955847000,9.525846923828125,-0.0006739723612554371,0.00030200229957699776,0.0017368581611663103
1782813973975928800,9.5459287109375,0.000941775506362319,0.0007983134128153324,-0.0009664155077189207
1782813973996010800,9.5660107421875,0.0009791733464226127,0.0002769152633845806,0.00019641593098640442
1782813974016092700,9.5860927734375,0.00004762475145980716,0.002773552667349577,0.0010581744136288762
1782813974036174800,9.6061748046875,-0.000902797095477581,-0.0006914462428539991,0.0016324031166732311
1782813974056256500,9.626256591796874,0.000034294353099539876,0.001916483510285616,0.0005202284082770348
1782813974076338400,9.64633837890625,-0.0009077673894353211,-0.0007933545857667923,0.00000896630808711052
1782813974096419600,9.666419677734375,-0.0011964099248871207,-0.0000018249265849590302,0.0029123546555638313
1782813974116501500,9.68650146484375,-0.0007608524756506085,0.0005463850684463978,-0.001985826762393117
1782813974136583700,9.706583740234375,0.00011325150262564421,-0.001935634994879365,0.0019077800679951906
1782813974156665600,9.72666552734375,-0.00023674040858168155,0.0012715118937194347,-0.004063218366354704
1782813974176747500,9.74674755859375,0.0001235897943843156,-0.0011862723622471094,-0.00002395804040133953
1782813974196829400,9.766829345703124,0.0006238184869289398,-0.0016268962062895298,0.0033486466854810715
1782813974216911600,9.78691162109375,0.0002971015346702188,0.001640412025153637,-0.0033871233463287354
1782813974236993500,9.80699365234375,-0.00032940006349235773,-0.0017347054090350866,0.0022359539289027452
1782813974257075500,9.827075439453125,-0.0004916770267300308,0.0008777501061558723,-0.002892449963837862
1782813974277157600,9.84715771484375,0.00023102396517060697,-0.001331046223640442,-0.000672332476824522
1782813974297238500,9.867238525390626,0.00043554845615290105,-0.001316240755841136,0.0010295083047822118
1782813974317320700,9.88732080078125,0.0005364709068089724,0.00036011263728141785,-0.002854397753253579
1782813974337402600,9.907402587890624,0.0007331069791689515,-0.0007488266564905643,0.0020000056829303503
1782813974357484500,9.927484619140625,0.00023612839868292212,0.0003368905745446682,-0.0006778049282729626
1782813974377566500,9.94756640625,-0.0003153349389322102,-0.00022890139371156693,0.0011604101164266467
1782813974397648600,9.967648681640625,0.00142668467015028,-0.0011170487850904465,-0.0015965288039296865
1782813974417730600,9.98773046875,-0.00020416498591657728,0.0005190498195588589,-0.00016827438957989216
1782813974437812500,10.0078125,-0.00046827347250655293,-0.0018269692081958055,0.0005046885926276445
1782813974457894700,10.027894775390624,0.000594759825617075,0.0011000274680554867,0.000020191306248307228
1782813974477975600,10.0479755859375,-0.0010805879719555378,-0.0013076940085738897,0.0017426983686164021
1782813974498057700,10.0680576171875,-0.000806845782790333,-0.000789338955655694,0.0013242231216281652
1782813974518139600,10.0881396484375,0.00018764412379823625,0.0006595333106815815,-0.002144989324733615
1782813974538221600,10.1082216796875,0.0005278671742416918,-0.0009925644844770432,0.0006084329215809703
1782813974558303500,10.128303466796876,0.0018854475347325206,-0.00021012639626860619,-0.0029628474730998278
1782813974578385700,10.1483857421875,0.0015370722394436598,-0.00258752703666687,0.0005599900614470243
1782813974598467600,10.168467529296874,-0.00018415850354358554,-0.0008427202701568604,-0.00046908995136618614
1782813974618549500,10.188549560546875,0.0011855455813929439,-0.00047096842899918556,0.0022137572523206472
1782813974638631700,10.208631591796875,0.0010702142026275396,0.00012566428631544113,-0.0012991228140890598
1782813974658713600,10.228713623046875,0.0007895104354247451,0.0009516291320323944,-0.0018402712885290384
1782813974678794500,10.24879443359375,0.0005417353822849691,-0.0024647503159940243,0.0012908444041386247
1782813974698876700,10.268876708984376,0.0003641638031695038,0.00008887611329555511,-0.0023091586772352457
1782813974718958600,10.28895849609375,-0.0010581164387986064,0.06994907557964325,0.1725572943687439
1782813974739040500,10.30904052734375,-0.001353338360786438,-0.020813021808862686,0.1528884619474411
1782813974759122700,10.329122802734375,-0.0019289701012894511,-0.004924898501485586,-0.16481488943099976
1782813974779204600,10.34920458984375,-0.0012038564309477806,0.022936994209885597,-0.19149447977542877
1782813974799286500,10.36928662109375,0.002524157054722309,-0.01570158451795578,0.04450935125350952
