time,seconds_elapsed,z,y,x
1782812396694820000,0.065820068359375,-0.020690905851125718,-0.038950967826135455,0.028626183229265734
1782812396714903000,0.085903076171875,-0.013356909701228142,0.01129201306067407,0.04304653917723335
1782812396734985200,0.105985107421875,-0.03086275577545166,0.04427110340297222,0.029259092571632936
1782812396755068200,0.126068115234375,-0.0172451493114233,-0.015015691492613404,-0.04146533440039493
1782812396775150000,0.146150146484375,-0.020390461599826812,-0.025817546416167167,-0.05863929990543983
1782812396795233000,0.16623291015625,-0.03266249867379665,0.00228767254576087,-0.03144533230322413
1782812396815315000,0.18631494140625,-0.023080431336164473,0.04029273782391101,0.024604572163522243
1782812396835398100,0.206398193359375,-0.020683891588449476,-0.003321362975053489,0.0347066630535759
1782812396855480300,0.226480224609375,-0.006769932526350021,-0.05622278594877571,0.010986737370630726
1782812396875563000,0.24656298828125,-0.022783494216203688,0.008583831814210862,-0.010345653854962437
1782812396895645000,0.26664501953125,-0.016797405543923376,0.035500206317752594,-0.036397045559622344
1782812396915728000,0.286727783203125,-0.017990999242663383,0.02852359050447121,-0.04455377453556284
1782812396935809800,0.306809814453125,-0.025775077247619627,-0.027769265005830674,-0.014543096411647274
1782812396955892700,0.326892822265625,-0.01814063684642315,-0.028321017137076705,0.024942014823807403
1782812396975975000,0.346974853515625,-0.031902620217204095,0.021375234853476286,0.051811298782611266
1782812396996058000,0.36705810546875,-0.032199557337164876,-0.00551615133928135,0.01955706124929711
1782812397016140000,0.38714013671875,-0.024873159971833227,-0.005815992802381515,-0.034755068772565574
1782812397036223000,0.407222900390625,-0.0341547830581665,-0.013431326644308864,-0.0457186901290901
1782812397056305000,0.427304931640625,-0.007818564796447753,0.03090001904591918,-0.02446829636483453
1782812397076387800,0.447387939453125,-0.028618191719055174,0.028033523698896168,0.018973142147809267
1782812397096469800,0.4674697265625,-0.03086217125356197,-0.03661552888220176,0.040042982580233366
1782812397116552700,0.487552734375,-0.011711480581760405,-0.03940344256768003,0.035064774042554196
1782812397136635000,0.507634765625,-0.014107435807585715,0.010032788513507694,-0.004087415444105864
1782812397156717800,0.5277177734375,-0.02786708109080791,0.04125286982664838,-0.04057616700832732
1782812397176799700,0.5477998046875,-0.020981997752189636,0.0059055159830488264,-0.04022693344554864
1782812397196883000,0.567883056640625,-0.022478958311676976,-0.04654765176651999,0.002279671902395785
1782812397216964900,0.58796484375,-0.012597615766525268,-0.003451674823835492,0.031218263815389943
1782812397237047800,0.6080478515625,-0.019632921230792997,0.01860829089079052,0.039927512107556684
1782812397257130000,0.6281298828125,-0.022027707412838934,-0.005603245100844651,0.024665864763548595
1782812397277213000,0.648212890625,-0.01664601437449455,-0.029836591065488752,-0.04903764195134863
1782812397297294800,0.668294921875,-0.01814180589020252,0.01594296240536496,-0.047134831404173745
1782812397317377800,0.688377685546875,-0.011549568018317222,0.035013920638151466,-0.024103518173051997
1782812397337459700,0.708459716796875,-0.030101708275079724,0.0055738728758879,0.02145034591630101
1782812397357543000,0.72854296875,-0.027559622576832768,-0.03418459367454052,0.03722090176367201
1782812397377625000,0.748625,-0.02112695918083191,-0.03071189432898536,0.02036915395031683
1782812397397708000,0.7687080078125,-0.022469605961441992,0.032296861965488644,-0.009708963386621326
1782812397417790000,0.7887900390625,-0.019624737924337388,0.03537221429022029,-0.03974398136734962
1782812397437873000,0.808872802734375,-0.025315058520436286,-0.03600640227422118,-0.045176984467823054
1782812397457954800,0.828954833984375,-0.024865561187267304,-0.025818130938056856,-0.0027647154729813334
1782812397478037800,0.849037841796875,-0.029503742381930348,-0.00562848913995549,0.03582744724443182
1782812397498120000,0.869119873046875,-0.029949148061871527,0.029997444183006882,0.052044970541168
1782812397518203000,0.889202880859375,-0.0036111762344837187,-0.009750409641861916,0.00800678997808136
1782812397538284800,0.909284912109375,-0.019327800804376603,-0.028158063394017517,-0.04117047963966615
1782812397558368000,0.929367919921875,-0.0175327340811491,0.009753131321910769,-0.03141642586914822
1782812397578450000,0.949449951171875,-0.021417466560006142,0.026207130255643276,-0.0191175007882528
1782812397598532900,0.969532958984375,-0.019323124629259107,-0.005355371286999434,0.012135843473672867
1782812397618615800,0.98961572265625,-0.02561374920606613,-0.03989171927496791,0.03821809610747732
1782812397638698000,1.009697998046875,-0.02755611544549465,-0.0034890294258482753,0.018992906294204293
1782812397658780000,1.02977978515625,-0.021568857729434964,0.03477156324964017,-0.017384475583722813
1782812397678862800,1.04986279296875,-0.03503624206781387,0.013802479777950794,-0.05268663857872598
1782812397698944800,1.06994482421875,-0.0221685771882534,-0.025312793498113748,-0.04220915677133016
1782812397719028000,1.090028076171875,-0.02755436187982559,-0.005885094249527901,-0.0005106803353410213
1782812397739110000,1.11010986328125,-0.014679682737588882,0.015184216459933668,0.03562932172329165
1782812397759192800,1.13019287109375,-0.004204465952515602,-0.0014752053854055701,0.04547669806675985
1782812397779275800,1.15027587890625,-0.015579846447706222,-0.028053525307308882,-0.00522711439798586
1782812397799358000,1.17035791015625,-0.010193477234244346,-0.00799792168503627,-0.02783080420102924
1782812397819441000,1.19044091796875,-0.013632219511270522,0.014430128423310816,-0.03493800585772842
1782812397839522800,1.210522705078125,-0.01796878741085529,0.020958434213511644,-0.015327588719688355
1782812397859605800,1.230605712890625,-0.018717559951543807,-0.03408471349664032,0.022156822818377987
1782812397879688400,1.2506884765625,-0.020811317360401153,-0.03563910333178937,0.041248294116230676
1782812397899771400,1.270771484375,-0.02051554928421974,0.014596150906290859,0.031581955161783845
1782812397919853600,1.290853515625,-0.008242343166470528,0.02227441218290478,-0.01181351618412882
1782812397939936500,1.3109365234375,-0.009890694895386696,0.0017035159822553396,-0.050301149947987865
1782812397960018400,1.331018310546875,-0.014230769926309585,-0.024742701992578803,-0.04630018894462846
1782812397980101400,1.351101318359375,-0.005399813216924667,-0.0037175409520976243,0.004838991863233969
1782812398000183300,1.371183349609375,-0.0052484220474958414,0.01807031155657023,0.035376223745057354
1782812398020266200,1.391266357421875,-0.02125672304034233,-0.012117759827710687,0.02974231864446774
1782812398040348400,1.411348388671875,-0.02020925981402397,-0.01484033492570743,0.004548932008631527
1782812398060431400,1.431431396484375,-0.014971943682432173,0.007447356863878667,-0.036994079871010034
1782812398080513500,1.451513427734375,-0.02380290039181709,0.023843835190404204,-0.04748696017693728
1782812398100596500,1.471596435546875,-0.01467500656247139,0.009195095580350606,-0.01451343192574568
1782812398120678400,1.491678466796875,-0.018866028511524198,-0.03399703521318734,0.014051139043085276
1782812398140761300,1.51176123046875,-0.018113748839497564,-0.016048596470616756,0.038837926772562786
1782812398160843300,1.53184326171875,-0.018712883776426315,-0.0006613865181803703,0.028460827466566113
1782812398180926200,1.55192626953125,-0.02200491105914116,0.007828373804409056,-0.024959504814725367
1782812398201008400,1.57200830078125,-0.029037293913960455,-0.016574501774553208,-0.05923774985577911
1782812398221091300,1.59209130859375,-0.026942951983213424,-0.0057513300683349365,-0.027187318665720522
1782812398241173200,1.61217333984375,-0.020507950499653815,0.008050254660472274,0.016037225693231447
1782812398261256400,1.63225634765625,-0.02604161922931671,-0.0039107619692571455,0.04131995284664444
1782812398281338400,1.65233837890625,-0.023946108254790304,-0.01592157255746424,0.024772266013780606
1782812398301421300,1.67242138671875,-0.01751929007768631,-0.02663967645401135,-0.02429588067368604
1782812398321503500,1.69250341796875,-0.008689502412080764,0.031243699650745835,-0.029433581488858905
1782812398341586400,1.71258642578125,-0.025299860951304435,0.03505041672363877,-0.033134554898645724
1782812398361668400,1.73266845703125,-0.018565584260225296,-0.0137589876960963,-0.02523411137186922
1782812398381751300,1.752751220703125,-0.030387539479136465,-0.020609565976914018,0.033819532354967666
1782812398401833200,1.772833251953125,-0.02200608010292053,-0.02409802914718166,0.03903020707480609
1782812398421916400,1.79291650390625,-0.019756255349516867,0.01774984743054956,0.018181535112392157
1782812398441998600,1.81299853515625,-0.017362053689360616,-0.007856997110694647,-0.03426122084101662
1782812398462081500,1.83308154296875,-0.010626607954502106,0.00033695860309526323,-0.04433887140955776
1782812398482163500,1.85316357421875,-0.038008535876870156,-0.004910203069075942,-0.02835616151569411
1782812398502246400,1.873246337890625,-0.028575521621108053,0.0037824228818528352,-0.001971893728012219
1782812398522328300,1.893328369140625,-0.03785539114177227,-0.006787906574457884,0.04135816596518271
1782812398542411300,1.913411376953125,-0.018702362382411956,-0.037315512111410494,0.023221739502996205
1782812398562493400,1.933493408203125,-0.007926116824150085,-0.0035951749477535484,-0.012341723043005912
1782812398582576400,1.953576416015625,-0.022590017470717427,0.012519892621506004,-0.04774218618017621
1782812398602658300,1.973658203125,-0.01345978555381298,-0.008177863095514475,-0.03887588416277431
1782812398622741500,1.993741455078125,-0.022889877200126647,-0.024062903034873306,-0.018719642310775816
1782812398642823400,2.013823486328125,-0.022888123634457587,-0.019880173990130423,0.02314502100497484
1782812398662906400,2.03390625,-0.02498714174032211,0.015657039869762957,0.049066575784888114
1782812398682988300,2.05398828125,-0.02468962009847164,-0.002410330811049789,0.009064555402705446
1782812398703071200,2.0740712890625,-0.02274900742471218,-0.017565028915554285,-0.022686573180370033
1782812398723153400,2.0941533203125,-0.028140052813291547,0.003686890085507184,-0.04243818888738751
1782812398743236400,2.114236328125,-0.007786416092514991,0.015000767918117344,-0.028415755348978562
1782812398763318300,2.134318359375,-0.012571312281489371,0.004284399320930242,0.006664700319897383
1782812398783401500,2.1544013671875,-0.024091654205322263,-0.03336461906116456,0.019848399745533242
1782812398803483400,2.1744833984375,-0.027383681488037107,-0.01787035027137026,0.02138218518407084
1782812398823566300,2.19456640625,-0.009428922602534294,0.02138601197581738,0.004483730418467894
1782812398843648500,2.2146484375,-0.013165771043300628,0.01649904365185648,-0.03689291191832162
1782812398863731500,2.2347314453125,-0.016760580664873122,-0.001191894931998104,-0.04380978776784614
1782812398883813000,2.254813232421875,-0.019457564663887022,-0.011952833323273807,-0.007155479511525482
1782812398903896000,2.27489599609375,-0.019907061997056007,0.0018541947656311093,0.04009153442969546
1782812398923978000,2.29497802734375,-0.01571487100422382,-0.00797057702038437,0.03446231463737785
1782812398944061000,2.31506103515625,-0.020501520758867263,-0.008523041537683457,0.0052492714308667926
1782812398964143000,2.33514306640625,-0.012571896803379059,0.002759893167391419,-0.03952309602512978
1782812398984226300,2.355226318359375,-0.018555647388100623,-0.002955543603654951,-0.03981237956159748
1782812399004308200,2.37530810546875,-0.01766132889688015,0.024568258741125462,-0.013226278192037715
1782812399024391200,2.39539111328125,-0.014371055179834365,-0.01756353107821196,0.015182216299092397
1782812399044473000,2.41547314453125,-0.026039281141757964,-0.01649303403617814,0.03468211313420907
1782812399064556000,2.43555615234375,-0.02543254742026329,-0.0016580876716412603,0.027497206598799673
1782812399084638200,2.45563818359375,-0.03186637986004352,0.010253536858409643,-0.016972506382502615
1782812399104721200,2.47572119140625,-0.020346622458100316,0.006137881700508296,-0.023549418821092693
1782812399124803000,2.495802978515625,-0.01675415092408657,-0.01718174695270136,-0.05080573846925981
1782812399144886000,2.515885986328125,-0.03949848217368126,-0.005505940472520888,0.004019894032692537
1782812399164968200,2.53596826171875,-0.015552958440780638,-0.0032638241015374657,0.02762581054768525
1782812399185051100,2.556051025390625,-0.025878537622094154,-0.0016495573053136466,0.02345711916144937
1782812399205133300,2.57613330078125,-0.017802783194184303,-0.007205328268930316,0.00677306519835256
1782812399225216300,2.59621630859375,-0.02004325559735298,-0.033354097667150195,-0.03327295872233808
1782812399245298200,2.616298095703125,-0.01510755276083946,0.01983713856600225,-0.03351881410903297
1782812399265381000,2.636381103515625,-0.019447627791762352,-0.002758851987775415,-0.02029994290531613
1782812399285463000,2.656463134765625,-0.035011692148447036,-0.009608498686831444,0.00467421148926951
1782812399305546000,2.6765458984375,-0.021696868023276326,-0.020172617598064244,0.03063624441004358
1782812399325628200,2.696628173828125,-0.017201894691586492,-0.00858483646120876,0.02214429213036783
1782812399345711000,2.716711181640625,-0.024687282010912893,0.026808694611676037,0.00039443354452960193
1782812399365793300,2.736793212890625,-0.01616144572794437,-0.009315105230826884,-0.03750209332522936
1782812399385876200,2.756876220703125,-0.017809212934970856,0.0031590485528111456,-0.023746749757789076
1782812399405958100,2.776958251953125,-0.034866146197915074,-0.01183079611249268,0.007272265158453956
1782812399426041000,2.797041015625,-0.028724574702978133,-0.0010962342714890838,0.03176750432914123
1782812399446123000,2.817123046875,-0.01570668769776821,-0.005590641347598284,0.015085103467013685
1782812399466206000,2.8372060546875,-0.02872515922486782,-0.03836536822421476,0.005621365279424935
1782812399486288100,2.8572880859375,-0.017355039426684378,0.006907824893388897,-0.030440484375925732
1782812399506371000,2.87737109375,-0.024086393508315086,0.02229642308531329,-0.027459084811806676
1782812399526453000,2.897452880859375,-0.017353870382905007,0.009674951519165188,-0.015414792079105972
1782812399546536200,2.9175361328125,-0.018255787658691406,-0.022631299329176544,0.011458830128097905
1782812399566618000,2.9376181640625,-0.03037818712890148,-0.016312654234282672,0.029007291501341386
1782812399586701000,2.957701171875,-0.012567805150151252,0.01452602654583752,0.017585733776865526
1782812399606783200,2.977783203125,-0.021398177337646485,0.004421707166079432,-0.007315474112518132
1782812399626866200,2.9978662109375,-0.02319733571410179,0.008883454081602394,-0.035901864187512546
1782812399646948000,3.017947998046875,-0.023499533531069754,-0.00731600383548066,-0.029854418983124194
1782812399667031000,3.038031005859375,-0.02380173134803772,-0.0001815488456748426,-0.00457311660181731
1782812399687113000,3.058113037109375,-0.01617372068762779,0.0005530307728797197,0.0330523382415995
1782812399707196200,3.078196044921875,-0.03159165457189083,-0.022790216217935085,0.023263258823473004
1782812399727278300,3.0982783203125,-0.014082301366329193,-0.013740009000990538,0.0062848889557644725
1782812399747361300,3.118361328125,-0.026653029125928877,0.010531769277900456,-0.03184851540978998
1782812399767443200,3.138443115234375,-0.020668694019317625,0.02328744341665879,-0.034371092689968644
1782812399787526100,3.158526123046875,-0.027103110980987548,-0.004825027269963175,-0.011227067198837174
1782812399807608000,3.178608154296875,-0.031739538609981535,-0.026134466878231614,0.015935290555562823
1782812399827691000,3.19869091796875,-0.0197679457873106,-0.01104958260692656,0.023919868701836093
1782812399847773200,3.218773193359375,-0.022160978403687477,-0.004538922071270645,0.014143393036955967
1782812399867856100,3.238856201171875,0.0031283611536026,0.008002634392771869,-0.015581316885584964
1782812399887938000,3.25893798828125,-0.029643443113565444,-0.009890366101823747,-0.040251711693778634
1782812399908021000,3.27902099609375,-0.024408465069532394,-0.004242989598307758,-0.03733397934986278
1782812399928103000,3.29910302734375,-0.028749124622344968,0.008957469165883959,0.014307671087421476
1782812399948185900,3.319185791015625,-0.010946341428160667,-0.007389215202163905,0.034401058569969604
1782812399968268000,3.33926806640625,-0.024718261671066284,-0.023860621928423642,0.02405145005909726
1782812399988351000,3.35935107421875,-0.013495441389083861,-0.02223545014569536,-0.0006603453385643661
1782812400008433000,3.379432861328125,-0.017234627917408943,0.018703184366319327,-0.020715126976929604
1782812400028516000,3.39951611328125,-0.009753332251310348,0.011995759149547666,-0.03630699265599251
1782812400048598000,3.419597900390625,-0.019325462716817853,-0.011007898889668286,-0.008629844646714627
1782812400068681000,3.439680908203125,-0.01708089866042137,-0.0008400858196429908,0.0048585185476113105
1782812400088763000,3.459762939453125,-0.02411152794957161,-0.015609419602062552,0.03757347806100733
1782812400108845800,3.479845703125,-0.015581600013375281,-0.005470613430812955,0.02614191039917059
1782812400128928000,3.499927978515625,-0.008548632636666298,-0.01250447585666552,-0.022398184693045914
1782812400149011000,3.520010986328125,-0.031443770533800125,-0.0006564546147361397,-0.044850510726124046
1782812400169094100,3.54009423828125,-0.014834581038355827,0.019582652348279952,-0.02859260975322686
1782812400189176000,3.560176025390625,-0.015582184535264968,-0.0024170710790902376,-0.011773193306894972
1782812400209259000,3.580259033203125,-0.028153496816754338,-0.020294508678372947,0.03249153515421785
1782812400229341000,3.6003408203125,-0.016782207974791526,-0.02148410205543041,0.030165886951936408
1782812400249424000,3.620423828125,-0.018425299006700514,0.000711691933311522,-0.01272464881283231
1782812400269506000,3.640506103515625,-0.018129530930519104,0.0200811764549464,-0.01798459690134041
1782812400289589000,3.660589111328125,-0.015882628786563872,0.0017428250793367623,-0.04144733295282349
1782812400309671000,3.6806708984375,-0.01902501846551895,-0.008561729580257088,-0.016052761189080774
1782812400329753900,3.70075390625,-0.009597849428653717,-0.001813059037644416,0.020816221864381805
1782812400349835800,3.720835693359375,-0.02620236274898052,0.0051966370613314205,0.02262239450351335
1782812400369919000,3.7409189453125,-0.014079963278770445,-0.011467625355906784,0.0039007337655872104
1782812400390001200,3.761001220703125,-0.02066810949742794,-0.019580076798703522,-0.015744179297098888
1782812400410084000,3.781083984375,-0.011845336094498634,0.00008123027635738253,-0.027034173930622636
1782812400430166000,3.801166015625,-0.021121113961935042,0.007362601189874112,-0.021986489486461504
1782812400450249000,3.8212490234375,-0.014689619609713553,-0.009011190380807966,0.003496372482087463
1782812400470331000,3.841330810546875,-0.02351765370965004,-0.0061517458290793,0.013571392702125012
1782812400490413800,3.861413818359375,-0.02202127767205238,-0.018006872665230184,0.025615849831607192
1782812400510496000,3.88149609375,-0.02157470294833183,0.01124157978137955,0.004404573368187993
1782812400530579000,3.901578857421875,-0.02725976284742355,0.015693389824777842,-0.018305672948714345
1782812400550660900,3.921660888671875,-0.023367431584000585,0.0035133418831974268,-0.03805630227504298
1782812400570744000,3.941744140625,-0.022922610425949095,-0.007892086690384895,-0.009606571591226383
1782812400590826000,3.961825927734375,-0.02217208431959152,0.0002810819637030363,0.010993322375044226
1782812400610909000,3.981908935546875,-0.02725684023797512,0.00724545934991911,0.029478105617174878
1782812400630991000,4.0019912109375,-0.02576046420037746,-0.01553419894138351,0.012216690157540141
1782812400651074000,4.022073974609375,-0.0148357500821352,0.004755724893417209,-0.005815618343045934
1782812400671156000,4.042156005859375,-0.012739654585719108,0.00353186392057687,-0.02590641200970858
1782812400691239000,4.062239013671875,-0.02934825955927372,0.011133552829641848,-0.03221740352110937
1782812400711320800,4.08232080078125,-0.01453296774327755,-0.005642992589343339,0.007958466457482426
1782812400731404000,4.102404052734375,-0.014081716844439505,-0.019497074690368026,0.038088195250649
1782812400751486000,4.12248583984375,-0.03323708369135856,-0.00989599212501198,0.029216212411131707
1782812400771569000,4.14256884765625,-0.028749124622344968,-0.0034385230813175436,0.003824563256837427
1782812400791651000,4.162651123046875,-0.021864625805616378,-0.010224877019505947,-0.024692670572083443
1782812400811734000,4.182734130859375,-0.01932137106359005,-0.014951028758566826,-0.025342814177041872
1782812400831816000,4.20281591796875,-0.016181903994083403,-0.009252616187557577,-0.004157238410459831
1782812400851899000,4.22289892578125,-0.01258884793817997,-0.004474003608897328,0.016960341020673512
1782812400871980800,4.242980712890625,-0.012592355069518089,-0.004068765542563051,0.03465697869295254
1782812400892064500,4.263064453125,-0.01080196452140808,-0.021720869953371583,0.012380264955107122
1782812400912146700,4.283146728515625,-0.029209143349528312,0.00031781551120802756,-0.019687363964924588
1782812400932229600,4.303229736328125,-0.017241057658195495,0.016850231709703803,-0.030683006161218506
1782812400952311600,4.3233115234375,-0.02307224802970886,0.010725227757077663,-0.022689651053445413
1782812400972394800,4.343394775390625,-0.015589198797941206,-0.014141045816242695,-0.0010037062829826027
1782812400992476700,4.3634765625,-0.020081834042072293,-0.0008793401177972555,0.02374084973996505
1782812401012559600,4.3835595703125,-0.009607786300778388,-0.012718703129235655,0.029564523525303227
1782812401032641500,4.4036416015625,-0.010503858357667923,0.001115267765522003,0.004230431510834023
1782812401052724500,4.423724365234375,-0.01648877798616886,0.006627254386339336,-0.026326116992812603
1782812401072806700,4.443806640625,-0.01274608432650566,-0.00629338278947398,-0.032282020589383315
1782812401092889600,4.4638896484375,-0.02292027233839035,-0.011388605302944778,-0.010258624025480821
1782812401112971500,4.483971435546875,-0.01813186901807785,-0.007212232933752239,0.019089315873384475
1782812401133054500,4.504054443359375,-0.013790624943375587,-0.010843465575575828,0.04929749846393242
1782812401153136400,4.524136474609375,-0.018579612785577772,-0.02009827372021973,0.011387856384273618
1782812401173219600,4.544219482421875,-0.004669745376706123,0.008511917355470359,-0.014831959823006764
1782812401193301800,4.5643017578125,-0.023676059141755103,0.020850900452118366,-0.017490054850047454
1782812401213384700,4.584384765625,-0.02038403185904026,-0.003374006477743387,-0.022139040566515177
1782812401233466600,4.604466552734375,-0.010503273835778235,-0.0008607632814906537,-0.007138720172969624
1782812401253549600,4.624549560546875,-0.012449147206544876,-0.010727218784764408,0.030634582175919783
1782812401273631500,4.644631591796875,-0.019179916766285894,0.002919321512803435,0.018858201398095114
1782812401293714400,4.66471435546875,-0.020230302602052688,0.005235763495322316,0.0038490309778135266
1782812401313796600,4.684796630859375,-0.025766309419274328,-0.008996175474766641,-0.028637554006651043
1782812401333879800,4.7048798828125,-0.014845102432370185,0.0016996617910452186,-0.028484738065116106
1782812401353961700,4.724961669921875,-0.0214279879540205,0.0018865443989634512,-0.011370558189600706
1782812401374044700,4.745044677734375,-0.02846095533072948,-0.004520710561145096,0.012342161434423177
1782812401394126600,4.765126708984375,-0.018882395124435424,-0.017611425340548156,0.030030780197028067
1782812401414209500,4.78520947265625,-0.01872749682366848,-0.013454342193715274,0.008072731353761627
1782812401434291700,4.805291748046875,-0.022763035950064656,-0.0036081440271809695,-0.010372030405234545
1782812401454374700,4.825374755859375,-0.022162731969356534,0.01563977820770815,-0.03361970806708559
1782812401474456600,4.84545654296875,-0.03054769847691059,0.005984042845666409,-0.0202854120564647
1782812401494539500,4.86553955078125,-0.02934767503738403,-0.014713475409336388,0.013790771073848008
1782812401514621400,4.885621337890625,-0.0178290866792202,-0.005927508619148284,0.02534825753713958
1782812401534704600,4.90570458984375,-0.02695756503045559,0.004570796780567616,0.026114045144710687
1782812401554786600,4.92578662109375,-0.029651626420021057,-0.0033635946815833446,-0.00598797010211274
1782812401574869800,4.945869873046875,-0.01229249534010887,-0.01119142049672082,-0.02210262667941861
1782812401594951700,4.96595166015625,-0.019624737924337388,0.004533570042718202,-0.02115971067296341
1782812401615034600,4.98603466796875,-0.02755436187982559,0.0028783867142163216,-0.0011836020276881753
1782812401635116500,5.006116455078125,-0.005254851788282394,-0.009212850432749838,0.012312478682212531
1782812401655199500,5.026199462890625,-0.023213117805123328,-0.01815367899108678,0.015365701373526825
1782812401675281400,5.046281494140625,-0.014983049598336219,-0.009051778119523077,-0.003705183794023469
1782812401695364400,5.0663642578125,-0.01153612401485443,-0.0003545490587130189,-0.018964136857446284
1782812401715446800,5.08644677734375,-0.025446575945615765,0.007254227178264409,-0.012939405808364971
1782812401735529700,5.10652978515625,-0.012425766330957412,-0.023927293956466016,-0.016273326870892196
1782812401755611600,5.126611572265625,-0.026941198417544363,-0.0002233969597145915,-0.01196477035623975
1782812401775694600,5.146694580078125,-0.026790976291894912,-0.007417856774758547,0.030701391201280057
1782812401795776500,5.166776611328125,-0.026792729857563972,-0.007371332485601305,0.017835242425370962
1782812401815859500,5.186859375,-0.011979191607236862,-0.004342084324918687,-0.0029663298591505734
1782812401835941600,5.206941650390625,-0.021108254480361938,-0.004935830700676888,-0.025594551315251738
1782812401856024600,5.227024658203125,-0.024549919366836547,0.006274111833423376,-0.025279247421538455
1782812401876106500,5.2471064453125,-0.017518121033906934,0.004839859512913972,0.0012529774694703519
1782812401896188700,5.267188720703125,-0.005843465331196784,-0.008983315993193536,0.016999768848763776
1782812401916270800,5.287270751953125,-0.032333412849903105,-0.012459266741760074,0.024829192965943363
1782812401936354000,5.30735400390625,-0.025446575945615765,-0.013034089221339673,0.005116457097744569
1782812401956436000,5.32743603515625,-0.01990998460650444,0.013191289077047258,-0.01775968383797444
1782812401976519000,5.347518798828125,-0.018265724530816076,-0.009015373365581034,-0.033891200218535956
1782812401996600800,5.367600830078125,-0.018411270481348038,-0.004295413905289024,-0.011663622852042317
1782812402016683800,5.387683837890625,-0.018407178828120232,-0.009040562605764716,0.020431496863113716
1782812402036765700,5.407765625,-0.01765957533121109,0.0017262940696440637,0.020653012392995877
1782812402056848600,5.4278486328125,-0.026785131072998045,-0.005246303155645728,0.01829138869503513
1782812402076930800,5.447930908203125,-0.018703531426191328,-0.0030445918602868913,-0.015083249436644837
1782812402097014000,5.468013916015625,-0.019901801300048826,-0.006006620003655552,-0.029707019002223386
1782812402117096000,5.488095947265625,-0.01002338136434555,0.0006697707540355623,-0.02544704173649661
1782812402137179000,5.508178955078125,-0.01660392879843712,0.0021864406609907747,-0.009109883248619735
1782812402157260800,5.5282607421875,-0.018247604352235793,-0.009686605424340813,0.016873210726492106
1782812402177343700,5.54834375,-0.022140520137548445,-0.008869736083503813,0.007931286189612
1782812402197426000,5.568426025390625,-0.02453179918825626,-0.003741707278974354,-0.0026721326855476944
1782812402217508900,5.5885087890625,-0.020040332987904547,-0.0037028365733101963,-0.02380841681715101
1782812402237590800,5.6085908203125,-0.030666356420516967,0.01418112209830433,-0.03945542848324403
1782812402257673700,5.628673828125,-0.030366496691107747,-0.0021244082754477856,-0.019893070004321632
1782812402277755600,5.648755615234375,-0.01390460671186447,-0.012492018233891575,0.003399734574044123
1782812402297838800,5.6688388671875,-0.02886369091272354,-0.005765285528451204,0.028952255112165582
1782812402317921800,5.688921875,-0.015247838014364242,0.0051829555958509445,0.0077735383446328335
1782812402338004000,5.70900390625,-0.02707154679894447,0.002240308006387204,-0.01040642586518079
1782812402358087000,5.7290869140625,-0.029914076748490333,-0.003739606653433293,-0.030694943194184452
1782812402378168800,5.7491689453125,-0.027072715842723846,0.0036545952511020004,-0.033956383542390535
1782812402398251800,5.769251708984375,-0.0200379949003458,-0.016573588459100574,-0.00013107903376221656
1782812402418335000,5.7893349609375,-0.02078092222213745,-0.020128961119428277,0.009664220062596722
1782812402438417000,5.8094169921875,-0.025568156498670575,-0.01417922240216285,0.007709094806294888
1782812402458499800,5.829499755859375,-0.03305003668665886,-0.004181212941091508,0.011245616635680198
1782812402478582000,5.84958203125,-0.024822306567430494,0.005068882495816797,-0.016435787423606962
1782812402498665000,5.8696650390625,-0.01794306844770908,0.004327653940767049,-0.02920195555691607
1782812402518747000,5.889746826171875,-0.028269232150912284,-0.00038905411651358004,-0.011043792186956851
1782812402538829800,5.909829833984375,-0.029015082082152366,-0.017251542519591746,0.021477206523763014
1782812402558911700,5.929911865234375,-0.02108428908288479,0.0027469606205821036,0.013416247806185855
1782812402578994700,5.94999462890625,-0.03125964613854885,-0.013596417545527218,0.0030820012612268327
1782812402599076900,5.970076904296875,-0.02302782436609268,-0.0010971841195598245,-0.009869661240512504
1782812402619160000,5.99016015625,-0.016742460486292837,0.0030852526642382145,-0.03703366296272725
1782812402639242000,6.010241943359375,0.0034586160212755203,0.0001331065940670669,-0.01937535713999532
1782812402659325000,6.030324951171875,-0.02781622768640518,-0.007776205225754528,-0.002269954225979745
1782812402679406800,6.05040673828125,-0.03215805628299713,-0.018603395519964396,0.019333846952673046
1782812402699489800,6.07048974609375,-0.015699088913202285,-0.00773307847008109,0.015483208539662882
1782812402719571700,6.09057177734375,-0.029913492226600644,-0.0010617474799975751,-0.005557743724994361
1782812402739654700,6.110654541015625,-0.03170329825282096,-0.00037254137312993406,-0.01986776203312911
1782812402759736800,6.13073681640625,-0.021076105776429176,-0.0011642762727104127,-0.03529509393339977
1782812402779819800,6.15081982421875,-0.021823709273338317,-0.006102810387127101,-0.015603784445719792
1782812402799901700,6.170901611328125,-0.02047638631761074,0.003589859451819211,0.008929950971296056
1782812402819985000,6.19098486328125,-0.010900748720765113,-0.010116101149097084,0.012806545809470117
1782812402840066800,6.21106689453125,-0.025571663630008696,-0.006355926631670445,0.008769380981568247
1782812402860149800,6.231149658203125,-0.025575755283236502,-0.005212199956644326,-0.013838409607857465
1782812402880232200,6.251232177734375,-0.013605916026234626,0.012912033744249492,-0.02559969328125007
1782812402900315100,6.271315185546875,-0.02168283949792385,-0.000192015440762043,-0.018699887297535314
1782812402920397000,6.29139697265625,-0.0279635272026062,-0.012584354426153004,0.0019058884202502668
1782812402940480000,6.31147998046875,-0.01928688427209854,-0.01626592901572585,0.014130031231883913
1782812402960562000,6.33156201171875,-0.0183867205619812,-0.016671532408241183,0.008035002292413265
1782812402980645000,6.35164501953125,-0.034547581768035886,0.003318586496077478,0.002927934077521786
1782812403000727300,6.371727294921875,-0.03155716778039932,-0.0032414844055660068,-0.011100673473346978
1782812403020810200,6.391810302734375,-0.02392623451054096,0.0027489333819597957,-0.03906848412542604
1782812403040892200,6.41189208984375,-0.023777765950560567,-0.005914484740793704,-0.002647034776909277
1782812403060975000,6.43197509765625,-0.01314998895227909,-0.0012479725007899104,0.0074506630658172064
1782812403081058000,6.45205810546875,-0.010902502286434173,-0.001400532713998109,0.009233409163588658
1782812403101140000,6.472139892578125,-0.012100772160291672,-0.009747487032413482,0.01721177676478401
1782812403121223200,6.49222314453125,-0.02616495334804058,-0.0066885013205930585,0.007411591430753469
1782812403141305000,6.51230517578125,-0.01868131959438324,0.004026552102342248,-0.01817932488899678
1782812403161388000,6.532387939453125,-0.021229250511527062,-0.004637596672773361,-0.016324216807913034
1782812403181470200,6.55247021484375,-0.02841185549199581,-0.009095982587430626,0.0009535469983238727
1782812403201553200,6.57255322265625,-0.011502806267142295,-0.02568469555042684,0.020337891162373126
1782812403221635000,6.592635009765625,-0.03110357879400253,-0.014548969030007719,0.013235913670063017
1782812403241718000,6.612718017578125,-0.023624036693572995,0.0009137173114344478,-0.0004290482001844793
1782812403261800000,6.632800048828125,-0.01614624815881252,0.0005813618182204664,-0.008280318822991102
1782812403281883000,6.6528828125,-0.025275895553827286,-0.003966054086759686,-0.019484050812013445
1782812403301965000,6.672965087890625,-0.011961655950546263,-0.004424922036472708,-0.010875404216954484
1782812403322048300,6.69304833984375,-0.015697335347533224,-0.004863843176700174,0.0009930935574229806
1782812403342130200,6.713130126953125,-0.01599602603316307,-0.002955214810092002,0.007750449729990214
1782812403362213000,6.733213134765625,-0.0266214649438858,-0.020297668749839067,0.00765935564674437
1782812403382295000,6.753294921875,-0.02302840888798237,-0.00838986187838018,-0.011275217189500107
1782812403402378000,6.7733779296875,-0.02647124281823635,0.005362330750748515,-0.010096063008066267
1782812403422460200,6.793460205078125,-0.02392798807621002,0.004790156885981559,-0.019641214135102926
1782812403442543000,6.813543212890625,-0.017946575579047202,0.007447904853150248,-0.002663702783919871
1782812403462625000,6.833625,-0.019443536138534546,-0.017687924642860887,0.0154762490759138
1782812403482708000,6.8537080078125,-0.01390811384320259,0.0022187172290869055,0.015284863822814077
1782812403502790000,6.873789794921875,-0.023339959055185315,-0.009755414610542357,-0.0035443032770417627
1782812403522873000,6.893873046875,-0.024240122765302657,-0.004420227595046162,-0.0010406772925052792
1782812403542955300,6.913955322265625,-0.014663900646567344,-0.006165098500996827,-0.015405942052369937
1782812403563038200,6.9340380859375,-0.02124795521199703,0.005222209894005209,-0.006124866955308244
1782812403583120100,6.9541201171875,-0.011665303352475166,0.006244392548594623,0.01786674267533235
1782812403603203000,6.974203125,-0.014208558094501495,-0.01608189595201984,0.0027965536496601996
1782812403623285000,6.994284912109375,-0.024986557218432424,0.000800155668053776,0.001491352802608162
1782812403643368000,7.014367919921875,-0.022149287965893744,-0.008740483680646866,-0.01179556040233001
1782812403663450000,7.0344501953125,-0.004643441891670227,0.005544756379257887,-0.01974457404487766
1782812403683533300,7.054533203125,-0.013921557846665381,-0.008220807188097387,-0.0188115127121564
1782812403703615200,7.074615234375,-0.004794833061099052,-0.017165069812536238,0.0014015830267686397
1782812403723698200,7.0946982421875,-0.03352525298297405,-0.0031002493039704857,0.013665802120463921
1782812403743780000,7.114780029296875,-0.027391280272603034,-0.0018528065261431037,0.013950080688251182
1782812403763863000,7.134863037109375,-0.015570494097471237,0.0059276182170026,0.006857345948321744
1782812403783946000,7.154946044921875,-0.025149054303765295,-0.001832804917730391,-0.020880674535874277
1782812403804028200,7.175028076171875,-0.018569091391563413,0.006992196974903345,-0.017416395958792418
1782812403824111000,7.195111083984375,-0.019765023177862166,-0.0072667213336564595,-0.01939181508445181
1782812403844193000,7.215193115234375,-0.0019558102428913113,-0.0050829110211692745,0.015708760923845693
1782812403864276200,7.235276123046875,-0.027252164062857628,-0.010812193654477595,0.010007307012379169
1782812403884359000,7.25535888671875,-0.030245500659942626,-0.008095646438468248,0.006573998962296173
1782812403904441900,7.27544189453125,-0.03593231412470341,0.007871993750426918,-0.006994014472654089
1782812403924523800,7.295523681640625,-0.02336333993077278,-0.004062810725811869,-0.011836248605744913
1782812403944606700,7.315606689453125,-0.017232874351739882,0.008547408793959765,-0.020632006137585267
1782812403964689000,7.33568896484375,-0.004812953239679336,-0.004013089832570403,0.004198912994563579
1782812403984771800,7.355771728515625,-0.028001521125435826,-0.01031076520467177,0.017927825212804598
1782812404004853800,7.375853759765625,-0.022017770540714264,-0.007428816560190171,0.007803239363152533
1782812404024937000,7.39593701171875,-0.02441197220087051,-0.00835935714226216,0.008678679623967036
1782812404045019000,7.416018798828125,-0.025161329263448714,0.0038104616662487387,-0.016032193325087426
1782812404065101800,7.436101806640625,-0.017829671201109884,0.00725234574843198,-0.026190562713332474
1782812404085183700,7.456183837890625,-0.01737725125849247,0.0049157925596460695,-0.005287530215177685
1782812404105266700,7.4762666015625,-0.012737316498160362,0.010444255391228943,0.005667999166436493
1782812404125348900,7.496348876953125,-0.028301380854845046,-0.030227307416126132,0.01277247914308682
1782812404145431800,7.516431884765625,-0.021868717458844184,0.002116645094100386,0.008417891529621555
1782812404165513700,7.536513671875,-0.020366496202349663,0.00010815481590107082,-0.004526601445814594
1782812404185597000,7.556596923828125,-0.017068039178848266,0.019674404018651694,-0.023768084806762634
1782812404205678800,7.576678955078125,-0.019909400084614753,0.005717099005170166,-0.013391981014609335
1782812404225761800,7.59676171875,-0.030083003574609756,-0.006854688200354576,-0.0021569679713342336
1782812404245844000,7.616843994140625,-0.0179641112357378,0.006233286632690578,0.016620414142357185
1782812404265927000,7.636927001953125,-0.023497779965400693,-0.006603051526844501,0.01298874310911633
1782812404286008800,7.6570087890625,-0.024092238727211952,-0.020516170338727532,-0.007681695342715829
1782812404306091800,7.677091796875,-0.018558569997549054,0.006651493778452277,-0.025529514121869577
1782812404326173700,7.697173583984375,-0.01825637218058109,0.0019271869366057216,-0.005127910073520615
1782812404346256600,7.717256591796875,-0.014812953728437423,0.006956961264740675,0.0066936158871278165
1782812404366338800,7.7373388671875,-0.023194997626543045,-0.0028312596368603405,0.012351066260086372
1782812404386422000,7.757422119140625,-0.011970423778891563,-0.01501302461149171,0.021224400806473566
1782812404406504000,7.77750390625,-0.02858078231811523,-0.001445668763667345,0.004551964215934276
1782812404426587000,7.7975869140625,-0.026335049217939374,0.0067018357262015335,-0.010861896281410008
1782812404446668800,7.817668701171875,-0.011976853519678116,0.0008317746490240096,-0.01696119953719899
1782812404466751700,7.837751708984375,-0.03158288674354553,-0.007740019667521119,-0.01662338241757825
1782812404486834000,7.857833984375,-0.017218261304497717,-0.00023651216961443423,0.001732385883713141
1782812404506916900,7.877916748046875,-0.01961187844276428,-0.008947605358995497,0.021729884376889094
1782812404526998800,7.897998779296875,-0.01632102020382881,0.0055853989169001575,0.0168512363567017
1782812404547082000,7.91808203125,-0.03712181617021561,-0.020742014983855188,-0.0067202755651902405
1782812404567164000,7.938163818359375,-0.016024083083868025,0.0001004829660989344,-0.02314612611667253
1782812404587246800,7.958246826171875,-0.012435118681192398,0.005557816790230572,-0.01957592121339403
1782812404607328800,7.978328857421875,-0.02440554246008396,0.007641071071382612,-0.014036398131679742
1782812404627412000,7.998411865234375,-0.024404957938194274,-0.004038498268462717,0.012874962270027025
1782812404647494000,8.018493896484374,-0.007347440153360366,-0.009867387085035442,0.00906376995141618
1782812404667576800,8.038576904296875,-0.019617723661661146,-0.00663383025759831,0.007741855431580916
1782812404687659800,8.05865966796875,-0.026200024661421774,-0.0009991123062558472,-0.00857011381611228
1782812404707741700,8.07874169921875,-0.01258358724117279,-0.00816445562466979,-0.02008472011890262
1782812404727825000,8.098824951171874,-0.013780103549361229,0.003059625032637268,-0.021965181836951522
1782812404747906800,8.11890673828125,-0.022758944296836853,-0.00724816276365891,0.0014162508729379623
1782812404767989800,8.13898974609375,-0.026048633491992948,0.0022671046817675233,0.01913771245921962
1782812404788072000,8.159072021484375,-0.026793314379453658,-0.0005725391909480094,0.020148168143397194
1782812404808155000,8.17915478515625,-0.022305939832329747,-0.00202958786515519,0.0009037439066916703
1782812404828236800,8.19923681640625,-0.01392681854367256,-0.000679908555559814,-0.011312489593122154
1782812404848319700,8.21931982421875,-0.01976268509030342,0.003968976696208119,-0.01582332721422426
1782812404868401700,8.239401611328125,-0.03218260620236397,0.00935282515902072,0.001378485278971493
1782812404888484000,8.259484130859375,-0.010634791260957717,-0.0174054727059789,0.010732251152908429
1782812404908566000,8.27956591796875,-0.007190203765034675,-0.0071592241048812864,0.030155995745584366
1782812404928649000,8.29964892578125,-0.026046879926323888,0.00831756382714957,0.009517395470431074
1782812404948731000,8.31973095703125,-0.02170855846107006,0.009726042385585606,-0.0016171254735905677
1782812404968813800,8.339813720703125,-0.028294366592168805,0.00666285542268306,-0.01379212278071791
1782812404988896000,8.35989599609375,-0.026048633491992948,-0.010276314945798367,-0.012041771982051431
1782812405008979200,8.379979248046874,-0.023208441630005835,0.004035228599142283,0.007272265158453956
1782812405029061000,8.40006103515625,-0.020516718327999114,-0.007882277682423592,0.0089248364047613
1782812405049144000,8.42014404296875,-0.014385083705186843,-0.0006120309511199593,0.011844185317028313
1782812405069226000,8.44022607421875,-0.021716741767525673,-0.00020259163370355964,0.007296970341447741
1782812405089309000,8.460308837890626,-0.022611060258746145,0.010144121667183936,-0.025573371529905124
1782812405109390800,8.480390869140624,-0.021713819158077238,0.013022855441272258,-0.02536328157633543
1782812405129474000,8.50047412109375,-0.028448680371046066,0.00084001275440678,0.0009817867121193558
1782812405149556000,8.520555908203125,-0.023511223968863487,-0.027885639660805463,-0.004238112493790686
1782812405169639200,8.54063916015625,-0.026355507484078406,-0.010496314372029155,0.026790473968395963
1782812405189721000,8.56072119140625,-0.03712941495478153,-0.006924538566172122,0.011158942999225109
1782812405209804000,8.580803955078125,-0.01573065309524536,0.008610409293882548,-0.023552240965841336
1782812405229886000,8.600885986328125,-0.022464345264434814,-0.017553283678833395,-0.021816950738988816
1782812405249969000,8.620968994140625,-0.01842646805047989,0.0067830660025589165,-0.014419351300969718
1782812405270051000,8.641051025390626,-0.028452187502384183,-0.005484751554019749,0.004710004321858287
1782812405290134000,8.661134033203124,-0.0315928236156702,-0.012580189707688986,0.023333757643261923
1782812405310216000,8.6812158203125,-0.02440904959142208,-0.0057611573426052925,0.012042548300186171
1782812405330299000,8.701298828125,-0.016325111857056616,-0.004239628597442061,0.007730840847222134
1782812405350380800,8.721380859375,-0.0190185887247324,0.01741986655751243,-0.0005487016576342284
1782812405370464000,8.741464111328124,-0.0199117381721735,-0.0008262216910719871,-0.019142827025754375
1782812405390546200,8.761546142578124,-0.01826514000892639,-0.01577304919855669,-0.001906573406839743
1782812405410629000,8.781629150390625,-0.020509119543433187,-0.006644716977793723,0.007597807318391278
1782812405430711000,8.8017109375,-0.013323591953516005,-0.007190130699798464,0.011182643535220995
1782812405450794000,8.8217939453125,-0.03606675415933132,0.00217405610345304,0.01567551624136977
1782812405470876000,8.8418759765625,-0.02484159578979015,0.001955846775509417,-0.007126801406312734
1782812405490958800,8.861958740234375,-0.007483049231767654,-0.002972786999400705,-0.03010500534386374
1782812405511041000,8.882041015625,-0.01556464887857437,-0.003367156611848622,-0.009490589661896228
1782812405531124200,8.902124267578126,-0.012870002967119216,-0.0058254547504708164,0.007516732305660844
1782812405551206100,8.9222060546875,-0.011078443375229835,0.004877323712781071,0.014891087865410373
1782812405571289000,8.9422890625,-0.021107085436582563,-0.02542648300565779,0.006309859000239521
1782812405591372000,8.9623720703125,-0.016320435681939124,-0.012833890474122017,0.002692179959733039
1782812405611454000,8.982453857421875,-0.03188274647295475,-0.0032716786144301293,-0.01909613833981566
1782812405631537000,9.002536865234376,-0.033084523478150364,0.011381956366449593,-0.01845618733530864
1782812405651619000,9.022619140625,-0.03653028001785278,-0.0140546827070415,0.00392753044096753
1782812405671702000,9.042701904296875,-0.021268998000025748,-0.015480952650494872,0.0073129990276414895
1782812405691784000,9.062783935546875,-0.01693067653477192,-0.00016823270637542008,0.01519365100855939
1782812405711867100,9.0828671875,-0.0196241534024477,-0.012715689188241957,0.011269536367384717
1782812405731949000,9.102948974609374,-0.03189560595452785,-0.0021921762820333243,-0.012096461311355233
1782812405752032000,9.123031982421875,-0.025017536878585815,-0.006665887629985809,-0.01778942138911225
1782812405772114000,9.143114013671875,-0.01933130793571472,0.005968023292627185,-0.0021056853086687624
1782812405792196900,9.16319677734375,-0.02995207067131996,-0.001169719632808119,0.004243701984360814
1782812405812279000,9.183279052734376,-0.012594108635187149,-0.015233681624848394,0.010072627333551645
1782812405832362000,9.203362060546874,-0.031599253356456754,-0.0015750672969967127,0.020368761224672197
1782812405852444000,9.22344384765625,-0.012440379378199577,-0.0068551996570080515,-0.005402726693218574
1782812405872527000,9.243527099609375,-0.022166239100694655,0.010643102431576698,-0.00798930912031792
1782812405892608800,9.26360888671875,-0.028304887986183164,-0.008247128939442336,-0.018452543206652624
1782812405912691700,9.283691650390624,-0.016480010157823563,-0.020445936380419878,-0.003305489552486688
1782812405932774000,9.30377392578125,-0.03203647572994232,-0.0177767902364023,0.013811795595567673
1782812405952856800,9.32385693359375,-0.01527531054317951,0.0009197634597308933,0.011711791109014302
1782812405974194000,9.34519384765625,-0.012731471279263495,0.000288242356851697,0.005983686652639881
1782812405994275800,9.36527587890625,-0.013782441636919975,-0.0058796143568120894,-0.012602355873724444
1782812406014358800,9.38535888671875,-0.016780454409122465,-0.0030033648007549343,-0.016370065243635327
1782812406034441700,9.405441650390625,-0.037432781815528865,0.011299940638802944,-0.014448979254253208
1782812406054523600,9.425523681640625,-0.01648059467971325,0.0020856106350198387,0.00822814111118205
1782812406074606600,9.445606689453125,-0.024265841728448867,-0.005832450746838003,0.018907127706892787
1782812406094688800,9.465688720703126,-0.008104396000504494,-0.009885233268979936,0.0021258695801720023
1782812406114771700,9.485771728515624,-0.019924597653746604,0.0064060311174020165,-0.010345069333072752
1782812406134853600,9.505853515625,-0.03264204040765762,0.014744235873781144,-0.012511700181895867
1782812406154936800,9.525936767578125,-0.01632978803217411,0.00033105858527123926,-0.01073012312790379
1782812406175018800,9.546018798828126,-0.03204407451450825,-0.012311985491868108,-0.0036810722660738974
1782812406195101700,9.566101806640624,-0.02082709945142269,-0.008399981413595378,0.010287411728547885
1782812406215183600,9.58618359375,-0.01977788265943527,0.002744202407915145,0.019355072403792292
1782812406235266600,9.6062666015625,-0.021871640068292616,-0.015869623174518347,-0.006927497708238661
1782812406255348700,9.6263486328125,-0.02681143455803394,-0.002644176099542528,-0.004391312027815729
1782812406275431700,9.646431640625,-0.030702012255787847,0.0023243147617205977,-0.012528422987833618
1782812406295513600,9.666513671875,-0.020228549036383627,-0.0007559512001462281,0.0021967428592965005
1782812406315596800,9.6865966796875,-0.026813188123703,-0.013765161708556115,0.007031807466084137
1782812406335678700,9.7066787109375,-0.019933950003981588,-0.0007639518435113131,0.0010134239593986422
1782812406355761700,9.72676171875,-0.018733926564455033,0.009423186981491744,0.012530560145992785
1782812406375843800,9.74684375,-0.016640753677487373,0.01341759037990123,0.002393041749531403
1782812406395926800,9.7669267578125,-0.024427169770002363,-0.014108385655656456,-0.01733244400238618
1782812406416008700,9.7870087890625,-0.018740356305241585,-0.004532327933702618,-0.011261060799984261
1782812406436091600,9.807091552734375,-0.020686229676008222,-0.0023955168344080447,0.0038995373223442583
1782812406456173600,9.827173583984376,-0.021731939336657524,0.004293167149275541,0.015254514350323005
1782812406476256500,9.847256591796874,-0.020686229676008222,-0.016644918395951388,0.0008688552564010024
1782812406496338700,9.867338623046875,-0.016350830820202826,-0.005774583079759031,0.0025415925079025326
1782812406516422000,9.887421875,-0.0220423204600811,-0.0009714936469681561,-0.009703885352704673
1782812406536503800,9.90750390625,-0.014711246919631956,0.0047459524180740115,-0.008657837765337899
1782812406556586800,9.927586669921874,-0.02623275788724422,0.003999280502926558,-0.0032910774346441027
1782812406576668700,9.947668701171875,-0.006032265901565552,-0.015277502500265836,0.012685220984742045
1782812406596751600,9.967751708984375,-0.028626375025510787,0.005020312380045652,0.003757261041132733
1782812406616834600,9.98783447265625,-0.021893851900100708,-0.0016765731764025985,0.003597211641212925
1782812406636916700,10.007916748046876,-0.011714987713098526,0.003459876396600157,-0.016938996838545425
1782812406657000000,10.028,-0.01156535010933876,-0.0005260331680998206,-0.009188830236345528
1782812406677081900,10.048081787109375,-0.02054477537870407,-0.011128255600016564,-0.008405698768328874
1782812406697164800,10.068164794921875,-0.01859890200793743,-0.0024742446264252064,0.0024059468968771398
1782812406717246700,10.088246826171876,-0.02323825224637985,-0.009947393518686294,0.0058690472970250995
1782812406737329700,10.10832958984375,-0.004980711022019386,-0.007625818703323602,0.008175388010637835
1782812406757411800,10.128411865234375,-0.01680851145982742,-0.010284954909980297,0.00019345847917720673
1782812406777494800,10.148494873046875,-0.023993454527854917,0.007148227786831557,-0.014781517410557716
1782812406797576700,10.16857666015625,-0.026534955704212188,0.010108831158094108,0.0019567144251894206
1782812406817659600,10.18865966796875,-0.008277999001741409,-0.01669515074584633,-0.006910400442965328
1782812406837741600,10.208741455078124,-0.02009644708931446,-0.0182439328241162,0.010887048988975584
1782812406857824800,10.22882470703125,-0.027281390157341955,-0.0024903189783915874,0.012936008274881169
1782812406877906700,10.24890673828125,-0.17393033349514006,0.020623539703339338,-0.05477422197512351
1782812406897990000,10.268989990234376,-0.08938684093654155,0.005269592699687927,-0.02609185157921165
1782812406918072000,10.289072021484374,0.014766776499152182,0.010580120197962969,0.00338391595040448
1782812406938155000,10.309155029296875,-0.05376549245715141,0.024413944962248205,-0.038883181553240866
1782812406958237000,10.32923681640625,-0.024576222851872442,-0.020620836289599535,-0.0017741517993621527
