time,seconds_elapsed,z,y,x
1782812207494612700,0.05461279296875,0.009812368962168694,0.04596090138712897,0.033342475728015415
1782812207514695700,0.07469580078125,0.02327566164731979,0.07090818604109808,-0.1213456939861644
1782812207534777600,0.094777587890625,0.0014186346262693404,-0.0020673625922761857,-0.20909049420356748
1782812207554860500,0.114860595703125,0.00486029951274395,-0.12997359327096492,-0.15438547414029016
1782812207574943500,0.134943603515625,-0.02894903110861778,-0.09327928179781883,0.03699844095229637
1782812207595025700,0.155025634765625,-0.01696983950138092,-0.07112259597675874,0.10593923134398646
1782812207615108600,0.175108642578125,0.012961188381910323,0.010684000697545706,0.09606433680593035
1782812207635191600,0.195191650390625,0.013093874850869177,0.036923553651757535,-0.030915883335331452
1782812207655274800,0.215274658203125,-0.019986556974053382,-0.02885106889316812,-0.18309105188185348
1782812207675356700,0.235356689453125,-0.00816986245214939,-0.057077722277678544,-0.1786410502030514
1782812207695439600,0.255439697265625,-0.03345569487810135,-0.07403809983097016,-0.061322785102063786
1782812207715522800,0.275522705078125,-0.028359833043813704,-0.04048340155780315,0.04677144145187922
1782812207735606000,0.29560595703125,-0.02955342674255371,-0.001840440234914422,0.11336676012938841
1782812207755688000,0.31568798828125,-0.006969839012622833,0.01032022715276107,0.03258795386655256
1782812207775771000,0.33577099609375,-0.01655541348159313,-0.02696487155407667,-0.11440803107693791
1782812207795853800,0.355853759765625,-0.02060322756767273,-0.011265581711474805,-0.16242694270610808
1782812207815935700,0.375935791015625,-0.024192776492238045,-0.08532941877190023,-0.13116913233161903
1782812207836018700,0.396018798828125,-0.03779986156225204,-0.035776575573720035,-0.016408351427409797
1782812207856102000,0.416101806640625,-0.019842180067300794,-0.003109364192187786,0.09402267491049132
1782812207876184800,0.436184814453125,-0.029877251869440076,-0.013816015112958848,0.07046862558005378
1782812207896267000,0.45626708984375,-0.023763152903318405,-0.01890338311353698,-0.03269920938841533
1782812207916350000,0.476349853515625,-0.036197687062621116,-0.03713962582154199,-0.1233529695548117
1782812207936433000,0.496432861328125,-0.024673253485560417,-0.053801970276329665,-0.15768104508696124
1782812207956514800,0.516514892578125,-0.03469137415289879,-0.013785090251732617,-0.050916368370037525
1782812207976597800,0.53659765625,-0.023471476480364798,-0.01498535115327686,0.031993180010910144
1782812207996681000,0.556680908203125,-0.022440379866957662,-0.014602251853514462,0.07529196321642957
1782812208016764000,0.576763916015625,-0.018583119916915893,-0.035044991629850114,0.005245823665033094
1782812208036845800,0.596845703125,-0.023535773888230322,-0.08078046849695965,-0.09094375152233987
1782812208056928800,0.6169287109375,-0.020249591824412345,-0.04417829228667542,-0.12911419996265322
1782812208077011700,0.63701171875,-0.019646949756145476,-0.019730499853752553,-0.068787052001548
1782812208097094000,0.657093994140625,-0.016958733585476875,-0.0033034437258727847,-0.001804414506885223
1782812208117176800,0.6771767578125,-0.019227263039350507,0.01240974677791819,0.06642124988539144
1782812208137260000,0.697260009765625,-0.018206103298068047,-0.04515460823923349,0.021336866471311076
1782812208157343000,0.717343017578125,-0.023454525345563887,-0.05244138598022982,-0.04620205776582006
1782812208177425000,0.7374248046875,-0.003558569264411926,-0.03511939030662179,-0.10428057741676457
1782812208197507800,0.7575078125,-0.017911504265666008,-0.0321170484191738,-0.09564623012486845
1782812208217590800,0.7775908203125,-0.013128361642360687,-0.012475194963254034,-0.03655948327945079
1782812208237672700,0.797672607421875,-0.009107435563206673,-0.022021222873125225,0.03407163938593585
1782812208257756000,0.817755859375,-0.029033786782622334,-0.03927932299766689,0.040228006591205484
1782812208277838800,0.8378388671875,-0.02081540901362896,-0.03244976923856884,-0.00006455313619226217
1782812208297921800,0.857921875,-0.011242694026231764,-0.03932650487395003,-0.07456766752987168
1782812208318004000,0.87800390625,-0.02635316939651966,-0.024837211875617504,-0.11490882933908142
1782812208338087000,0.8980869140625,-0.010344283881783484,0.002311455280147493,-0.05900821541622281
1782812208358169900,0.918169921875,-0.022176760494709014,-0.012937752707395701,-0.004131277418718673
1782812208378251800,0.938251708984375,-0.01635375342965126,-0.025451690512150526,0.055761246551363726
1782812208398335000,0.9583349609375,-0.019061843344569205,-0.019308785576652734,0.03020141492304392
1782812208418418000,0.97841796875,-0.013838555738329886,-0.042791751565411686,-0.027547626178362407
1782812208438500900,0.9985009765625,-0.024766776987910268,-0.03205149063598364,-0.08603706471775657
1782812208458582800,1.018582763671875,-0.01773848578631878,-0.008153733301255852,-0.09182276284657419
1782812208478665700,1.038665771484375,-0.02836392469704151,-0.02850260251536965,-0.03212223148436751
1782812208498748700,1.058748779296875,-0.017594693401455877,-0.033862741309031844,0.0156969289221568
1782812208518830800,1.078830810546875,-0.02928103954195976,-0.008500464379694312,0.05217747434703633
1782812208538914000,1.0989140625,-0.022858897539973257,-0.03007743235034868,-0.0029760338358348236
1782812208558997000,1.1189970703125,-0.023468553870916366,-0.020521942492388187,-0.06440622483512852
1782812208579080000,1.139079833984375,-0.01703647499680519,-0.016984068956132976,-0.08038324020714499
1782812208599161900,1.159161865234375,-0.023466800305247306,-0.03795437627052888,-0.07508225228877272
1782812208619244800,1.179244873046875,-0.03394201709032058,-0.022283033880777656,-0.017736526724672876
1782812208639327700,1.19932763671875,-0.038436405900120735,-0.016496029710862784,0.02365904864144977
1782812208659410000,1.219409912109375,-0.012705752316117286,-0.025366770441364494,0.019371671912143937
1782812208679492900,1.239492919921875,-0.018553893822431562,0.004807126287091523,-0.010182636179821566
1782812208699576300,1.259576416015625,-0.02694879720211029,-0.012714008687809109,-0.06312919520321301
1782812208719658500,1.279658447265625,-0.03219078950881958,-0.02703494111560285,-0.07457963652887847
1782812208739741400,1.299741455078125,-0.0016664719074964522,-0.03064253715351224,-0.04916679845608305
1782812208759824600,1.31982470703125,-0.02875380079746246,-0.03995152317080646,-0.014678678090590983
1782812208779907600,1.339907470703125,-0.021426818910241126,-0.029827220448944716,0.015955305863707324
1782812208799989500,1.359989501953125,-0.029212065958976744,-0.010069522061012685,0.0036971009522676467
1782812208820072400,1.380072509765625,-0.026379472881555555,-0.012335074106510727,-0.01682610648202244
1782812208840155400,1.4001552734375,-0.036411622074246405,-0.018588545010704546,-0.04635710219705943
1782812208860237300,1.4202373046875,-0.019362872117757796,-0.014960636837128548,-0.048727575921756215
1782812208880320500,1.440320556640625,-0.023857260927557945,-0.003219747497793287,-0.036691964252432804
1782812208900403500,1.460403564453125,-0.024902970588207243,-0.03636853185119107,-0.002084637954062782
1782812208920486400,1.480486328125,-0.017278467059135435,-0.03980312767606228,0.006821708379359915
1782812208940568300,1.500568359375,-0.017127660411596298,-0.030817838921491054,-0.019793600818375126
1782812208960651500,1.520651611328125,-0.01623217287659645,-0.017935853255633263,-0.03614490656261332
1782812208980734500,1.540734375,-0.015640636724233627,0.0034060273175127802,-0.0494522186681861
1782812209000816600,1.560816650390625,-0.007121814703941345,-0.001889485274720937,-0.040778909339080564
1782812209020899600,1.580899658203125,-0.013712883532047271,-0.015576339316368102,-0.017105096953338943
1782812209040982500,1.600982421875,-0.026293548163771628,-0.045164271116722374,0.012016569042135961
1782812209061065500,1.6210654296875,-0.015969722548127174,-0.04400708217192441,0.00006337039268109947
1782812209081147400,1.6411474609375,-0.02569382870495319,-0.018852547975443303,-0.02425086792160291
1782812209101230300,1.661230224609375,-0.023448095604777335,-0.019075817070994525,-0.04928359323616605
1782812209121313500,1.6813134765625,-0.01821194851696491,0.0053932008130475875,-0.0428127943534404
1782812209141395500,1.7013955078125,-0.018070494219660758,-0.001210818828176707,-0.025007143348734825
1782812209161478400,1.721478515625,-0.017328735941648483,-0.020579463099595158,0.007600748194148764
1782812209181561300,1.741561279296875,-0.026911972323060033,-0.025215598467644304,-0.004444558318704366
1782812209201643500,1.7616435546875,-0.02466916183233261,-0.03484194333842024,-0.016413767388043923
1782812209221726500,1.7817265625,-0.023024901756644248,-0.028678817598801105,-0.05580348282447085
1782812209241809400,1.801809326171875,-0.012846037569642066,-0.020505685477331278,-0.055436681638960726
1782812209261892600,1.821892578125,-0.008211363506317139,-0.005833638056926429,-0.01845873091884423
1782812209281974500,1.841974609375,-0.010614332994818686,-0.0008672295548953115,0.00946951490782667
1782812209302057500,1.862057373046875,-0.02858136684000492,-0.01254254284473136,0.01011429735107813
1782812209322140400,1.882140380859375,-0.01257657297849655,-0.03412044239714741,-0.02281598541343119
1782812209342222300,1.902222412109375,-0.019016250637173653,-0.04552062854003161,-0.049077731933142056
1782812209362305300,1.92230517578125,-0.030682138511538504,-0.03011564546888694,-0.030988185953139326
1782812209382388500,1.942388427734375,-0.0011982698738574982,-0.013506200245115904,-0.02304185745802242
1782812209402471400,1.962471435546875,-0.024993571481108662,-0.006801021784357726,-0.006648082545236684
1782812209422553600,1.9825537109375,-0.011685761618614196,-0.0124901550703682,-0.005993445428251289
1782812209442636500,2.002636474609375,-0.03085048081576824,-0.017133724826201794,-0.023535801287693902
1782812209462719500,2.022719482421875,-0.015738836401700974,-0.016484996860194952,-0.03380672767232172
1782812209482801400,2.042801513671875,-0.020682722544670105,-0.013897391519788652,-0.012106078523071481
1782812209502884400,2.06288427734375,-0.023228899896144864,-0.013207089434377848,-0.010955940373567863
1782812209522967600,2.082967529296875,-0.021288287222385405,-0.009486132682487368,-0.008269664998236111
1782812209543049500,2.103049560546875,-0.014715338572859763,-0.013722546409536152,-0.0195401101144962
1782812209563132400,2.12313232421875,-0.015769231539964675,-0.027191063259076324,-0.04341696165851317
1782812209583215400,2.14321533203125,-0.025799627166986465,-0.00927652678610757,-0.04619750488828867
1782812209603298300,2.16329833984375,-0.009935118559002875,-0.02222905693752691,-0.02967923594615422
1782812209623380500,2.18338037109375,-0.018918050959706306,-0.006063117697555571,-0.004676060953061096
1782812209643463400,2.20346337890625,-0.009498480707406998,-0.0034605887826532123,0.013355653892480767
1782812209663546600,2.223546630859375,-0.01803425386250019,-0.000038140053302049634,-0.013450492569082416
1782812209683628500,2.243628662109375,-0.0228308404892683,-0.017925605856254696,-0.01363445713412948
1782812209703710700,2.263710693359375,-0.027477789512276647,-0.017651574687846006,-0.0025607903987169265
1782812209723793700,2.283793701171875,-0.012363222488760947,-0.0026972579936496914,0.01800415098518133
1782812209743875800,2.303875732421875,-0.00428863710463047,-0.017484090900141743,0.0019068017357029019
1782812209763958800,2.323958740234375,-0.013577274453639984,-0.010100647851638495,-0.019875863141193984
1782812209784041700,2.344041748046875,-0.02720072613656521,-0.026833299329970032,-0.046353293671621935
1782812209804125000,2.364125,-0.02944529019296169,-0.02487460301024839,-0.041011823045811614
1782812209824206800,2.384206787109375,-0.02196165643930435,-0.007558123761974274,-0.020776200381247327
1782812209844289800,2.404289794921875,-0.012833762609958648,-0.0027524770459160207,-0.005881208092276938
1782812209864372700,2.424372802734375,-0.008049450942873954,0.0021680647540837524,-0.002385068505629897
1782812209884454700,2.44445458984375,-0.008656769186258316,-0.04323091016765684,-0.02292027233839035
1782812209904537600,2.46453759765625,-0.027666590082645416,-0.01600716848168522,-0.0006953938190592452
1782812209924620500,2.48462060546875,-0.01824117461144924,-0.010260057930741459,-0.000505880862637423
1782812209944702700,2.50470263671875,-0.024527707535028455,-0.027825379107240585,-0.007216004926571622
1782812209964786000,2.524785888671875,-0.0246913736641407,-0.02991243278067559,-0.009006112346891313
1782812209984868900,2.544868896484375,-0.02290858190059662,0.007595971554331481,-0.027529405535082332
1782812210004951800,2.564951904296875,-0.003455108889937401,0.04063526765126735,-0.06503889214890077
1782812210025033700,2.58503369140625,-0.015431962409615516,-0.013519498118106274,-0.08453321775975636
1782812210045116700,2.60511669921875,-0.016933014622330666,-0.06962578154774382,-0.04996115457101259
1782812210065199600,2.62519970703125,-0.010347791013121605,-0.03811851732367649,0.01615328982095234
1782812210085281500,2.645281494140625,-0.012137597039341926,-0.009496033021993935,0.056329716921970245
1782812210105364700,2.66536474609375,-0.016927753925323485,-0.003732464526593685,0.04998027483001351
1782812210125447700,2.68544775390625,-0.019485037192702292,0.006500541000440716,-0.025603163879970088
1782812210145530600,2.705530517578125,-0.004677928683161735,-0.04712011789223179,-0.11245885150423272
1782812210165612800,2.72561279296875,-0.03115677028596401,0.0003438084689900279,-0.08629759708377532
1782812210185695700,2.74569580078125,-0.029353520256280897,-0.013883984048943965,-0.021860077494662254
1782812210205778700,2.76577880859375,-0.024404957938194274,-0.008992376082483678,0.061088752583903255
1782812210225860900,2.78586083984375,-0.015438976672291755,0.0189912805926986,0.10170808744709939
1782812210245943800,2.80594384765625,-0.009615969607234001,0.006385481519717723,0.045807939315121615
1782812210266026800,2.82602685546875,-0.024289807125926016,-0.0070960592081770295,-0.049759645216120404
1782812210286108700,2.846108642578125,-0.023093875339627264,-0.04440786325884983,-0.11509765730891376
1782812210306191600,2.866191650390625,-0.02263970183134079,-0.02244657214572653,-0.10104356825691647
1782812210326274600,2.886274658203125,-0.032062194693088526,0.024520839402824637,-0.011933187907887622
1782812210346357800,2.906357666015625,-0.004532382732629776,0.01982378589408472,0.06467398609295487
1782812210366440000,2.92643994140625,-0.022648469659686088,-0.05455397595372051,0.04911784931439906
1782812210386523000,2.94652294921875,-0.01158580837547779,-0.06914225408080965,0.002356961222575046
1782812210406605800,2.966605712890625,-0.01712006162703037,0.004362140732258558,-0.07365987763572483
1782812210426687700,2.986687744140625,-0.018607085314393042,0.032556718478072434,-0.09220303086843341
1782812210446770700,3.006770751953125,-0.02204875020086765,0.04721492003621533,-0.04894171186278108
1782812210466853600,3.026853515625,-0.017271452796459197,-0.07657083317898214,-0.004230769437551498
1782812210486935600,3.046935546875,-0.021012392890453337,-0.046512178594339634,0.06667196867687161
1782812210507018800,3.067018798828125,-0.01622866574525833,0.022901531105302273,0.03788248921125196
1782812210527101700,3.087101806640625,-0.019514847809076308,-0.002648852274660021,-0.04176659606902394
1782812210547184600,3.1071845703125,-0.027749007669091223,0.013807283817231654,-0.09520756471296772
1782812210567266800,3.127266845703125,-0.008155833926796913,-0.05283434908688068,-0.08146282473793252
1782812210587349800,3.147349853515625,-0.017578326788544655,-0.0018785254892893135,0.006444267068826593
1782812210607432700,3.1674326171875,-0.014137830945849418,0.013099500874057412,0.06148469766550697
1782812210627514600,3.1875146484375,-0.015484569379687308,-0.04656513262428343,0.05561402010039892
1782812210647597800,3.207597900390625,-0.010855740535259246,-0.01940386171527207,-0.014373932123510166
1782812210667680800,3.2276806640625,-0.021034604722261426,-0.034298319714702666,-0.07760921804970129
1782812210687762700,3.2477626953125,-0.019830489629507064,0.04366099041430279,-0.06063962971006985
1782812210707846000,3.267845947265625,-0.003226560831069946,0.010158990442752838,-0.02407958474161569
1782812210727928800,3.2879287109375,-0.029867314997315406,-0.05100625687688589,0.01670097313185688
1782812210748012000,3.308011962890625,-0.024486791002750394,-0.04116089896056801,0.05196600528713315
1782812210768094000,3.328093994140625,-0.010422609815001488,-0.02658864038651809,0.02983886978754308
1782812210788177000,3.348177001953125,-0.024334815311431883,0.02318138922629878,-0.02424196766251698
1782812210808259800,3.368259765625,-0.025984336084127424,0.0023714601053856314,-0.07037194657281506
1782812210828342000,3.388342041015625,-0.02643675602674484,-0.02673568417439237,-0.06973848924117627
1782812210848425000,3.408425048828125,-0.021352000108361243,-0.0057760626507923005,0.006679381865798495
1782812210868508000,3.4285078125,-0.012521043398976325,-0.0066394928134046495,0.04104114960499573
1782812210888589800,3.44858984375,-0.03736263918876648,-0.006925141354370862,0.05292210043556988
1782812210908673000,3.468673095703125,-0.03153320238292217,-0.028202030399907378,0.000897291333018802
1782812210928756000,3.488755859375,-0.00040799627900123595,-0.016549129871279,-0.061181819428526796
1782812210948838000,3.508837890625,-0.01611409945487976,0.03121136828372255,-0.05656141591914929
1782812210968920800,3.5289208984375,-0.0229921685308218,0.00467283238293603,-0.04342165153336245
1782812210989003800,3.549003662109375,-0.0256891525298357,-0.02735434579569846,0.026519214712386018
1782812211009086700,3.569086669921875,-0.02360065581798553,-0.04903703916314989,0.04128065744929481
1782812211029169200,3.589169189453125,-0.012523966008424758,-0.01573030603537336,0.016644785965210757
1782812211049252000,3.609252197265625,-0.01746083788871765,0.020650318112410603,-0.025257871273369526
1782812211069335000,3.6293349609375,-0.014773206239938734,-0.0009408062477596103,-0.0556767603054177
1782812211089417000,3.6494169921875,-0.033036592683196066,-0.007060586035996675,-0.0403604738644557
1782812211109500000,3.6695,-0.023162264400720594,-0.027785193227324635,0.00437401839972008
1782812211129582800,3.689582763671875,-0.014776713371276855,-0.011830375987384468,0.04152839426582213
1782812211149666000,3.709666015625,-0.02570142748951912,-0.0021344730117358267,0.026390122139733282
1782812211169748000,3.729748046875,-0.026603929287195204,-0.026484303229209034,-0.03498455754634924
1782812211189831000,3.749830810546875,-0.02361468434333801,-0.0012544205078855156,-0.06523382563253399
1782812211209913900,3.769913818359375,-0.029150691160559652,0.01133501195218414,-0.03291341382809915
1782812211229996000,3.78999609375,-0.019421324306726453,0.0035028022228740154,-0.0051668903770390896
1782812211250079000,3.810078857421875,-0.025557635104656216,-0.030585345339868217,0.029499395000375805
1782812211270162000,3.830161865234375,-0.01598550463914871,-0.03423265233365819,0.028256322436989282
1782812211290243800,3.850243896484375,-0.03783084122240543,-0.005798128352127969,0.006246995497634634
1782812211310327000,3.8703271484375,-0.023760814815759656,-0.0006939553472213447,-0.03368534804866649
1782812211330410000,3.890409912109375,-0.028404256707429885,0.0059639499057084315,-0.05351903428225778
1782812211350492000,3.910491943359375,-0.011351999619603157,-0.02222609779546037,-0.03777589159819763
1782812211370574800,3.930574951171875,-0.02945873419642448,-0.025646135372016578,-0.004242007784196176
1782812211390657800,3.95065771484375,-0.016888590958714485,0.004366323717031628,0.031055049777426756
1782812211410740700,3.97074072265625,-0.024821137523651123,-0.01702323192274198,0.013179278978845103
1782812211430823000,3.990822998046875,-0.01480477042198181,-0.01229234920963645,-0.01503519534410443
1782812211450906000,4.010906005859375,-0.007776479220390319,-0.003295479615125805,-0.04657299627033062
1782812211470989000,4.030989013671875,-0.02588262927532196,-0.003251530875544995,-0.04109203954201657
1782812211491071000,4.051071044921875,-0.013462123641371726,-0.0021905688468366862,-0.000959510948229581
1782812211511154000,4.07115380859375,-0.025133856734633444,-0.01657733305245638,0.007374255095049739
1782812211531236900,4.09123681640625,-0.016753566402196884,-0.015926212199963628,0.015143044199328869
1782812211551318800,4.11131884765625,-0.011665303352475166,-0.00765287110703066,-0.0022213293112814426
1782812211571402000,4.131402099609375,-0.024684943923354147,0.0037327385212294756,-0.029622025866201145
1782812211591485000,4.15148486328125,-0.019602526092529295,0.0025825090401805934,-0.034055373237724416
1782812211611567900,4.17156787109375,-0.020203414595127103,-0.013319189773034304,-0.03428357880329713
1782812211631650000,4.191650146484375,-0.02379647065103054,-0.012631207508873194,-0.000877878813073039
1782812211651733000,4.21173291015625,-0.01990823104083538,-0.00914968553604558,0.02482569496775977
1782812211671816000,4.23181591796875,-0.019905892953276633,-0.00896808189144358,0.005214862271188758
1782812211691897900,4.25189794921875,-0.016770517536997796,-0.012670790600590407,-0.021671683349669908
1782812211711981000,4.27198095703125,-0.02171148107051849,-0.02124921558732167,-0.02796985647869296
1782812211732064000,4.29206396484375,-0.01677636275589466,0.007604794181603938,-0.025302605464239604
1782812211752146000,4.31214599609375,-0.018425299006700514,-0.013657262620981781,-0.011673637355980463
1782812211772228900,4.332228759765625,-0.018877134427428246,-0.012684344201907515,0.00038039131944533433
1782812211792311800,4.352311767578125,-0.022772388300299644,-0.013154665127396582,-0.0036825792365707457
1782812211812394800,4.372394775390625,-0.029057752180099487,-0.006299629867170005,-0.01263634947487153
1782812211832477000,4.392476806640625,-0.03220774064362049,0.01754382173074409,-0.026945326603390274
1782812211852560100,4.41256005859375,-0.007521627676486968,-0.003733085581101477,-0.03511789246927947
1782812211872643000,4.43264306640625,-0.02622983527779579,-0.007770780131965875,-0.013525959824933669
1782812211892725000,4.45272509765625,-0.028927988320589064,-0.01752619474250823,0.0019910368198994546
1782812211912808000,4.472807861328125,-0.022792262044548987,-0.014582268511410802,0.010348946357169188
1782812211932891000,4.492890869140625,-0.015163666862249374,0.004307177408318966,-0.008661682823393493
1782812211952972800,4.512972900390625,-0.0293839153945446,-0.033749143133033066,-0.03690931049727369
1782812211973056000,4.533055908203125,-0.027592940324544905,0.011286587966885416,-0.02715301453731954
1782812211993139000,4.553138916015625,-0.023547464326024056,0.0007038556867279112,-0.021983553177281283
1782812212013221000,4.57322119140625,-0.020106968483328817,-0.004360569829680025,-0.007621069462969899
1782812212033304000,4.593303955078125,-0.0157768303245306,-0.012192633428517728,0.00733122880407609
1782812212053387000,4.613386962890625,-0.035979075875878334,-0.009958152374718338,0.0024628099169582128
1782812212073469000,4.633468994140625,-0.017570143482089042,-0.012370857805944978,-0.0006333933995570987
1782812212093551900,4.6535517578125,-0.01816986294090748,-0.0035725064582191406,-0.019107417785655705
1782812212113635000,4.673635009765625,-0.013839140260219573,-0.01747373390290886,-0.03126982047269121
1782812212133718000,4.693718017578125,-0.014894786792993544,-0.021230072495434432,-0.014991342502646148
1782812212153800000,4.713800048828125,-0.02552665544450283,-0.000008457301091402769,-0.0014509751264471559
1782812212173883000,4.7338828125,-0.02208791316747665,0.0048373570285737515,0.012449503399571403
1782812212193965800,4.7539658203125,-0.029876082825660705,-0.018002397419512272,-0.005467024101084098
1782812212214048000,4.774048095703125,-0.025094109246134755,-0.02380686418088153,-0.017919011718686668
1782812212234131000,4.794130859375,-0.02584288178682327,-0.007222900458239019,-0.016303311017202213
1782812212254214100,4.814214111328125,-0.014918752190470695,0.009242807179596274,-0.006341788508463651
1782812212274296000,4.834296142578125,-0.02509995446503162,-0.005661843420285731,-0.00022097667376510798
1782812212294379000,4.85437890625,-0.02480243282318115,-0.009858016468491404,0.0064284073459915814
1782812212314462000,4.8744619140625,-0.014032617005705832,-0.012565320932120084,-0.006150814247317612
1782812212334544000,4.8945439453125,-0.027052257576584814,0.006751355690043419,-0.0010907635119277983
1782812212354626800,4.914626708984375,-0.03034545390307903,-0.0003897299699485302,-0.008414722325000911
1782812212374710000,4.9347099609375,-0.02077566152513027,-0.012012582420185207,-0.01550294528659433
1782812212394793000,4.95479296875,-0.02885843021571636,-0.014785883058421313,-0.013786378026520833
1782812212414875100,4.974875244140625,-0.025413842719793318,-0.001273947192262858,-0.0007797978666145354
1782812212434958000,4.9949580078125,-0.02406710428595543,0.002284932599402964,0.004911271648155525
1782812212455041000,5.015041015625,-0.016443185278773306,-0.003181881439127028,-0.01993570356965065
1782812212475123000,5.035123046875,-0.020035656812787055,-0.011708320510294287,-0.009157658779947087
1782812212495206000,5.055205810546875,-0.01853694268763065,-0.013405077958200127,-0.023349019144475458
1782812212515289000,5.0752890625,-0.017336919248104096,0.005213990054931492,-0.006966825071629136
1782812212535371000,5.09537109375,-0.01898410193324089,-0.013444715848844498,-0.00609585092337802
1782812212555454000,5.115453857421875,-0.012250409764051437,-0.013600363068282604,0.006943106269324198
1782812212575537000,5.135536865234375,-0.024971359649300574,-0.01789943023538217,-0.0032724823320284483
1782812212595619000,5.155619140625,-0.020179449197649954,-0.012946958927158265,-0.0051778227630071335
1782812212615702000,5.175701904296875,-0.025270634856820105,-0.0008930763822048902,-0.03152574972882867
1782812212635785000,5.195784912109375,-0.021985037314891813,-0.02270553360916674,-0.026465744659211483
1782812212655867000,5.215866943359375,-0.0125613754093647,0.000017955781798809766,-0.013488737653661518
1782812212675950000,5.2359501953125,-0.006875730988383293,-0.00758968794401735,-0.016616377288056535
1782812212696033000,5.256032958984375,-0.04009644806683063,-0.009533515488170087,0.002687321121525019
1782812212716115700,5.27611572265625,-0.0047884033203125,-0.004261548168305308,-0.003209481832105666
1782812212736197600,5.29619775390625,-0.022895722419023514,-0.011282368449494241,-0.014169431660510599
1782812212756280600,5.316280517578125,-0.012272621595859528,0.006972761622071266,-0.006967281729355454
1782812212776362800,5.33636279296875,-0.014071195450425147,-0.01178597059007734,-0.014640209243725985
1782812212796446000,5.356446044921875,-0.02723988910317421,0.006370101287495345,-0.016951500127092
1782812212816529000,5.37652880859375,-0.03352583750486374,-0.009479027088265866,-0.009807647121278568
1782812212836610800,5.39661083984375,-0.005541267514228821,-0.014370909049361943,-0.003792268422432244
1782812212856693800,5.41669384765625,-0.018711130210757255,-0.011493490449525415,0.006465378355514258
1782812212876776700,5.436776611328125,-0.018111410751938818,-0.01010729678813368,-0.003105820528231561
1782812212896858600,5.456858642578125,-0.013625205248594284,-0.00030322073027491567,-0.003479759274004027
1782812212916941600,5.476941650390625,-0.024849779096245764,-0.004750829522591084,-0.019732737476611507
1782812212937024800,5.497024658203125,-0.021859365108609197,-0.004393942376319319,-0.007871811087336391
1782812212957107000,5.51710693359375,-0.024849779096245764,-0.006678436584305018,-0.007347568017523736
1782812212977190000,5.53718994140625,-0.03233049024045467,-0.008239073497150093,-0.005610414627147838
1782812212997272800,5.55727294921875,-0.016168459990620613,-0.00424361065281555,0.0007991053552832454
1782812213017355800,5.577355712890625,-0.03278057209551334,-0.003715257663466036,-0.004426301142806187
1782812213037437700,5.597437744140625,-0.025753449937701223,-0.0005502542939037085,-0.02020031845574267
1782812213057521000,5.61752099609375,-0.023811083698272704,-0.014221874233800917,-0.013598317241668701
1782812213077603800,5.637603759765625,-0.021718495333194733,-0.005605510123167187,-0.0190152277238667
1782812213097685800,5.657685791015625,-0.023068740898370743,-0.007298796972353011,-0.0020640563903376458
1782812213117768700,5.677768798828125,-0.027856559696793553,-0.011570062817074359,-0.003910889833420515
1782812213137851600,5.6978515625,-0.03459609708487987,-0.009319690074399114,-0.0058854778420180075
1782812213157934600,5.7179345703125,-0.008560323074460028,-0.004658913455437869,-0.010568201431306079
1782812213178016800,5.738016845703125,-0.02637187409698963,-0.005875559236202389,-0.02009577123587951
1782812213198100000,5.758099853515625,-0.02756955944895744,-0.0025472550637088715,-0.015205021785944699
1782812213218183000,5.778182861328125,-0.026072598889470097,-0.0007187244622968137,-0.0037214316759258508
1782812213238264800,5.798264892578125,-0.024574469286203382,0.00026477014971897,0.0015661076724063604
1782812213258347800,5.81834765625,-0.029215573090314865,0.0007419774737209081,0.0050330896632280195
1782812213278430700,5.8384306640625,-0.017391279783844946,-0.014192903867643325,-0.0076334631536621594
1782812213298512600,5.8585126953125,-0.00646715018749237,-0.007786525690369308,-0.020758427262539042
1782812213318595600,5.878595703125,-0.013051204752922057,-0.007505699454993009,-0.02715383652122691
1782812213338678800,5.8986787109375,-0.0278676656126976,-0.006077584614325314,-0.007081848019734024
1782812213358761000,5.918760986328125,-0.027724457749724388,-0.008880677602626383,0.0021084617876447735
1782812213378844000,5.938843994140625,-0.018300211322307587,-0.016140823065023867,-0.005119562370283529
1782812213398926800,5.9589267578125,-0.029524785169959065,-0.007895228495541959,0.00625827494347468
1782812213419009800,5.979009765625,-0.020993688189983366,-0.008125219592824577,-0.00005775806922465562
1782812213439091700,5.999091796875,-0.022193711629509925,0.0043756395346485075,-0.018253641367377713
1782812213459175000,6.0191748046875,-0.03686111940741539,-0.0155851071447134,-0.02105375694730319
1782812213479257900,6.0392578125,-0.012021861705183982,-0.011370046732947229,-0.004678896797541529
1782812213499339800,6.05933984375,-0.02309504438340664,-0.008696242680121213,0.011299018190195784
1782812213519422700,6.079422607421875,-0.02174947499334812,-0.00045694998726248737,0.004926195222651586
1782812213539505700,6.099505615234375,-0.030132687935233115,0.003979534622840583,-0.011248575777746737
1782812213559587800,6.119587890625,-0.01083469774723053,-0.011724559259042143,-0.006539649168122559
1782812213579670800,6.1396708984375,-0.023555647632479665,0.006738185681216418,-0.018817458395753054
1782812213599754000,6.15975390625,-0.020863924330472947,-0.004879132077377289,-0.014496846117125824
1782812213619836000,6.1798359375,-0.021460136657953263,-0.0009238733792677522,-0.01716458575534634
1782812213639918800,6.1999189453125,-0.02684942848086357,-0.004024908134527504,0.004502882643509656
1782812213660001800,6.220001708984375,-0.02041442699730396,-0.0027691176534630356,-0.0037115404695738105
1782812213680084700,6.240084716796875,-0.008000935626029968,-0.015308500426728277,-0.009006614670390262
1782812213700166700,6.260166748046875,-0.023419454032182693,0.005520827514398843,-0.014027575504407285
1782812213720249900,6.280249755859375,-0.025216274321079254,-0.010864307434204966,-0.01160025702593848
1782812213740332800,6.300332763671875,-0.03180383601784706,-0.0048993346151895815,0.004352633118396625
1782812213760414700,6.320414794921875,-0.025371172621846197,-0.009356387089286,0.003993115623621269
1782812213780497700,6.34049755859375,-0.01489712488055229,-0.01911974754426628,0.004634372669225558
1782812213800580900,6.360580810546875,-0.010559387937188148,-0.0032574491596780715,-0.008637790491152554
1782812213820663000,6.3806630859375,-0.02208499055802822,0.0059490445975214235,-0.018503716271463782
1782812213840746000,6.40074609375,-0.0280681566208601,0.004208411475270986,-0.0016851583416573703
1782812213860829000,6.420828857421875,-0.03839490484595299,-0.008455163933243602,-0.007369396256841718
1782812213880910800,6.440910888671875,-0.0056231005787849425,-0.002492036011442542,0.013368618405330926
1782812213900993800,6.460993896484375,-0.016696867778897284,-0.008785729328170419,-0.0008936243714764714
1782812213921076700,6.48107666015625,-0.024329554614424705,-0.0032227614387869835,0.016953491154778746
1782812213941160000,6.501159912109375,-0.027023616003990173,0.005040039993822574,-0.020028770414274186
1782812213961241900,6.521241943359375,-0.027774142110347746,0.0017943178045563399,-0.024717037828359753
1782812213981324800,6.54132470703125,-0.02986614595353603,-0.0033923093194141983,-0.01721212382465601
1782812214001407700,6.56140771484375,-0.018043021690845488,0.002222370490897447,-0.002339850257569924
1782812214021490000,6.581489990234375,-0.016699790388345716,-0.003998586383182555,-0.001141562117403373
1782812214041572900,6.60157275390625,-0.02642857272028923,0.004144095801096409,0.007289672950981184
1782812214061656000,6.621656005859375,-0.027774726632237432,-0.0050276371699757875,-0.008001364884292707
1782812214081738000,6.641738037109375,-0.01400572899878025,0.006689907826390117,0.01303036289429292
1782812214101821000,6.661821044921875,-0.03420563646256924,-0.003045285980030894,0.016182899507926778
1782812214121903900,6.68190380859375,-0.027471359771490095,-0.012645857088733463,-0.00519268240542151
1782812214141985800,6.70198583984375,-0.014158873733878134,0.0023311463613063096,-0.0010744882305618376
1782812214162068700,6.72206884765625,-0.01804769786596298,0.0044890002486295995,-0.003839742559660226
1782812214182151700,6.742151611328125,-0.021789807003736495,0.002153013315424323,-0.003003821458481252
1782812214202235000,6.76223486328125,-0.03675415190160274,-0.015617986501008272,0.0006718622464220971
1782812214222317000,6.782317138671875,-0.025684476354718207,-0.011491937813255935,0.00032719526090659197
1782812214242400000,6.80239990234375,-0.010268296036124228,-0.002797101638931781,-0.004683344643795863
1782812214262483000,6.82248291015625,-0.013407178583741188,0.007985628459043801,-0.01419519628942944
1782812214282564900,6.84256494140625,-0.019399112474918365,0.0014640812031924723,-0.009244725142046809
1782812214302647800,6.862647705078125,-0.02015489927828312,0.008906834957189858,-0.013886450000666082
1782812214322730800,6.882730712890625,-0.021803251007199285,-0.007332808839809149,0.0149911872390192
1782812214342812700,6.902812744140625,-0.018358663511276244,-0.020316884906962512,0.014801902611460535
1782812214362896000,6.922895751953125,-0.014017419436573982,-0.005460530428215861,-0.012291125366929917
1782812214382978800,6.942978759765625,-0.01731178480684757,0.0016282770552672446,-0.026439121513767167
1782812214403061000,6.96306103515625,-0.014469839379191397,-0.005071896436810493,-0.028945514844125136
1782812214423144000,6.98314404296875,-0.029137831678986547,0.008242416231706738,-0.009170856188237667
1782812214443227000,7.003226806640625,-0.006243862825632095,-0.0040229719057679175,0.010385474408697337
1782812214463309800,7.023309814453125,-0.013879472270607948,-0.013057689292635767,0.014424219272332265
1782812214483392000,7.04339208984375,-0.011488777741789817,-0.006394559875316917,0.006303931582951918
1782812214503475000,7.063474853515625,-0.023010873231291768,-0.015231982858106494,-0.01760162546574138
1782812214523558000,7.083557861328125,-0.02346095508635044,-0.003522767298668623,-0.03616884456062689
1782812214543639800,7.103639892578125,-0.014777882415056228,0.002064038124028593,-0.019210869026975705
1782812214563722800,7.12372265625,-0.027640286597609517,0.004561608827114105,0.018427427031705156
1782812214583805700,7.1438056640625,-0.02180442005097866,-0.01174768440630287,0.016487161417817697
1782812214603887900,7.163887939453125,-0.023899346503615377,-0.010404032978694886,0.007800946941366418
1782812214623971000,7.18397119140625,-0.02105857011973858,0.006579360124003141,-0.011954185030143708
1782812214644054000,7.204053955078125,-0.025997780087590214,0.0015228439194150268,-0.027354939450742674
1782812214664136000,7.224135986328125,-0.017020692905783653,-0.004110595390293747,-0.022894562508398667
1782812214684219000,7.244218994140625,-0.03782265791594982,0.006470365057885646,-0.008303243040852249
1782812214704301800,7.2643017578125,-0.016573533660173414,-0.007487908069975673,0.008498053226899355
1782812214724383700,7.2843837890625,-0.01193476794362068,-0.011244593722373247,0.019628802178101614
1782812214744466700,7.304466796875,-0.022558453288674354,-0.0067896966727450485,0.006386687096115201
1782812214764549600,7.324549560546875,-0.027350363740324974,0.006336199017893522,-0.018994860789272934
1782812214784631800,7.3446318359375,-0.03094283527433872,-0.0009718041742220521,-0.02317853054893203
1782812214804714800,7.36471484375,-0.022710428979992866,0.0039178492971695955,-0.009023218745319172
1782812214824798000,7.3847978515625,-0.021510990062355993,0.0026386962068267166,0.007592902814410626
1782812214844881000,7.404880859375,-0.027047581401467322,-0.004857705696858465,0.015240622822288424
1782812214864962800,7.424962890625,-0.012684125006198883,-0.0021487937980331478,0.01674120924412273
1782812214885045800,7.445045654296875,-0.012385434320569037,-0.008726199426967651,-0.004880547716328874
1782812214905128700,7.465128662109375,-0.015526070433855056,0.00962325786454603,-0.014307196163386106
1782812214925210600,7.485210693359375,-0.01837152299284935,0.008219839073717594,-0.01872095748502761
1782812214945293600,7.50529345703125,-0.025849311527609824,-0.012101448013726621,-0.011608559063402935
1782812214965376800,7.525376708984375,-0.017919687572121618,-0.007121632040850818,0.013393542784033343
1782812214985459000,7.545458984375,-0.016420973446965217,0.002029606131464243,0.008019548994954676
1782812215005542000,7.5655419921875,-0.02958966709971428,0.008450743486452847,-0.0017648177154362202
1782812215025624800,7.585624755859375,-0.019265256962180136,0.0025909663412719964,-0.007857682097284123
1782812215045706800,7.605706787109375,-0.013133622339367866,0.003733030782174319,-0.003916424525063485
1782812215065789700,7.625789794921875,-0.01956570121347904,0.008890833670459687,-0.01111348728914745
1782812215085872600,7.64587255859375,-0.020910101559758185,-0.010942797764204442,0.0028370409236755222
1782812215105954600,7.66595458984375,-0.016271920365095137,-0.0017725078315474093,0.006346537748817354
1782812215126037800,7.686037841796875,-0.014777882415056228,-0.007065536205749959,0.0028792634970508514
1782812215146120700,7.70612060546875,-0.026903789016604424,-0.007066431254893541,-0.005568219453236088
1782812215166203000,7.726202880859375,-0.011492284873127936,-0.006725271400716155,-0.007985144401853904
1782812215186285800,7.746285888671875,-0.01792787087857723,0.003363960007764399,-0.015866801029769704
1782812215206368800,7.76636865234375,-0.02870294739305973,0.003891947670932859,-0.01017423367765732
1782812215226452000,7.786451904296875,-0.013440496331453323,-0.008191361897904426,-0.00036791086378507314
1782812215246534000,7.806533935546875,-0.020769816306233403,-0.0019889453275129198,0.002881007929565385
1782812215266616800,7.826616943359375,-0.01792787087857723,-0.0016930676534771918,0.0029191023170948025
1782812215286699800,7.84669970703125,-0.029300913286209106,-0.010998911865614355,-0.006339349956205114
1782812215306781700,7.86678173828125,-0.02960135753750801,-0.012312643078994006,-0.00500416496284306
1782812215326864600,7.88686474609375,-0.024214988324046133,0.007032455920055508,-0.011834832966793328
1782812215346947600,7.906947509765625,-0.009548165068030356,0.0014224705511704087,0.00044718664507381617
1782812215367029800,7.92702978515625,-0.025717209580540655,-0.0038392493693158026,0.009707191554643214
1782812215387113000,7.947113037109375,-0.019433014744520187,-0.007235047553759068,-0.000825080046756193
1782812215407196000,7.96719580078125,-0.03289689195156097,-0.006592749328538775,0.007929249496152624
1782812215427277800,7.98727783203125,-0.020923545563220975,-0.002175371277704835,-0.0007660342027433217
1782812215447360800,8.00736083984375,-0.03139993139207363,0.004314794459193944,-0.010343827224057167
1782812215467443700,8.027443603515625,-0.013293196815252303,-0.0022243797848932444,-0.016069730590190737
1782812215487525600,8.047525634765625,-0.012847206613421439,0.0038746677425689994,-0.0028322368843946605
1782812215507608600,8.067608642578126,-0.016588731229305265,-0.0007695048014633358,0.003838007260300219
1782812215527691800,8.08769189453125,-0.02406885785162449,0.005738908978179097,0.012883565701590851
1782812215547774000,8.10777392578125,-0.02168108593225479,-0.013352818048000335,0.0069113046252634374
1782812215567857000,8.12785693359375,-0.029765023666620254,0.007535583136603236,-0.01754953908547759
1782812215587939800,8.14793994140625,-0.020634791749715803,-0.0024118651810102164,-0.011404889717465266
1782812215608022800,8.168022705078124,-0.020333178454637526,0.0026216902730986473,-0.008348479555221274
1782812215628104700,8.188104736328125,-0.0352963543087244,-0.009516436489205807,-0.0035669352339580654
1782812215648188000,8.20818798828125,-0.0224257668197155,0.0032666005805134773,0.018479184618405996
1782812215668270800,8.228270751953126,-0.035441315737366676,-0.0014485000415705143,0.011394971111649646
1782812215688352800,8.248352783203124,-0.018683657681941985,-0.011143307038675993,0.011349524534726515
1782812215708436700,8.268436767578125,-0.0260159002661705,-0.006949873936828226,-0.017405828899005427
1782812215728520000,8.28852001953125,-0.03305062120854854,-0.004149356498103589,-0.027610119788208976
1782812215748601900,8.308601806640626,-0.016292963153123854,0.0014409377896226943,-0.012465769547782838
1782812215768684800,8.328684814453124,-0.01793663870692253,0.007361834004893899,-0.006863976618507877
1782812215788767700,8.348767822265625,-0.03603986615240574,0.006084964203182608,0.013726117472955957
1782812215808850000,8.368849853515625,-0.026763503763079642,-0.01623757970407605,0.010083943312009796
1782812215828932900,8.388932861328126,-0.019433599266409873,-0.008377678250242025,-0.016382979524135588
1782812215849016000,8.40901611328125,-0.023174539360404013,-0.0019142543897964059,-0.028160392348421735
1782812215869098000,8.429097900390625,-0.03693769177496433,0.00014543635267764328,-0.0031291466048918664
1782812215889181000,8.449180908203125,-0.026015315744280815,0.002616210380382836,-0.004617448933888227
1782812215909264000,8.469263916015626,-0.014496142864227294,-0.00970311816772446,0.008041669495217502
1782812215929345800,8.489345703125,-0.01868599576950073,-0.008931311811320484,0.005426071036187931
1782812215949428700,8.5094287109375,-0.003127192109823227,-0.0006760360980406404,0.0007743088407441973
1782812215969511700,8.52951171875,-0.022879940328001974,-0.003186338418535888,-0.019176491833338513
1782812215989593900,8.54959375,-0.012404723542928695,-0.009720124101452529,-0.004914568716939538
1782812216009677000,8.569677001953124,-0.029765023666620254,0.0041249892418272795,-0.009730426299758255
1782812216029760000,8.589760009765625,-0.013455109378695488,-0.010526015390548855,0.003318595629232004
1782812216049842000,8.609842041015625,-0.013006781089305877,-0.014685363559704272,0.007171042406838387
1782812216069924900,8.6299248046875,-0.02886485995650291,-0.001811999591719359,-0.008747479677014053
1782812216090007800,8.6500078125,-0.014202712875604628,0.008554002931527792,-0.020167740493547172
1782812216110090800,8.6700908203125,-0.01614800172448158,0.0031985585792921483,-0.00572319995239377
1782812216130172700,8.690172607421875,-0.026323358780145644,-0.0007807020489126443,-0.016559212873876093
1782812216150255900,8.710255859375,-0.019886603730916975,-0.002019230867922306,0.009622728141583502
1782812216170338800,8.7303388671875,-0.030212767434120175,-0.015023947864305227,0.004921135455043986
1782812216190421000,8.7504208984375,-0.018694179075956344,0.01261288640089333,0.014849477213388309
1782812216210504000,8.77050390625,-0.0191448454529047,0.0053018327351659535,-0.0026937782617751506
1782812216230587000,8.7905869140625,-0.013456862944364547,0.01062434293217957,-0.019416766862617806
1782812216250668800,8.810668701171876,-0.014209727138280868,0.01621220780080184,-0.018979928081622348
1782812216270752000,8.830751953125,-0.010465279912948608,0.01106079812068492,-0.0073415949344635
1782812216290835000,8.8508349609375,-0.03410919035077095,0.00032817250844091177,0.0053457540752831845
1782812216310916900,8.870916748046875,-0.020787351962924003,-0.0032093357016332444,0.015114822751842439
1782812216330999800,8.890999755859376,-0.0248263982206583,-0.007307619599625468,0.001730677983816713
1782812216351082800,8.911082763671875,-0.007472527837753295,0.005502323743328452,0.0015386808093637227
1782812216371164700,8.93116455078125,-0.019745149433612823,0.008420403147116303,-0.024578067749086767
1782812216391248000,8.951247802734375,-0.03231412362754345,-0.0020722762294113637,-0.022056257653888314
1782812216411330800,8.971330810546876,-0.01480827755331993,-0.009202456902898847,0.005604733805032447
1782812216431413000,8.9914130859375,-0.02034603793621063,-0.003953030208405107,0.0033039277830626814
1782812216451496000,9.011495849609375,-0.028577275186777114,-0.010185092998389154,0.02017633479195647
1782812216471579000,9.031578857421875,-0.01705868682861328,-0.006634944502450525,-0.007600446800049394
1782812216491660800,9.051660888671876,-0.025438392639160156,-0.012487780450191348,-0.01950344963222742
1782812216511743700,9.07174365234375,-0.014066519275307655,0.007611570982262492,-0.01870104720816016
1782812216531826700,9.09182666015625,-0.015406827968358993,0.000555807251855731,-0.013759928411012515
1782812216551908600,9.11190869140625,-0.017499416333436966,-0.0026813480384647844,-0.004888804088020697
1782812216571991800,9.13199169921875,-0.01870002429485321,-0.009903499578032642,0.02089609130071476
1782812216592074800,9.15207470703125,-0.011370704320073127,0.00409536128854379,-0.012274877485027536
1782812216612157000,9.172156982421875,-0.010772153905034065,-0.007901475573237985,-0.01850789925623685
1782812216632239900,9.192239990234375,-0.012118307816982268,-0.004168499589990824,-0.024843541151704264
1782812216652322800,9.21232275390625,-0.022594693645834923,-0.004283522538095713,-0.01653823401792906
1782812216672406000,9.232406005859374,-0.017357962036132813,-0.005499985655769706,-0.00020845511890947818
1782812216692488000,9.252488037109375,-0.028583704927563666,0.005057301655877381,0.025578732691612094
1782812216712570000,9.272570068359375,-0.02274550029337406,-0.009354797920398413,0.01188220663932152
1782812216732653000,9.292653076171876,-0.03052490212321281,-0.002089008168503642,-0.005485765334172174
1782812216752735200,9.3127353515625,-0.01810439648926258,0.005115790377464145,-0.015354476726613938
1782812216772818200,9.332818115234375,-0.032765959048271176,0.00028124636048451065,-0.02717699820110574
1782812216792900000,9.352900146484375,-0.014961422288417816,0.004405778944585472,-0.01629078946234658
1782812216812983000,9.372983154296875,-0.027084990802407262,-0.006413757766131311,0.014973952976427972
1782812216833066000,9.39306591796875,-0.014513093999028205,0.001419657539576292,0.01126311575975269
1782812216853148000,9.41314794921875,-0.020648235753178597,0.0017301482608541845,0.0013764485855121164
1782812216873231000,9.433231201171875,-0.020644728621840476,0.015079641840606927,-0.007447439062269404
1782812216893314000,9.45331396484375,-0.011665303352475166,0.006826338888704776,-0.022757985315611583
1782812216913396200,9.473396240234376,-0.01255962184369564,-0.003144307641405612,-0.014904924594517796
1782812216933479200,9.493479248046874,-0.02632394330203533,-0.0012517170941457152,0.009952718147775158
1782812216953562000,9.51356201171875,-0.019892448949813842,-0.02295289596635848,0.016087019651709125
1782812216973645000,9.53364501953125,-0.02842763758301735,-0.013528795669414102,0.012211182865360751
1782812216993727200,9.553727294921876,-0.015707856741547583,-0.004429689543135464,-0.018738027350837363
1782812217013810200,9.57381005859375,-0.02184007588624954,0.012549776303116232,-0.022072058011218903
1782812217033893000,9.59389306640625,-0.010169511836767196,0.005133928822353482,-0.016463871873775494
1782812217053975000,9.61397509765625,-0.013909282886981964,-0.004330795745924115,-0.004100768116023391
1782812217074058000,9.63405810546875,-0.024980711999535558,0.006365699107013643,0.017555037244502456
1782812217094141000,9.654140869140624,-0.021988544446229934,-0.009194730254169553,0.018968155445437878
1782812217114223000,9.67422314453125,-0.01765080750286579,-0.0028613625141791998,-0.020824213374592362
1782812217134306300,9.694306396484375,-0.022737316986918447,0.003980155677348375,-0.023332798662036656
1782812217154389200,9.71438916015625,-0.0255845231115818,-0.006179364488366991,-0.021663796870736406
1782812217174471200,9.73447119140625,-0.025732407149672506,0.011918766656890512,-0.002720319208828732
1782812217194554000,9.75455419921875,-0.01809562866091728,-0.003615487083420157,0.008043313463032244
1782812217214637000,9.774636962890625,-0.02841828523278236,-0.015811481512803583,0.006406515174591914
1782812217234719000,9.794718994140625,-0.025574586239457128,-0.0019099252745509146,-0.0011154504286125303
1782812217254802000,9.814802001953124,-0.021835399711132047,0.006376384897809475,-0.017269525700854136
1782812217274885000,9.834885009765625,-0.020935820522904394,0.012765373548865318,-0.023895072187297046
1782812217294967300,9.85496728515625,-0.02647299638390541,-0.00157795337382704,-0.0037288660637103017
1782812217315050200,9.87505029296875,-0.016895605221390723,-0.008783354707993567,-0.008202230351790785
1782812217335133200,9.89513330078125,-0.03455225794315338,-0.011930457094684243,0.012126463723974301
1782812217355215000,9.915215087890624,-0.016746552139520643,-0.005929280451126396,0.010834807345084846
1782812217375298000,9.935298095703125,-0.019889526340365407,-0.008719970615580677,-0.0075381221535615614
1782812217395381000,9.955381103515625,-0.027823826470971105,-0.009638692895695567,-0.019097508312994612
1782812217415464200,9.975464111328124,-0.03306523425579071,0.010565287955012171,-0.016303859006473794
1782812217435546000,9.995546142578124,-0.030822423765063285,-0.0005992262684740126,-0.006713434832450002
1782812217455629000,10.015629150390625,-0.01615676955282688,-0.009585757132060826,0.0025986016584560274
1782812217475712000,10.0357119140625,-0.01795358984172344,0.0040900823252275585,0.005389410553919151
1782812217495794200,10.055794189453126,-0.03232406049966812,-0.001727700575441122,-0.0037810620418284088
1782812217515877000,10.075877197265624,-0.022450316739082335,0.002837451915629208,-0.013024472009623422
1782812217535960300,10.095960205078125,-0.020352467676997183,0.004406673993729055,-0.016833627634774893
1782812217556042200,10.116042236328125,-0.013912205496430395,0.0021622743341140446,-0.025490378554724157
1782812217576125200,10.136125244140626,-0.41780338726639743,0.022342052325326947,-0.14804481814298778
1782812217596208000,10.1562080078125,-0.038171032962203026,-0.012194752320367843,0.009379731432255357
1782812217616290000,10.1762900390625,-0.09501461769044399,0.03295317044975236,-0.06244033615621738
