time,seconds_elapsed,z,y,x
1782812301366665200,0.064665283203125,0.0011691736290231347,-0.0005644925404340029,0.00013345596380531788
1782812301386748400,0.08474853515625,-0.002714375965297222,0.0004556151106953621,-0.00023606582544744015
1782812301406830300,0.104830322265625,-0.001452761352993548,-0.0005549588240683079,0.0011257545556873083
1782812301426913300,0.124913330078125,0.0006940370658412576,0.00009973626583814621,0.0000588209368288517
1782812301446996200,0.144996337890625,-0.0007575899362564087,0.000047542620450258255,-0.0016338338609784842
1782812301467078100,0.165078125,0.0015585154760628939,-0.00015411246567964554,-0.000824828865006566
1782812301487161000,0.1851611328125,-0.0013867351226508617,-0.0003903680481016636,0.000031986506655812263
1782812301507243300,0.2052431640625,-0.00021318488870747387,0.0010879230685532093,-0.0011743404902517796
1782812301527326500,0.225326416015625,0.00010056904284283519,0.0006272858008742332,-0.0001420043408870697
1782812301547408400,0.245408447265625,-0.0004694084345828742,0.0002524484880268574,0.00008958112448453903
1782812301567491300,0.2654912109375,0.0010917946929112077,-0.0005215387791395187,-0.000018005026504397392
1782812301587573200,0.2855732421875,-0.0017301731277257204,0.0005459594540297985,0.0012432349612936378
1782812301607656200,0.30565625,0.0014834117610007524,0.0005546947941184044,-0.0002368579152971506
1782812301627738000,0.325738037109375,-0.0022252765484154224,0.0007482562214136124,0.0001821792684495449
1782812301647821300,0.3458212890625,-0.0011540073901414871,0.00008970685303211212,0.0011615684488788247
1782812301667903200,0.3659033203125,0.0011600066209211946,-0.0003484375774860382,0.0009658952476456761
1782812301687986200,0.385986083984375,-0.0003134144062642008,-0.0003969890531152487,0.00024195457808673382
1782812301708068000,0.406068115234375,0.0023606009781360626,-0.0001036529429256916,0.0005993597442284226
1782812301728151300,0.4261513671875,-0.001067219884134829,0.0005938964895904064,-0.00012551480904221535
1782812301748233200,0.446233154296875,0.0005077209789305925,-4.0838494896888733e-7,0.0005533220246434212
1782812301768316200,0.466316162109375,0.00033333126339130104,-0.0004610125906765461,-0.0012303953990340233
1782812301788398600,0.486398681640625,0.00019891327247023582,0.000005021225661039352,-0.0009905623737722635
1782812301808481500,0.5064814453125,0.002716938965022564,0.000962771475315094,-0.00009542913176119328
1782812301828563500,0.5265634765625,-0.003647778881713748,-0.0006263772957026958,-0.00016884622164070606
1782812301848646400,0.546646484375,0.000882244436070323,-0.000779458787292242,0.0007928352570161223
1782812301868728300,0.566728271484375,-0.0006778368842788041,0.00016215629875659943,-0.0008457205258309841
1782812301888811500,0.5868115234375,-0.0008137489203363657,-0.0005252466071397066,-0.00019324454478919506
1782812301908893700,0.606893798828125,0.001270109205506742,0.0003002425655722618,-0.0013354993425309658
1782812301928976600,0.6269765625,-0.0028482924681156874,-0.00031618308275938034,0.000937751610763371
1782812301949058600,0.64705859375,0.0007882803911343217,-0.0001206803135573864,0.0008783957455307245
1782812301969141500,0.6671416015625,-0.0013510072603821754,-0.000014253426343202591,-0.0005315085873007774
1782812301989223400,0.687223388671875,-0.00025570474099367857,0.0005178507417440414,0.00037411064840853214
1782812302009306400,0.707306396484375,0.001356651308014989,-0.0009797103703022003,0.0004728438798338175
1782812302029388500,0.727388427734375,-0.00026489514857530594,0.0006608464755117893,-0.000060924096032977104
1782812302049471500,0.747471435546875,0.0001891661377158016,-0.0011073027271777391,-0.0008133116643875837
1782812302069553400,0.767553466796875,-0.0006012910162098706,-0.00019048014655709267,-0.0011689208913594484
1782812302089636600,0.78763671875,0.001048809615895152,-0.0010247083846479654,0.0008177388226613402
1782812302109718500,0.807718505859375,0.0007364056073129177,0.0005093226209282875,0.00045955716632306576
1782812302129801500,0.827801513671875,-0.0002983562008012086,-0.0000795428641140461,0.0011979052796959877
1782812302149883400,0.84788330078125,0.0006495330017060041,0.000674219336360693,-0.00015885848551988602
1782812302169966300,0.86796630859375,-0.002501231385394931,0.00044345390051603317,-0.0000922416802495718
1782812302190048500,0.888048583984375,0.0006625909591093659,0.00030342163518071175,0.000278217950835824
1782812302210131500,0.90813134765625,-0.0011236168211326003,-0.0000829668715596199,0.0003803475992754102
1782812302230213400,0.92821337890625,-0.00047618214739486575,-0.00003653764724731445,0.0005935949739068747
1782812302250296600,0.948296630859375,0.0016842479817569256,-0.00022518401965498924,-0.0005717542953789234
1782812302270379500,0.968379638671875,0.00018305538105778396,-0.0011233703698962927,-0.0006436374969780445
1782812302290461400,0.98846142578125,0.00198551407083869,-0.0010179798118770123,0.0003977243322879076
1782812302310544400,1.00854443359375,-0.0004016108869109303,-0.00009023211896419525,0.00009770854376256466
1782812302330626600,1.02862646484375,0.0003347155870869756,-0.0002619200386106968,-0.0015402568969875574
1782812302350709500,1.04870947265625,-0.0005574463284574449,-0.0004991446621716022,0.0001909604761749506
1782812302370791400,1.06879150390625,-0.0010457145981490612,-0.0010657506063580513,0.00009080604650080204
1782812302390874400,1.088874267578125,0.0017710339743644,-0.0003970484249293804,0.0011678548762574792
1782812302410956300,1.108956298828125,-0.0013093329034745693,0.0007449835538864136,-0.000013025477528572083
1782812302431039500,1.12903955078125,0.000997411087155342,0.00016012927517294884,-0.00026372005231678486
1782812302451121700,1.14912158203125,0.0002973745868075639,-0.0001274612732231617,-0.0013101487420499325
1782812302471204600,1.16920458984375,-0.0014147551264613867,0.0012809713371098042,-0.0011028647422790527
1782812302491286500,1.18928662109375,0.00023871322628110647,0.00046808039769530296,-0.00021041836589574814
1782812302511369500,1.209369384765625,-0.0016322077717632055,0.0000894288532435894,-0.0004903113003820181
1782812302531451400,1.229451416015625,0.0015594270080327988,0.00018003443256020546,-0.0002610862720757723
1782812302551534300,1.249534423828125,-0.0007472877623513341,0.0009039714932441711,0.0015977900475263596
1782812302571616500,1.269616455078125,0.0006845435127615929,-0.0001395377330482006,-0.00019997265189886093
1782812302591699700,1.28969970703125,0.0012797879753634334,-0.0005811892915517092,0.0006040085572749376
1782812302611781600,1.30978173828125,-0.000845197937451303,-0.0000035404227674007416,-0.00047979922965168953
1782812302631864600,1.329864501953125,0.0013407794758677483,0.0002101757563650608,-0.0006775632500648499
1782812302651946500,1.349946533203125,-0.0006731256144121289,-0.00017005577683448792,-0.00188726675696671
1782812302672029400,1.370029541015625,0.0011238399893045425,-0.000030489172786474228,-0.0004574330523610115
1782812302692111600,1.390111572265625,-0.0011138224508613348,0.0002383878454566002,-0.00046122679486870766
1782812302712194600,1.410194580078125,-0.0012112939730286598,0.0008362596854567528,0.0004406620282679796
1782812302732276500,1.4302763671875,-0.00015162226918619126,-0.00004444783553481102,0.0005407967837527394
1782812302752359400,1.450359375,-0.0006385829765349627,-0.0006768694147467613,-0.0009930594824254513
1782812302772441300,1.47044140625,0.00009031558874994516,0.0002988772466778755,0.0007816655561327934
1782812302792524500,1.490524658203125,0.0006055830745026469,0.0003527798689901829,-0.000292355427518487
1782812302812606500,1.5106064453125,-0.002011701697483659,0.000219002366065979,0.00011156057007610798
1782812302832689400,1.530689453125,-0.000011375057511031628,0.001004951074719429,-0.00007043848745524883
1782812302852771600,1.550771484375,-0.0011124997399747372,0.0013916101306676865,0.00009251246228814125
1782812302872854500,1.5708544921875,0.0012900237925350666,0.00022006826475262642,0.00016122125089168549
1782812302892936400,1.5909365234375,-0.0017039913218468428,0.0005886689759790897,0.00034443545155227184
1782812302913019400,1.611019287109375,0.0011282352497801185,-0.0006658597849309444,0.0002532321959733963
1782812302933101300,1.631101318359375,0.00044359342427924275,0.000053653959184885025,0.0005190212978050113
1782812302953184500,1.6511845703125,-0.00044516712659969926,0.00029117194935679436,-0.0010673818178474903
1782812302973266700,1.6712666015625,0.000007874623406678438,-0.0006835295353084803,0.00041623180732131004
1782812302993349600,1.691349609375,-0.001870355219580233,0.00017054053023457527,0.00022232532501220703
1782812303013431600,1.711431640625,-0.000923356506973505,-0.0003458550199866295,-0.00034032505936920643
1782812303033514500,1.731514404296875,0.0001760307641234249,-0.00004338240250945091,-0.0001960683148354292
1782812303053596400,1.751596435546875,-0.0009967591613531113,-0.000025747809559106827,0.0006789087783545256
1782812303073679400,1.771679443359375,-0.0007195763173513114,0.0004574875347316265,-0.00004667905159294605
1782812303093761500,1.791761474609375,-0.0001771580136846751,-0.0004798443987965584,0.00016361637972295284
1782812303113844500,1.811844482421875,0.0001517501805210486,-0.00001166434958577156,-0.0005888983141630888
1782812303133926400,1.831926513671875,-0.001544072525575757,-0.00019345153123140335,0.0013353987596929073
1782812303154009600,1.852009521484375,0.0004942910163663328,-0.00022953609004616737,-0.0003980277106165886
1782812303174091500,1.872091552734375,-0.0016917549073696136,-0.00014765281230211258,-0.0014739988837391138
1782812303194174500,1.892174560546875,0.0001729451905703172,0.0006112949922680855,0.00019014719873666763
1782812303214256600,1.912256591796875,-0.00005070050247013569,0.0004719509743154049,0.00036526983603835106
1782812303234339600,1.932339599609375,-0.0014406514819711447,-0.00037950160913169384,-0.00020148884505033493
1782812303254421500,1.95242138671875,0.0012621202040463686,0.0008315825834870338,0.0007595634087920189
1782812303274504400,1.97250439453125,0.0013160213129594922,-0.00141514977440238,0.00025867996737360954
1782812303294586400,1.99258642578125,0.0005024165147915483,0.00039721839129924774,-0.00004249182529747486
1782812303314669600,2.012669677734375,0.0026052347384393215,0.00002202903851866722,-0.00018442445434629917
1782812303334751500,2.03275146484375,-0.0005103733274154365,-0.00009705126285552979,0.00024048471823334694
1782812303354834400,2.05283447265625,-0.00022438543965108693,-0.00019822828471660614,0.0010308935306966305
1782812303374916600,2.07291650390625,0.00015474385872948915,-0.0007143032271414995,0.0010268278419971466
1782812303394999600,2.09299951171875,-0.00030596181750297546,0.0005736001767218113,-0.0015436855610460043
1782812303415081500,2.11308154296875,0.0005590401124209166,-0.0004359274171292782,-0.00006771646440029144
1782812303435164400,2.133164306640625,0.00014036310312803835,-0.00005732942372560501,-0.0019455875735729933
1782812303455247400,2.153247314453125,0.0012019125279039145,0.00008163833990693092,-0.001064627431333065
1782812303475329300,2.173329345703125,-0.0009904069593176246,-0.000040207989513874054,0.00019537238404154778
1782812303495412500,2.19341259765625,0.0009355567744933069,-0.00028383592143654823,-0.0014115157537162304
1782812303515494700,2.21349462890625,0.0008725377847440541,0.0008960622362792492,0.0003710590535774827
1782812303535577600,2.23357763671875,-0.00018893872038461268,0.000992393121123314,-0.0005851446185261011
1782812303555659500,2.253659423828125,0.0014387095579877496,-0.0001095728948712349,0.000193743035197258
1782812303575742500,2.273742431640625,0.00012898686691187322,0.00009052036330103874,0.00009406823664903641
1782812303595824400,2.293824462890625,-0.000026014618924818933,-0.001121357548981905,-0.000604686327278614
1782812303615907300,2.3139072265625,0.0006595160230062902,0.0007865801453590393,0.0005746756214648485
1782812303635989500,2.333989501953125,-0.0009878630517050624,0.00005538482218980789,-0.0004323518369346857
1782812303656072400,2.354072509765625,0.00001927271659951657,-0.0005634883418679237,-0.0006809982005506754
1782812303676154400,2.374154296875,-0.001460887840948999,0.0002752910368144512,0.00037818693090230227
1782812303696237600,2.394237548828125,-0.0001110528246499598,0.0009619863703846931,0.0007597461808472872
1782812303716319500,2.414319580078125,0.00005244612111710012,-0.0014509274624288082,-0.0010588543955236673
1782812303736402400,2.43440234375,-0.00058313412591815,-0.0009116618894040585,0.00033975671976804733
1782812303756484600,2.454484619140625,0.001026549143716693,0.0005345293320715427,0.0008221562020480633
1782812303776567600,2.474567626953125,-0.00022839226585347205,-0.0007118340581655502,0.0004382272018119693
1782812303796650200,2.494650146484375,0.000960485078394413,-0.0008141591679304838,-0.0010476571042090654
1782812303816733400,2.5147333984375,-0.000008153117960318923,-0.000017286743968725204,-0.0006509767845273018
1782812303836815400,2.5348154296875,-0.00016808669897727668,0.0013781189918518066,0.00011538644321262836
1782812303856898300,2.554898193359375,0.001886848360300064,-0.0006907614879310131,-0.00015268754214048386
1782812303876980200,2.574980224609375,-0.000986734521575272,0.0008029509335756302,-0.0012144974898546934
1782812303897063200,2.595063232421875,0.0019156415946781635,0.0005279886536300182,0.0004226075252518058
1782812303917145300,2.615145263671875,-0.00006329989992082119,-0.00010335352271795273,0.0002290620468556881
1782812303937228300,2.635228271484375,0.0002736417518462986,-0.0008648834191262722,-0.00012073712423443794
1782812303957310200,2.655310302734375,-0.00028832926182076335,0.0006631356664001942,0.0004208501195535064
1782812303977393200,2.67539306640625,-0.0009799633407965302,0.00026418082416057587,-0.0002568070776760578
1782812303997475000,2.69547509765625,0.0005204859189689159,-0.00009112106636166573,0.00037529668770730495
1782812304017558300,2.715558349609375,0.0006595878512598574,-0.0011021571699529886,-0.00025289878249168396
1782812304037640400,2.735640380859375,0.0006343208951875567,-0.0011108408216387033,0.0005193784600123763
1782812304057723400,2.755723388671875,0.0007466654642485082,-0.000043200328946113586,0.0005090746562927961
1782812304077805300,2.775805419921875,-0.0001846801460487768,0.0007310286164283752,-0.0003695557825267315
1782812304097888300,2.79588818359375,-0.00039047759491950274,-0.0007558597717434168,0.0001082499511539936
1782812304117970200,2.81597021484375,-0.001816112664528191,-0.0008350862190127373,0.0006841844879090786
1782812304138053000,2.83605322265625,0.00030030219932086766,-0.0003625203389674425,0.0005047647282481194
1782812304158135300,2.85613525390625,0.00002398318611085415,0.0013768314383924007,0.0015491327503696084
1782812304178218200,2.87621826171875,0.00037998249172233045,0.0006109760142862797,0.000039564911276102066
1782812304198300400,2.896300537109375,-0.000996903283521533,0.00021875696256756783,-0.0005886182188987732
1782812304218383400,2.91638330078125,-0.0021666339598596096,-0.00018540211021900177,-0.001027167309075594
1782812304238465300,2.93646533203125,0.0012089540250599384,0.00036099227145314217,0.0004532017046585679
1782812304258548200,2.95654833984375,-0.0007550425361841917,-0.00012791715562343597,0.000842225388623774
1782812304278630100,2.976630126953125,0.0003506944340188056,0.000715294387191534,0.0012292026076465845
1782812304298713000,2.996713134765625,-0.00013895955635234714,0.0009209024719893932,0.001076855813153088
1782812304318795300,3.016795166015625,-0.002493936801329255,0.0018637520261108875,0.002170298947021365
1782812304338878200,3.036878173828125,0.0009915812406688929,0.0008757645264267921,0.00018308800645172596
1782812304358960000,3.056960205078125,-0.0022982631344348192,0.0006137308664619923,-0.0003103925846517086
1782812304379043300,3.077043212890625,0.0007562146056443453,-0.00043231784366071224,0.0013016737066209316
1782812304399125200,3.097125244140625,-0.000778470654040575,-0.0001953793689608574,-0.0000443833414465189
1782812304419208200,3.117208251953125,-0.0008621045853942633,0.0001799105666577816,-0.00012932438403367996
1782812304439290400,3.137290283203125,0.0009496482089161873,-0.0007331473752856255,-0.00023590936325490475
1782812304459373300,3.157373291015625,-0.0017576946411281824,0.0009970217943191528,0.0006968490779399872
1782812304479455200,3.177455322265625,0.0013438912574201822,-0.0011328835971653461,0.00019293604418635368
1782812304499538200,3.1975380859375,-0.00019167906430084258,-0.0006660483777523041,0.0002815006300806999
1782812304519620000,3.2176201171875,0.0007686872850172222,0.0004805331118404865,0.00013226293958723545
1782812304539703000,3.237703125,-0.0004979749792255461,-0.0012580426409840584,-0.00013072160072624683
1782812304559785200,3.25778515625,-0.0008716053562238812,-0.00008656783029437065,-0.0010652390774339437
1782812304579867100,3.2778671875,0.0009808930335566401,0.00011002784594893456,0.0006783156422898173
1782812304599950300,3.297950439453125,-0.0026621813885867596,-0.0007882455829530954,-0.0011624505277723074
1782812304620032300,3.3180322265625,0.0011438564397394657,0.000025276094675064087,-0.0000743446871638298
1782812304640115200,3.338115234375,-0.00021546434436459094,0.0018242192454636097,0.0006606354145333171
1782812304660197400,3.358197265625,-0.00029028503922745585,0.00042350078001618385,-0.0005245467182248831
1782812304680280300,3.3782802734375,0.00034419322037138045,0.00032837362959980965,-0.000560912536457181
1782812304700362200,3.3983623046875,0.0010632475605234504,-0.0006435224786400795,-0.001056622015312314
1782812304720445200,3.418445068359375,0.0007476044702343643,0.0011094738729298115,-0.0011404959950596094
1782812304740527000,3.438527099609375,-0.0005239994497969747,0.0005108080804347992,0.0005876421928405762
1782812304760610300,3.4586103515625,0.001315007684752345,-0.0004208881873637438,-0.00009972229599952698
1782812304780692200,3.478692138671875,0.0017893750919029117,0.00040632719174027443,0.00017420225776731968
1782812304800775200,3.498775146484375,-0.0004900070489384234,0.0004570167511701584,-0.0009550510440021753
1782812304820857000,3.518857177734375,0.00025236536748707294,-0.00042039062827825546,0.00009022443555295467
1782812304840940000,3.53893994140625,0.0004901912761852145,0.0001536463387310505,-0.00006244564428925514
1782812304861022000,3.55902197265625,0.0009839677950367332,-0.0003928644582629204,-0.0007456040475517511
1782812304881105000,3.57910498046875,0.00053844676585868,0.00067934300750494,-0.0004420960322022438
1782812304901186800,3.599186767578125,-0.0015461095608770847,0.0007435060106217861,0.000048220157623291016
1782812304921270000,3.61927001953125,-0.00016516167670488358,-0.0004132126923650503,-0.00041485694237053394
1782812304941352000,3.63935205078125,0.00005615619011223316,0.00030712224543094635,0.0007409406825900078
1782812304961435100,3.65943505859375,0.000963742146268487,0.00012905709445476532,0.0015961101744323969
1782812304981517000,3.67951708984375,0.00018919598369393498,-0.0007909254636615515,-0.0002978425472974777
1782812305001600000,3.69960009765625,-0.0005147043848410249,0.0009794244542717934,0.0004225232405588031
1782812305021682000,3.719681884765625,-0.0013011312112212181,0.0006919209845364094,-0.00016360986046493053
1782812305041764900,3.739764892578125,-0.0013462990755215287,-0.0000619557686150074,0.0003428019117563963
1782812305061847000,3.759846923828125,0.0006787623860873282,0.001161955762654543,-0.0009025372564792633
1782812305081930000,3.779929931640625,-0.00039128755452111363,-0.0001999707892537117,0.000476063578389585
1782812305102012000,3.800011962890625,-0.0009183802758343518,0.0015818215906620026,-0.001902868039906025
1782812305122095000,3.82009521484375,-0.00021142311743460596,0.0000219615176320076,-0.0013354697730392218
1782812305142177000,3.840177001953125,0.000264630070887506,0.000009889248758554459,-0.0005321220960468054
1782812305162260000,3.860260009765625,-0.0005046816659159958,-0.0003736419603228569,0.0010555655462667346
1782812305182342100,3.880342041015625,-0.001972647150978446,-0.0003246539272367954,-0.00016561965458095074
1782812305202425000,3.900425048828125,0.0013104246463626623,-0.0006981862243264914,-0.0001780970487743616
1782812305222507000,3.920507080078125,0.0007921655778773129,-0.0009106178767979145,0.00028290320187807083
1782812305242590000,3.94058984375,-0.00019947435066569597,0.00018401769921183586,-0.0004933464806526899
1782812305262672000,3.960671875,0.0006559079047292471,-0.0002729552797973156,-0.00007718009874224663
1782812305282754800,3.9807548828125,0.0001757609861670062,0.00041664764285087585,0.000015553319826722145
1782812305302837000,4.0008369140625,-0.00017345842206850648,0.0019677970558404922,-0.0010564806871116161
1782812305322920200,4.020920166015625,-0.0012338398955762386,-0.0003983329515904188,-0.0007860586047172546
1782812305343002000,4.041002197265625,0.0003809126792475581,-0.0009384062141180038,0.00018662959337234497
1782812305363085000,4.0610849609375,0.0010696330573409796,-0.00028949021361768246,0.0004071466391906142
1782812305383167000,4.0811669921875,-0.0010265900054946542,-0.00015678955242037773,-0.0009511236567050219
1782812305403250000,4.10125,0.0021039522252976894,-0.0012917255517095327,-0.00017122318968176842
1782812305423332000,4.12133203125,0.0003721002140082419,0.0006207129918038845,0.0011914437636733055
1782812305443415000,4.1414150390625,0.0012616126332432032,-0.00005419692024588585,0.00004865019582211971
1782812305463497000,4.1614970703125,0.0013480833731591702,0.0004608696326613426,0.000012563774362206459
1782812305483580000,4.181579833984375,-0.0015773052582517266,0.00011046184226870537,0.0015236197505146265
1782812305503662000,4.201662109375,0.00010984351683873683,-0.0016653959173709154,-0.0015490851365029812
1782812305523745000,4.2217451171875,-0.0013792874524369836,0.0017366474494338036,-0.00010774703696370125
1782812305543827000,4.241826904296875,-0.00009338407835457474,0.0007172822952270508,0.0012266358826309443
1782812305563910000,4.261909912109375,-0.0010828679660335183,-0.00045133731327950954,0.0008608722127974033
1782812305583992000,4.281991943359375,0.0001178987295133993,-0.0000010617077350616455,-0.0011714682914316654
1782812305604075000,4.302074951171875,0.0011357036419212818,-0.00026945024728775024,0.0006299423985183239
1782812305624157000,4.322156982421875,0.0003872233792208135,-0.0017467387951910496,-0.0004581622779369354
1782812305644240000,4.342239990234375,-0.000406332197599113,0.00010262243449687958,0.0011519384570419788
1782812305664321800,4.36232177734375,-0.0012260490329936147,0.0003885766491293907,-0.000975033501163125
1782812305684405000,4.382405029296875,0.000265969370957464,-0.0005253830458968878,-0.00012010731734335423
1782812305704487200,4.402487060546875,-0.00023307454830501229,-0.000548776239156723,-0.0005220796447247267
1782812305724570000,4.422570068359375,-0.00005631435487885028,0.000968527514487505,0.0007515476318076253
1782812305744652000,4.442652099609375,0.0015040331054478884,-0.0009366485755890608,-0.00017677550204098225
1782812305764734000,4.46273388671875,-0.0022922991774976254,-0.00047882902435958385,-0.001268298365175724
1782812305784816600,4.482816650390625,0.0017972254427149892,-0.00014593126252293587,-0.001125372014939785
1782812305804898800,4.50289892578125,-0.0009953677654266357,-0.0010930201970040798,-0.0006765606813132763
1782812305824981800,4.522981689453125,-0.0014460869133472443,-0.0002260357141494751,0.0020461096428334713
1782812305845063700,4.543063720703125,0.001449532457627356,-0.000030889175832271576,-0.0005785049870610237
1782812305865146600,4.563146728515625,0.0014531544875353575,-0.000646362779662013,-0.00006950413808226585
1782812305885228500,4.583228515625,0.000905272492673248,0.0001310296356678009,0.00019165384583175182
1782812305905311700,4.603311767578125,-0.0004752735258080065,-0.0004385863430798054,0.00007628207094967365
1782812305925394000,4.623393798828125,-0.001171225099824369,-0.001715872436761856,0.00026639504358172417
1782812305945476900,4.643476806640625,-0.0016124912071973085,-0.00039601116441190243,0.00018264958634972572
1782812305965558800,4.663558837890625,-0.0007999255321919918,-0.0007440848276019096,-0.00024082930758595467
1782812305985641700,4.683641845703125,1.5945988707244396e-7,0.0007848655804991722,0.00035959004890173674
1782812306005723600,4.7037236328125,0.0008469107560813427,0.0006390819326043129,-0.00042157876305282116
1782812306025806600,4.723806640625,0.0005168843199498951,-0.0008665064815431833,-0.0010476112365722656
1782812306045888800,4.743888671875,-0.0008135698735713959,-0.0007667611353099346,0.0003247126005589962
1782812306065972000,4.763971923828125,-0.00000984378857538104,-0.00034437794238328934,-0.00023054145276546478
1782812306086054000,4.784053955078125,-0.0008774186135269701,0.0005607204511761665,0.0012985196663066745
1782812306106136800,4.80413671875,-0.001956308027729392,0.0006493199616670609,-0.0002675133291631937
1782812306126218800,4.82421875,0.0002036726218648255,0.0007159602828323841,0.0003735874779522419
1782812306146301700,4.8443017578125,0.0003074762935284525,-0.0006707832217216492,0.001650230260565877
1782812306166383600,4.864383544921875,0.0003360321279615164,0.0013538962230086327,0.000025853747501969337
1782812306186466800,4.884466796875,-0.00228929053992033,-0.00047481548972427845,0.001076678978279233
1782812306206548700,4.904548828125,-0.0003978838212788105,-0.0002408851869404316,0.0001901634968817234
1782812306226631700,4.924631591796875,0.0014400593936443329,-0.00045012752525508404,0.0011343035148456693
1782812306246713600,4.944713623046875,-0.001716849859803915,0.0016094469465315342,-0.001240602694451809
1782812306266796800,4.964796875,0.001472474541515112,0.0007292479276657104,0.0007415754953399301
1782812306286878700,4.984878662109375,0.0008702470222488046,-0.0003737465012818575,-0.0002194046974182129
1782812306306961700,5.004961669921875,0.00023141480050981045,0.000012654811143875122,0.0015477216802537441
1782812306327043800,5.0250439453125,0.00012276585039217025,0.00032341061159968376,-0.0009194621816277504
1782812306347126800,5.045126708984375,-0.0009160047629848123,-0.0006566024385392666,0.0009671869920566678
1782812306367208700,5.065208740234375,0.000707412778865546,0.0002195974811911583,-0.00007666926831007004
1782812306387291600,5.085291748046875,0.0005818656645715237,-0.000781314680352807,0.0012412375072017312
1782812306407373600,5.10537353515625,-0.00019310999778099358,-0.00010005943477153778,-0.0007566444110125303
1782812306427456800,5.125456787109375,-0.0009505105554126203,-0.0006576783489435911,0.00019382871687412262
1782812306447539000,5.1455390625,-0.001177473459392786,0.000841422937810421,-0.00022599822841584682
1782812306467622000,5.165621826171875,0.0008354876772500575,0.0002956525422632694,0.00005236291326582432
1782812306487703800,5.185703857421875,-0.00026545976288616657,0.0006405445747077465,0.0013058140175417066
1782812306507786800,5.205786865234375,0.0002939235419034958,-0.0006658826023340225,0.0002650388050824404
1782812306527868700,5.22586865234375,-0.0008100753184407949,0.0005376581102609634,0.00034763209987431765
1782812306547951600,5.24595166015625,-0.0010278698755428195,0.0006046169437468052,0.0008176579140126705
1782812306568033800,5.26603369140625,0.0011351818684488535,0.0010028528049588203,0.00023361877538263798
1782812306588116700,5.28611669921875,0.00104690867010504,0.0002935165539383888,0.0015493782702833414
1782812306608198700,5.30619873046875,0.001203019404783845,-0.0003138654865324497,-0.00024876068346202374
1782812306628281900,5.32628173828125,0.0009331918554380536,-0.0004985786508768797,-0.00143629708327353
1782812306648363800,5.34636376953125,-0.0007594994967803359,-0.000027336180210113525,0.0007755937986075878
1782812306668446000,5.366446044921875,-0.0006514019332826138,-0.001412771875038743,0.0000020007137209177017
1782812306688529000,5.38652880859375,0.0010005588410422206,0.0007899422198534012,0.000026066554710268974
1782812306708610800,5.40661083984375,0.0008375589968636632,-0.0004059991333633661,-0.0006937216967344284
1782812306728693800,5.42669384765625,0.00015786294534336776,-0.0005562938749790192,-0.00002502650022506714
1782812306748775700,5.446775634765625,0.0004315842525102198,-0.0004439298063516617,-0.00036142696626484394
1782812306768858600,5.466858642578125,0.0012935776030644774,-0.00027897837571799755,0.0015833727084100246
1782812306788940300,5.486940185546875,0.0008276535663753748,0.0006934734992682934,0.0010682705324143171
1782812306809023200,5.507023193359375,-0.0003023570461664349,-0.0012798726093024015,0.0011194568360224366
1782812306829105200,5.527105224609375,-0.0009871064685285091,-0.0012273658066987991,-0.0002038960810750723
1782812306849188000,5.54718798828125,0.000049318812671117485,0.0005562840960919857,0.0001032855361700058
1782812306869270000,5.56727001953125,0.0008444300619885325,0.0005652117542922497,0.0002584722824394703
1782812306889353200,5.587353271484375,0.0009479919681325555,-0.0006708239670842886,0.000548321520909667
1782812306909435400,5.607435302734375,-0.0003016972332261503,0.0008871615864336491,-0.0010291296057403088
1782812306929518300,5.627518310546875,-0.0017184464959427714,0.0000026794150471687317,0.00017684069462120533
1782812306949600300,5.647600341796875,0.000674405659083277,0.0009971661493182182,0.0006933234399184585
1782812306969683200,5.66768310546875,0.00015697767958045006,-0.0007446412928402424,0.0008445626590400934
1782812306989765000,5.68776513671875,0.0011580785503610969,0.0006550825200974941,-0.0009644913952797651
1782812307009848000,5.70784814453125,-0.00010367896175011992,0.0006820750422775745,-0.0004507994744926691
1782812307029930200,5.72793017578125,-0.000047786845243535936,-0.00008941302075982094,0.00037710065953433514
1782812307050013200,5.74801318359375,0.0007881015189923346,-0.0008243890479207039,-0.00022312160581350327
1782812307070095000,5.76809521484375,0.0001388319069519639,0.000019331462681293488,-0.00044651166535913944
1782812307090178300,5.78817822265625,0.0013680353295058012,-0.0009492684621363878,-0.0005478211678564548
1782812307110260200,5.80826025390625,-0.0006078184815123677,0.0004942775703966618,-0.00036646518856287
1782812307130343200,5.82834326171875,-0.0009068268118426204,-0.00041361385956406593,0.0009515882702544332
1782812307150425000,5.848425048828125,0.000014228164218366146,-0.0002048267051577568,0.0003214026801288128
1782812307170508000,5.868508056640625,0.0010898555628955364,-0.0009769625030457973,0.000722188618965447
1782812307190590200,5.888590087890625,0.000007045979145914316,-0.000558237312361598,0.000716524082235992
1782812307210673200,5.908673095703125,-0.0008857694338075817,-0.0005939819384366274,0.000010165618732571602
1782812307230755000,5.928755126953125,0.00009050488006323576,0.00047682179138064384,0.0005326158134266734
1782812307250838000,5.948838134765625,0.00034166211844421923,0.0012338627129793167,0.0001261949073523283
1782812307270920200,5.968920166015625,-0.00018192986317444593,-0.000540189677849412,-0.0001158697996288538
1782812307291003100,5.989003173828125,-0.0004457326722331345,-0.0012676678597927094,0.0007486437680199742
1782812307311085300,6.009085205078125,-0.0011027308646589518,0.00019107991829514503,0.0007882027421146631
1782812307331168300,6.029168212890625,0.0005099276313558221,-0.0006059613078832626,0.0023584868758916855
1782812307351250200,6.049250244140625,0.00015092050307430327,0.0010722666047513485,0.00024792482145130634
1782812307371333000,6.0693330078125,-0.00007696945976931602,0.0007173465564846992,0.0012936160201206803
1782812307391415000,6.0894150390625,-0.00028311170171946287,0.002407482825219631,-0.00019848765805363655
1782812307411498000,6.109498046875,0.000016414676792919636,-0.00024294620379805565,0.0010737485717982054
1782812307431580200,6.129580078125,0.00032351803383789957,-0.0002793914172798395,-0.0004434571601450443
1782812307451663400,6.149663330078125,-0.0009702614042907953,0.0006060763262212276,-0.0007743595633655787
1782812307471745300,6.169745361328125,-0.00041879364289343357,-0.00033597415313124657,-0.00017948681488633156
1782812307491828200,6.189828125,0.0023908596485853195,-0.0002009388990700245,0.0006795619847252965
1782812307511910100,6.20991015625,-0.0004958156496286392,-0.00005101831629872322,0.0007255254313349724
1782812307531993000,6.2299931640625,0.0006358937826007605,-0.0002579791471362114,-0.0007168774027377367
1782812307552075300,6.2500751953125,-0.0002723661600612104,-0.00032651470974087715,0.0001463100779801607
1782812307572158200,6.270158203125,-0.000924894935451448,0.00021790806204080582,-0.0004849436227232218
1782812307592240000,6.290240234375,-0.000629973248578608,0.0015599112957715988,0.0004188140155747533
1782812307612323000,6.310322998046875,-0.0006664582761004567,-0.0002508009783923626,0.0010275052627548575
1782812307632405000,6.330405029296875,-0.0005651342216879129,0.0012852242216467857,-0.000708156730979681
1782812307652488200,6.35048828125,0.0002920993429142982,0.000611425843089819,-0.00004081358201801777
1782812307672570000,6.370570068359375,-0.0006263522664085031,0.0002495362423360348,0.0009584494400769472
1782812307692653000,6.390653076171875,0.00048239697935059667,-0.0015754166524857283,0.001004297286272049
1782812307712735200,6.4107353515625,-0.0009708263678476214,0.0015223724767565727,-0.0003616705071181059
1782812307732818200,6.430818115234375,0.000803078874014318,-0.00013841642066836357,0.0009406226454302669
1782812307752900000,6.450900146484375,-0.00009782602137420326,-0.0005457617808133364,0.0008274812716990709
1782812307772983000,6.470983154296875,0.0005972913932055235,0.000447769183665514,0.0008626563940197229
1782812307793065000,6.49106494140625,0.0003053114050999284,0.0005498938262462616,0.00021341163665056229
1782812307813148000,6.51114794921875,0.0016440813196823,-0.0012065703049302101,0.00039628229569643736
1782812307833230000,6.53122998046875,0.0003491713432595134,-0.0006595097947865725,0.0009707491844892502
1782812307853313300,6.551313232421875,-0.00013207219308242202,-0.0009196936152875423,0.0010992627358064055
1782812307873395200,6.571395263671875,0.0013807415962219238,0.00011627702042460442,-0.00020228885114192963
1782812307893478100,6.59147802734375,0.0018276702612638474,0.000048920512199401855,-0.00008084066212177277
1782812307913560000,6.61156005859375,0.0004139418888371438,0.00014886260032653809,0.00009969528764486313
1782812307933643000,6.63164306640625,-0.000051154871471226215,0.0004207845777273178,0.00030300149228423834
1782812307953725200,6.65172509765625,0.000045736320316791534,-0.00052444520406425,-0.00008813920430839062
1782812307973808000,6.67180810546875,0.001522002392448485,-0.001181172439828515,0.0019428132800385356
1782812307993890000,6.69189013671875,0.00025226394063793123,-0.0010282329749315977,-0.0005254251882433891
1782812308013973200,6.71197314453125,0.0015291193267330527,0.00040403101593255997,-0.0009430644568055868
1782812308034055200,6.73205517578125,-0.00018245964020024985,-0.00031286850571632385,-0.00021640537306666374
1782812308054138000,6.75213818359375,0.0012269399594515562,0.0008581988513469696,-0.0002558538690209389
1782812308074220300,6.77222021484375,-0.0019828614313155413,-0.00118579575791955,-0.0011894293129444122
1782812308094303200,6.79230322265625,0.000957729178480804,-0.0004150040913373232,-0.0015286726411432028
1782812308114385200,6.81238525390625,0.0012696429621428251,0.00010383548215031624,0.000053223688155412674
1782812308134468000,6.832468017578125,-0.000280524865956977,0.00025911396369338036,-0.0008964224252849817
1782812308154550000,6.852550048828125,-0.0011608689092099667,0.00028556911274790764,-0.0018504266627132893
1782812308174633000,6.872633056640625,-0.0006000022985972464,-0.0008374853059649467,-0.0011804492678493261
1782812308194715100,6.892715087890625,-0.0007980628288350999,0.00036256248131394386,0.00022758846171200275
1782812308214798300,6.91279833984375,-0.00007698516128584743,0.0006160484626889229,0.0014486967120319605
1782812308234880300,6.93288037109375,-0.001017028815113008,-0.0011661492753773928,-0.00045508192852139473
1782812308254963200,6.952963134765625,-0.0006500724703073502,0.0001683644950389862,0.0003163461806252599
1782812308275045000,6.973045166015625,0.000408171588787809,-0.0005493892822414637,-0.0006058388389647007
1782812308295128000,6.993128173828125,-0.0006479771109297872,0.0005957614630460739,0.0009441933361813426
1782812308315210000,7.0132099609375,0.00026371152489446104,-0.00037947786040604115,0.000051483744755387306
1782812308335293000,7.03329296875,-0.0007623008568771183,0.000105313491076231,0.0005357693880796432
1782812308355375000,7.053375,-0.0004507479607127607,0.0010227877646684647,0.0007758579449728131
1782812308375458000,7.0734580078125,-0.0004133604234084487,0.000664855819195509,0.00034508213866502047
1782812308395540000,7.0935400390625,-0.00045917046372778714,-0.0000919741578400135,0.00027599825989454985
1782812308415623200,7.113623046875,-0.0007349586812779307,0.000824210699647665,0.00020122108981013298
1782812308435705000,7.133705078125,0.001043451949954033,0.0009001661092042923,-0.00025246385484933853
1782812308455788000,7.1537880859375,0.0005913674249313772,0.00197803508490324,0.0008226589998230338
1782812308475870200,7.1738701171875,-0.00021867072791792452,0.0003758440725505352,0.0017820649081841111
1782812308495953200,7.193953125,-0.00048742970102466643,-0.00033196527510881424,0.00030339043587446213
1782812308516035000,7.21403515625,-0.0003465313056949526,-0.0008521375712007284,-0.0011927701998502016
1782812308536118000,7.234117919921875,-0.0002679481403902173,0.0011243470944464207,0.0008075349032878876
1782812308556200000,7.254199951171875,0.00010117015335708857,0.0008860514499247074,0.0004809099482372403
1782812308576283100,7.274283203125,-0.0006334864301607013,-0.00034215301275253296,-0.0004658126272261143
1782812308596365300,7.294365234375,-0.00021409924374893308,-0.0001521366648375988,0.0005260077305138111
1782812308616448300,7.3144482421875,0.00005596104892902076,0.001074214931577444,0.0005113374209031463
1782812308636530200,7.3345302734375,-0.00030011162743903697,0.0012872959487140179,0.0016487466637045145
1782812308656613000,7.354613037109375,-0.0007862006314098835,-0.0007395381107926369,-0.0007022970821708441
1782812308676695000,7.374695068359375,0.0004352268297225237,0.0010824655182659626,0.000291478936560452
1782812308696778000,7.394778076171875,0.0004292300727684051,0.00016819778829813004,-0.0000735926441848278
1782812308716860200,7.414860107421875,-0.0004918579943478107,-0.00040125916711986065,-0.001278609037399292
1782812308736943000,7.434943115234375,-0.0011031808098778129,-0.001980480970814824,0.0011281799525022507
1782812308757025000,7.45502490234375,0.000017645012121647596,-0.00023429607972502708,0.0015539375599473715
1782812308777108200,7.475108154296875,0.0005964112933725119,-0.00024384679272770882,-0.00021554832346737385
1782812308797190400,7.4951904296875,-0.0005794556927867234,0.0008177850395441055,-0.0007332197856158018
1782812308817273300,7.5152734375,-0.00013551284791901708,0.0012511410750448704,0.0014293543063104153
1782812308837355300,7.535355224609375,0.00046180005301721394,0.00014450820162892342,0.0007918113842606544
1782812308857438500,7.5554384765625,0.00008712674025446177,0.00016799801960587502,-0.0007818504236638546
1782812308877520600,7.575520751953125,-0.00005855647032149136,-0.0002689436078071594,-0.0012578757014125586
1782812308897603600,7.595603515625,-0.00001572175824549049,0.0006574639119207859,-0.0007141104433685541
1782812308917685500,7.615685546875,0.00023902748944237828,0.0022869748063385487,-0.0002549109049141407
1782812308937768400,7.6357685546875,0.0005996893160045147,0.000950490590184927,0.0000999609474092722
1782812308957850400,7.655850341796875,0.00033585651544854045,0.0007464829832315445,-0.0005232056137174368
1782812308977933300,7.675933349609375,-0.00022909553081262857,-0.0016939898487180471,-0.00033866893500089645
1782812308998015500,7.696015380859375,-0.000021738058421760798,-0.0007739637512713671,-0.0002517625689506531
1782812309018098700,7.7160986328125,-0.00028590011061169207,0.00013760430738329887,-0.00001334724947810173
1782812309038180600,7.7361806640625,-0.0009201898355968297,-0.0012716182973235846,0.001131177763454616
1782812309058263600,7.756263671875,-0.00036317796912044287,-0.0014698405284434557,-0.000016994541510939598
1782812309078345500,7.776345458984375,0.00004777871072292328,0.0007918751798570156,0.0005684074712917209
1782812309098428400,7.796428466796875,0.0010351678356528282,-0.0007915336173027754,0.00039806589484214783
1782812309118510600,7.816510498046875,-0.0000800868438091129,0.0009467648342251778,-0.00004454911686480045
1782812309138593500,7.836593505859375,-0.00006556184962391853,0.00040658609941601753,0.000051812268793582916
1782812309158675500,7.856675537109375,0.00015922458260320127,-0.00163662014529109,0.00041503156535327435
1782812309178758400,7.87675830078125,-0.0006107024382799864,0.00038469163700938225,0.0003499420126900077
1782812309198840300,7.89684033203125,0.0009636428439989686,-0.0014109844341874123,0.00013352837413549423
1782812309218923500,7.916923583984375,-0.0010958637576550245,-0.0003193109296262264,-0.0012337479274719954
1782812309239005400,7.93700537109375,0.0018660450587049127,0.00012857746332883835,-0.00004195515066385269
1782812309259088600,7.957088623046875,0.0005240869359113276,-0.0005167708732187748,0.0006009876960888505
1782812309279170600,7.977170654296875,-0.00013226446753833443,-0.000612413976341486,0.001454981160350144
1782812309299253500,7.99725341796875,0.00010734042734839022,0.0007755551487207413,0.0006745824357494712
1782812309319335400,8.01733544921875,-0.0007330997032113373,0.0005801338702440262,0.0011027597356587648
1782812309339418400,8.03741845703125,-0.00029315054416656494,-0.0012892605736851692,0.0005075415829196572
1782812309359500300,8.057500244140625,-0.0001005412996164523,0.000005221925675868988,-0.0005633593536913395
1782812309379583500,8.07758349609375,-0.000783604453317821,0.0002952301874756813,0.0007806369103491306
1782812309399665700,8.097665771484374,-0.00003255593765061349,0.0002362225204706192,-0.0017106917221099138
1782812309419748600,8.11774853515625,-0.0012816464295610785,-0.0009686583653092384,-0.0004709239583462477
1782812309439830500,8.13783056640625,0.00025145133258774877,-0.0004576409701257944,0.0009435578249394894
1782812309459913500,8.15791357421875,-0.0008442802354693413,-0.00010258564725518227,0.00018905079923570156
1782812309479995400,8.177995361328126,0.00009627574763726443,-0.0011804397217929363,-0.00023057102225720882
1782812309500078300,8.198078369140624,-0.0011740382760763168,-0.0006265339907258749,-0.0012705770786851645
1782812309520160500,8.218160400390625,0.00011329748667776585,-0.0006270019803196192,-0.0004004442598670721
1782812309540243500,8.238243408203125,0.000045580469304695725,-0.0007843854837119579,0.0011758541222661734
1782812309560325400,8.258325439453126,0.001527530374005437,-0.0006554080173373222,0.0006793395150452852
1782812309580408600,8.27840869140625,0.0021104607731103897,-0.000803834293037653,0.00204767775721848
1782812309600490500,8.298490478515625,0.00023444456746801734,-0.0012188514228910208,0.00036653655115514994
1782812309620573400,8.318573486328125,-0.00023815155145712197,0.000551070086658001,-0.002335278084501624
1782812309640655600,8.338655517578125,-0.0008102372521534562,-0.0006550124380737543,0.0005290622357279062
1782812309660738600,8.358738525390624,0.0008670284878462553,0.0020905169658362865,0.0002110388595610857
1782812309680820500,8.378820556640624,-0.0007266060565598309,-0.0008846849668771029,-0.0005440427921712399
1782812309700903400,8.3989033203125,-0.0004133737529627979,-0.0002651344984769821,-0.0006723564583808184
1782812309720985300,8.4189853515625,0.0012356080114841461,-0.00010523339733481407,-0.0012950841337442398
1782812309741068500,8.439068603515626,-0.00027290789876133204,0.0002451627515256405,-0.0017889353912323713
1782812309761150700,8.459150634765624,0.002054241020232439,-0.0006067976355552673,-0.001094235572963953
1782812309781233700,8.479233642578125,-0.0012732385657727718,-0.0006119762547314167,0.00012914510443806648
1782812309801315300,8.4993154296875,-0.0008518203976564109,-0.0005118867848068476,0.0005065375007688999
1782812309821398300,8.519398193359375,0.0010364982299506664,0.00008371984586119652,-0.00003395974636077881
1782812309841480200,8.539480224609376,-0.00024217517056968063,0.0007404848001897335,0.0003989129327237606
1782812309861563100,8.559563232421874,0.0006142464699223638,0.000059030018746852875,0.00111704773735255
1782812309881645300,8.579645263671875,-0.00022728265321347862,-0.00046196114271879196,0.0009553097188472748
1782812309901728300,8.599728271484375,-0.0008383552776649594,0.0008949772454798222,0.0012517448049038649
1782812309921810200,8.61981005859375,0.000108975415059831,0.0013333400711417198,-0.00021598557941615582
1782812309941893400,8.639893310546874,0.0006047864444553852,-0.0006472072564065456,0.00033635192085057497
1782812309961975300,8.659975341796875,0.0019341488368809223,-0.0005673246923834085,0.0006424147868528962
1782812309982058200,8.680058349609375,0.00026758835883811116,0.00039437180384993553,-0.0007297846022993326
1782812310002140200,8.70014013671875,0.00011448706209193915,0.00034956494346261024,-0.0004355120472609997
1782812310022223400,8.720223388671876,-0.0003918929141946137,0.00045033032074570656,0.0009636786999180913
1782812310042305300,8.74030517578125,0.0002411755413049832,0.0005274140276014805,-0.0010196450166404247
1782812310062388200,8.76038818359375,-0.00013456435408443213,-0.0022287408355623484,0.00043826131150126457
1782812310082470100,8.78047021484375,0.000969543878454715,-0.0008119863923639059,-0.0013102346565574408
1782812310102553000,8.800552978515626,-0.001457280945032835,-0.000017672311514616013,-0.0011180432047694921
1782812310122635000,8.820635009765626,-0.0001325398770859465,-0.0007195631042122841,0.0001375158317387104
1782812310142718200,8.84071826171875,-0.0006686892593279481,0.0001225518062710762,-0.00019433372654020786
1782812310162800400,8.86080029296875,-0.0015212324215099216,0.0007985304109752178,0.000325055792927742
1782812310182883300,8.88088330078125,-0.0006554740248247981,-0.00025429949164390564,-0.000668591121211648
1782812310202965200,8.90096533203125,-0.00028197577921673656,0.0007847882807254791,0.002784130396321416
1782812310223048200,8.921048095703124,-0.0005593420355580747,-0.0012210283894091845,0.0005065498407930136
1782812310243130000,8.941130126953125,0.0003873507375828922,0.000018170103430747986,0.000259981956332922
1782812310263213000,8.961213134765625,0.00030402105767279863,-0.000037268269807100296,-0.0001789052039384842
1782812310283295200,8.981295166015625,0.0007420838810503483,0.00005912315100431442,-0.0006209062412381172
1782812310303378400,9.00137841796875,-0.00010109911090694368,0.0005995901301503181,0.0006131078116595745
1782812310323460400,9.02146044921875,0.00019165067351423204,-0.001988215371966362,-0.000048585934564471245
1782812310343543300,9.041543212890625,0.0002478737151250243,0.00007491232827305794,-0.0005712534766644239
1782812310363625200,9.061625244140625,-0.00020893974578939378,0.00009071594104170799,-0.00015441630966961384
1782812310383708200,9.081708251953126,-0.0006690262234769762,-0.000774602172896266,0.0004344384651631117
1782812310403790300,9.101790283203124,0.00030168110970407724,0.0004372270777821541,-0.0006076993886381388
1782812310423873300,9.121873291015625,0.0008942457498051226,-0.00039579393342137337,-0.00033487495966255665
1782812310443955200,9.141955078125,0.0015371388290077448,0.0008292766287922859,-0.0008832819294184446
1782812310464038100,9.1620380859375,0.0017323296051472425,-0.00006648804992437363,-0.000005351146683096886
1782812310484120000,9.1821201171875,-0.00007244337029987946,0.00038025667890906334,-0.0010082356166094542
1782812310504203300,9.202203369140625,-0.00038254103856161237,-0.0004985255654901266,0.0003218210767954588
1782812310524285400,9.222285400390625,0.00103790033608675,0.0006270864978432655,-0.001319091534242034
1782812310544368400,9.242368408203125,-0.0015868876362219453,-0.0006560513284057379,0.0003856201656162739
1782812310564451300,9.262451416015624,0.000679373333696276,-0.0004598335362970829,0.0014110631309449673
1782812310584533200,9.282533203125,-0.00005376375338528305,-0.0008956375531852245,-0.000014124438166618347
1782812310604615200,9.302615234375,0.0008457972435280681,0.0009992662817239761,0.0003299125237390399
1782812310624698000,9.322697998046875,-0.0015029205242171884,-0.0009474633261561394,-0.0012086837086826563
1782812310644780000,9.342780029296875,0.000789610028732568,-0.00038153165951371193,-0.0003131383564323187
1782812310664863200,9.36286328125,-0.0005096322274766862,0.0007644845172762871,0.00012364936992526054
1782812310684945400,9.3829453125,-0.001272992929443717,-0.00021974928677082062,-0.0003361613489687443
1782812310705028400,9.4030283203125,0.0003114168648608029,0.00020865676924586296,0.0011024849954992533
1782812310725110300,9.4231103515625,0.0012655609752982855,-0.00041604996658861637,0.00020557967945933342
1782812310745193200,9.443193115234376,-0.0009639618219807744,0.0007969127036631107,-0.0006684281397610903
1782812310765275100,9.463275146484374,0.00009252666495740414,-0.00007339240983128548,0.000501236179843545
1782812310785358000,9.483358154296875,0.0007110093720257282,0.0015201256610453129,0.0003554380964487791
1782812310805440800,9.503440673828125,0.0011343560181558132,0.0013691708445549011,0.0003706833813339472
1782812310825523700,9.523523681640626,-0.00027264319942332804,0.0006246529519557953,-0.0008701602928340435
1782812310845605600,9.543605712890624,0.0013916593743488193,-0.0006229490973055363,-0.0008239431772381067
1782812310865688600,9.5636884765625,0.0012585505610331893,-0.00025629857555031776,0.0013336967676877975
1782812310885770500,9.5837705078125,-0.0004340296145528555,0.0008735321462154388,0.00007933448068797588
1782812310905853400,9.603853515625,-0.00038007000694051385,0.0010864147916436195,-0.000886817928403616
1782812310925935600,9.623935546875,0.0004617787490133196,0.000776675995439291,-0.0001252798829227686
1782812310946018800,9.644018798828125,0.0011307934764772654,0.00127333402633667,0.00019250018522143364
1782812310966100700,9.664100830078125,-0.0007674552034586668,0.0008737361058592796,-0.0003535696305334568
1782812310986183700,9.68418359375,0.0010769057553261518,-0.0010734039824455976,-0.0008343704976141453
1782812311006266600,9.7042666015625,0.000021699030185118318,-0.0008147230837494135,0.0013489912962540984
1782812311026348500,9.7243486328125,-0.0007664633449167013,-0.0009006992913782597,-0.000545398099347949
1782812311046431500,9.744431396484375,-0.00012358750973362476,-0.0010311179794371128,0.00009064842015504837
1782812311066513700,9.764513671875,0.00020875173504464328,0.0020431559532880783,-0.0019400531891733408
1782812311086596600,9.7845966796875,0.000902645755559206,0.00006428873166441917,0.000616994802840054
1782812311106678800,9.8046787109375,-0.0006442184676416218,0.001078412402421236,-0.00021004094742238522
1782812311126761700,9.82476171875,-0.0011226419592276216,-0.00012497464194893837,-0.00014374405145645142
1782812311146843600,9.84484375,-0.0006881877197884023,0.0005547120235860348,0.00006030220538377762
1782812311166926600,9.864926513671875,0.00038265035254880786,0.0008377740159630775,0.0004857043968513608
1782812311187008500,9.885008544921876,0.00018108758376911283,0.00045416830107569695,0.00021821190603077412
1782812311207091500,9.905091552734374,-0.0009864100720733404,-0.000017140060663223267,0.0003948539961129427
1782812311227173600,9.925173583984375,0.00018314062617719173,0.0006075096316635609,0.000012891832739114761
1782812311247256600,9.945256591796875,0.00017964682774618268,0.00002270704135298729,-0.00030401069670915604
1782812311267338500,9.96533837890625,0.0008458863012492657,0.0008088806644082069,0.000010451069101691246
1782812311287421700,9.985421630859374,-0.00020814187882933766,0.000014236662536859512,-0.0006875761318951845
1782812311307503600,10.005503662109374,-0.0006233443273231387,-0.00006362376734614372,-0.00007509649731218815
1782812311327586600,10.025586669921875,-0.0003358543908689171,-0.0003925221972167492,0.001001513795927167
1782812311347668700,10.045668701171875,0.00036730861756950617,0.0006726332940161228,-0.00039022741839289665
1782812311367751700,10.065751708984376,-0.0007597036892548203,0.0005081091076135635,0.0002848617732524872
1782812311387833600,10.08583349609375,-0.0011150063946843147,-0.00007670465856790543,-0.00035682949237525463
1782812311407916500,10.10591650390625,0.00039737450424581766,0.0010444815270602703,-0.000008546048775315285
1782812311427998500,10.12599853515625,0.0004966999986208975,0.00006596138700842857,-0.0013600427191704512
1782812311448081700,10.14608154296875,0.0005319271003827453,-0.00011340249329805374,-0.0011540348641574383
1782812311468163800,10.166163818359376,-0.0002520466805435717,0.010232402011752129,0.004513809457421303
1782812311488246800,10.186246826171875,-0.002665122738108039,0.035036228597164154,0.008978269062936306
1782812311508328700,10.20632861328125,0.000028155918698757887,-0.016136115416884422,-0.004958553239703178
1782812311528411600,10.22641162109375,0.000251339835813269,-0.025190318003296852,-0.007676959503442049
1782812311548493600,10.24649365234375,0.0009520201128907502,-0.017008084803819656,-0.005989477504044771
