time,seconds_elapsed,z,y,x
1782812207494612700,0.05461279296875,-0.0014431485906243324,-0.0008864826522767544,-0.00026050745509564877
1782812207514695700,0.07469580078125,0.0035049947910010815,-0.0018515493720769882,0.0006717601791024208
1782812207534777600,0.094777587890625,-0.00035847266553901136,-0.00013048946857452393,-0.0008075693622231483
1782812207554860500,0.114860595703125,-0.001711299642920494,-0.0001210113987326622,-0.0000026640482246875763
1782812207574943500,0.134943603515625,0.0009140737820416689,0.001630361657589674,0.00022295420058071613
1782812207595025700,0.155025634765625,-0.003674364648759365,0.00043963082134723663,-0.0014897664077579975
1782812207615108600,0.175108642578125,-0.0004897476173937321,-0.0006812484934926033,0.0002635096898302436
1782812207635191600,0.195191650390625,0.005191613920032978,-0.0015916088595986366,0.0015273218741640449
1782812207655274800,0.215274658203125,-0.0014019261579960585,-0.00011687679216265678,0.0012906985357403755
1782812207675356700,0.235356689453125,0.0005628886865451932,-0.00015611853450536728,0.0007615922950208187
1782812207695439600,0.255439697265625,0.0022041569463908672,0.0008460134267807007,-0.0006279326044023037
1782812207715522800,0.275522705078125,-0.0023358697071671486,0.0016514314338564873,-0.0008057050872594118
1782812207735606000,0.29560595703125,0.0014449559384956956,-0.0004180958494544029,0.0003701562527567148
1782812207755688000,0.31568798828125,0.001973075093701482,-0.00008676666766405106,0.0006443927995860577
1782812207775771000,0.33577099609375,-0.001812538830563426,0.00021479744464159012,0.0007639055838808417
1782812207795853800,0.355853759765625,-0.00016132034943439066,-0.0012495184782892466,-0.0008903522975742817
1782812207815935700,0.375935791015625,-0.0016138670034706593,0.0007178685627877712,-0.00004489650018513203
1782812207836018700,0.396018798828125,-0.0012365069705992937,0.0015602889470756054,-0.0017342446371912956
1782812207856102000,0.416101806640625,0.0013973789755254984,0.0005252589471638203,-0.0005340140778571367
1782812207876184800,0.436184814453125,0.00014119531260803342,-0.00005123671144247055,5.315523594617844e-7
1782812207896267000,0.45626708984375,-0.0007653447100892663,0.0008284053765237331,-0.00025060446932911873
1782812207916350000,0.476349853515625,0.0011703746858984232,0.0004541520029306412,0.0006837715627625585
1782812207936433000,0.496432861328125,-0.002577901817858219,0.0018338104709982872,0.0010885937372222543
1782812207956514800,0.516514892578125,-0.0011444262927398086,0.0018732249736785889,0.00005467701703310013
1782812207976597800,0.53659765625,-0.00037165239336900413,0.0011565377935767174,0.00039418856613337994
1782812207996681000,0.556680908203125,0.0010966144036501646,-0.0017115932423621416,0.0013933427399024367
1782812208016764000,0.576763916015625,0.0019840735476464033,-0.00026916200295090675,0.000598628306761384
1782812208036845800,0.596845703125,-0.000010858610039576888,0.0002877316437661648,0.0012068250216543674
1782812208056928800,0.6169287109375,0.0014750808477401733,0.0014237272553145885,0.001212859759107232
1782812208077011700,0.63701171875,-0.0004103514947928488,0.000671618152409792,-0.00038595544174313545
1782812208097094000,0.657093994140625,-0.0003382558934390545,0.0012795873917639256,-0.0007535128388553858
1782812208117176800,0.6771767578125,0.000210496480576694,-0.00044947885908186436,-0.00007096701301634312
1782812208137260000,0.697260009765625,0.001496471930295229,-0.0015989928506314754,0.00042044976726174355
1782812208157343000,0.717343017578125,-0.0022105704993009567,0.00001708557829260826,0.0007660702103748918
1782812208177425000,0.7374248046875,0.0007546982960775495,0.00022516539320349693,0.0009275192860513926
1782812208197507800,0.7575078125,-0.0015366100706160069,0.0015599722974002361,-0.0020362711511552334
1782812208217590800,0.7775908203125,-0.0006256757769733667,0.0006199558265507221,0.002848359290510416
1782812208237672700,0.797672607421875,0.000495229265652597,-0.0006611654534935951,0.00010908814147114754
1782812208257756000,0.817755859375,-0.0020854228641837835,-0.0007189090829342604,0.0013216324150562286
1782812208277838800,0.8378388671875,-0.0013177519431337714,0.0001057046465575695,-0.0002952427603304386
1782812208297921800,0.857921875,0.0014989810297265649,0.00011783652007579803,-0.0006725217681378126
1782812208318004000,0.87800390625,-0.002232674043625593,0.0018660142086446285,-0.00022277608513832092
1782812208338087000,0.8980869140625,0.000023617438273504376,-0.00000405777245759964,0.000014089979231357574
1782812208358169900,0.918169921875,-0.00022022183111403137,0.00157546391710639,0.0010067283874377608
1782812208378251800,0.938251708984375,-0.0001858096948126331,0.0005822614766657352,-0.0010723033919930458
1782812208398335000,0.9583349609375,0.0015675097238272429,-0.0011752687860280275,0.0005835592746734619
1782812208418418000,0.97841796875,0.0007324497564695776,0.00011366233229637146,-0.0007775004487484694
1782812208438500900,0.9985009765625,-0.002067308872938156,-0.0008880635723471642,0.00018949760124087334
1782812208458582800,1.018582763671875,0.0013703362783417106,-0.0007064209785312414,-0.0006942518521100283
1782812208478665700,1.038665771484375,-0.0007299438584595919,0.001978000160306692,-0.0007495742756873369
1782812208498748700,1.058748779296875,-0.0006993740680627525,0.0005475045181810856,-0.0012481003068387508
1782812208518830800,1.078830810546875,0.0016947492258623242,0.0007337247952818871,0.0014388160780072212
1782812208538914000,1.0989140625,-0.00037281392724253237,0.0006642625667154789,0.0027354382909834385
1782812208558997000,1.1189970703125,-0.0016044513322412968,-0.00010189833119511604,-0.0005495296791195869
1782812208579080000,1.139079833984375,-0.000513229169882834,-0.00007858686149120331,-0.001250717556104064
1782812208599161900,1.159161865234375,-0.0016004843637347221,0.001549982000142336,-0.0002904529683291912
1782812208619244800,1.179244873046875,-0.0010391180403530598,0.000888108741492033,-0.001986136194318533
1782812208639327700,1.19932763671875,0.00004196961526758969,0.0018564802594482899,0.00014565279707312584
1782812208659410000,1.219409912109375,-0.00013776670675724745,-0.0005706464871764183,-0.0016010662075132132
1782812208679492900,1.239492919921875,0.00041637365939095616,-0.0013278764672577381,0.0006035629194229841
1782812208699576300,1.259576416015625,-0.0014244308695197105,-0.0012123736087232828,0.0009286860004067421
1782812208719658500,1.279658447265625,-0.0008503092685714364,0.0004681907594203949,0.0007685323944315314
1782812208739741400,1.299741455078125,0.001498415949754417,0.001291076187044382,0.00031940359622240067
1782812208759824600,1.31982470703125,0.00012766860891133547,0.0009489851072430611,-0.00019959034398198128
1782812208779907600,1.339907470703125,-0.0010393749689683318,0.0005261222831904888,0.0011040344834327698
1782812208799989500,1.359989501953125,0.0004055421450175345,0.0006038406863808632,0.0009246082045137882
1782812208820072400,1.380072509765625,0.000748643244151026,0.00009594392031431198,-0.0006750056054443121
1782812208840155400,1.4001552734375,0.00021679099882021546,0.0007160534150898457,-0.0005204861517995596
1782812208860237300,1.4202373046875,0.0009774911450222135,-0.0011843782849609852,0.0007842737250030041
1782812208880320500,1.440320556640625,0.001101806527003646,0.0007423711940646172,-0.0005236896686255932
1782812208900403500,1.460403564453125,-0.00008326294482685626,0.0002664797939360142,-0.00033791339956223965
1782812208920486400,1.480486328125,-0.0002502709976397455,-0.0008153747767210007,0.00007669231854379177
1782812208940568300,1.500568359375,-0.0006428209599107504,-0.0018918244168162346,-0.0019670177716761827
1782812208960651500,1.520651611328125,0.0005122657166793942,0.0013271691277623177,0.00032600504346191883
1782812208980734500,1.540734375,0.0010509120766073465,-0.00043136184103786945,0.0005990505451336503
1782812209000816600,1.560816650390625,-0.0019940442871302366,-3.534369170665741e-7,-0.0015585527289658785
1782812209020899600,1.580899658203125,-0.00008681882172822952,0.000029020477086305618,0.00001097540371119976
1782812209040982500,1.600982421875,-0.00019278423860669136,0.0012533538974821568,-0.00044357706792652607
1782812209061065500,1.6210654296875,-0.00005173229146748781,0.0005586291663348675,-0.0014222743920981884
1782812209081147400,1.6411474609375,-0.0011617867276072502,0.00016985461115837097,0.00005072704516351223
1782812209101230300,1.661230224609375,-0.0008275500731542706,0.00137726916000247,-0.0007585023995488882
1782812209121313500,1.6813134765625,-0.0012878235429525375,0.0006611142307519913,0.00036823912523686886
1782812209141395500,1.7013955078125,0.0012239699717611074,0.0015759095549583435,-0.0001101421657949686
1782812209161478400,1.721478515625,0.0033877436071634293,0.00029235798865556717,0.0009808125905692577
1782812209181561300,1.741561279296875,-0.000896895828191191,0.0003580767661333084,-0.00009598582983016968
1782812209201643500,1.7616435546875,0.001150257419794798,-0.00007322989404201508,-0.00020911404862999916
1782812209221726500,1.7817265625,-0.0017985228914767504,0.00044274888932704926,-0.0006253889296203852
1782812209241809400,1.801809326171875,0.0000781613343860954,0.0006941989995539188,-0.0013004923239350319
1782812209261892600,1.821892578125,-0.0007034078007563949,0.0011615687981247902,-0.0012819257099181414
1782812209281974500,1.841974609375,0.00017398913041688502,0.0003712046891450882,0.00021911493968218565
1782812209302057500,1.862057373046875,-0.00005356754991225898,-0.00024263747036457062,-0.0005881229881197214
1782812209322140400,1.882140380859375,-0.0009570553665980697,-0.00045597320422530174,0.0005370962899178267
1782812209342222300,1.902222412109375,-0.00034184669493697584,0.0005021067336201668,0.0002526144962757826
1782812209362305300,1.92230517578125,-0.0012425277382135391,-0.0006214811000972986,0.00044809048995375633
1782812209382388500,1.942388427734375,-0.0002817150088958442,0.00026333099231123924,-0.00029423017986118793
1782812209402471400,1.962471435546875,-0.001129712676629424,0.0014032116159796715,-0.0008015551138669252
1782812209422553600,1.9825537109375,0.0012984999921172857,0.0008536451496183872,0.0003219348145648837
1782812209442636500,2.002636474609375,0.0004431483685038984,-0.0005898540839552879,-0.0003806601744145155
1782812209462719500,2.022719482421875,-0.0010248415637761354,-0.0004338908474892378,0.0009967960650101304
1782812209482801400,2.042801513671875,-0.0005314578302204609,0.000010190997272729874,-0.000805908115580678
1782812209502884400,2.06288427734375,-0.0005895012291148305,-0.00002972036600112915,-0.0011794064193964005
1782812209522967600,2.082967529296875,0.000454857072327286,0.000585570465773344,-0.00023770448751747608
1782812209543049500,2.103049560546875,0.001915140077471733,-0.0004266959149390459,-0.001172814518213272
1782812209563132400,2.12313232421875,0.00013261288404464722,-0.000822160392999649,-0.0013435014989227057
1782812209583215400,2.14321533203125,0.0012689291033893824,0.0007539023645222187,-0.0013760009314864874
1782812209603298300,2.16329833984375,-0.0008261468610726297,0.0016344552859663963,-0.0009008878841996193
1782812209623380500,2.18338037109375,-0.0007261143764480948,-0.00028448598459362984,-0.0007667688187211752
1782812209643463400,2.20346337890625,0.0001708142226561904,0.0008456660434603691,-0.0002578205894678831
1782812209663546600,2.223546630859375,0.0003699978697113693,-0.000678366282954812,0.00033271010033786297
1782812209683628500,2.243628662109375,0.0004884962690994143,0.0008220430463552475,0.0006866839248687029
1782812209703710700,2.263710693359375,0.00029702731990255415,0.0004923916421830654,0.001253597205504775
1782812209723793700,2.283793701171875,-0.0002553729573264718,0.0004758858121931553,-0.000773007282987237
1782812209743875800,2.303875732421875,0.0024046036414802074,-0.002068961737677455,0.0013695268426090479
1782812209763958800,2.323958740234375,-0.00005518647958524525,0.0010550543665885925,0.00018172559794038534
1782812209784041700,2.344041748046875,-0.001059131696820259,-0.0012084506452083588,0.00040159362833946943
1782812209804125000,2.364125,-0.00039526421460323036,0.00031436607241630554,-0.0002061238046735525
1782812209824206800,2.384206787109375,0.0007591217290610075,0.00026798713952302933,-0.0004182280972599983
1782812209844289800,2.404289794921875,0.00022676881053484976,0.0014830995351076126,-0.0009157329332083464
1782812209864372700,2.424372802734375,0.0011827757116407156,0.0021432689391076565,0.0005424240371212363
1782812209884454700,2.44445458984375,-0.0009428135817870498,-0.0017306709196418524,0.0015869321068748832
1782812209904537600,2.46453759765625,-0.0016002950724214315,0.0018207710236310959,-0.00018140021711587906
1782812209924620500,2.48462060546875,0.0016318754060193896,0.00021869922056794167,0.000014963559806346893
1782812209944702700,2.50470263671875,0.0005632989923469722,0.0009821499697864056,0.001303698867559433
1782812209964786000,2.524785888671875,-0.00043973379069939256,-0.00033071613870561123,0.0006096364231780171
1782812209984868900,2.544868896484375,0.0014955801889300346,0.0009610699489712715,0.0006525210337713361
1782812210004951800,2.564951904296875,0.003716707695275545,0.0003058621659874916,0.00009372062049806118
1782812210025033700,2.58503369140625,0.0013965066755190492,-0.0007659494876861572,0.0003000182332471013
1782812210045116700,2.60511669921875,-0.001583864795975387,0.0008755447342991829,-0.0002001721877604723
1782812210065199600,2.62519970703125,0.0007886983221396804,0.00046573206782341003,0.00031489075627177954
1782812210085281500,2.645281494140625,0.0008801104850135744,-0.001437802566215396,0.0000658214557915926
1782812210105364700,2.66536474609375,-0.000820163288153708,-0.0001635504886507988,0.00004110136069357395
1782812210125447700,2.68544775390625,0.001452307216823101,-0.0000991220586001873,-0.0002925582230091095
1782812210145530600,2.705530517578125,-0.001737074926495552,0.00039327749982476234,-0.00017170817591249943
1782812210165612800,2.72561279296875,0.0017457879148423672,0.000450128223747015,-0.0013477036263793707
1782812210185695700,2.74569580078125,-0.00028899291646666825,0.00010670535266399384,-0.001596198882907629
1782812210205778700,2.76577880859375,0.000050569273298606277,0.0003745565190911293,-0.00038675242103636265
1782812210225860900,2.78586083984375,0.0004793007392436266,-0.00006251828745007515,0.0021156040020287037
1782812210245943800,2.80594384765625,0.002065117470920086,-0.0008179182186722755,0.0016076030442491174
1782812210266026800,2.82602685546875,-0.0007032747380435467,0.0010068202391266823,0.0017809722339734435
1782812210286108700,2.846108642578125,0.00019233868806622922,-0.00001306319609284401,0.0006834942614659667
1782812210306191600,2.866191650390625,-0.0010426378576084971,0.0004897387698292732,0.00002365000545978546
1782812210326274600,2.886274658203125,0.00018058816203847528,0.0008570044301450253,-0.0005370583385229111
1782812210346357800,2.906357666015625,0.0010721324943006039,-0.0006351328920572996,0.0006843878654763103
1782812210366440000,2.92643994140625,0.0002116651157848537,-0.0001813303679227829,-0.0009222973603755236
1782812210386523000,2.94652294921875,-0.0012820311821997166,-0.0011761595960706472,0.0014244160847738385
1782812210406605800,2.966605712890625,-0.00021050343639217317,-0.0011970952618867159,-0.00021646241657435894
1782812210426687700,2.986687744140625,-0.0002755638852249831,0.002030596137046814,-0.0002815031912177801
1782812210446770700,3.006770751953125,0.0009749214514158666,0.001676803920418024,0.0008447709260508418
1782812210466853600,3.026853515625,-0.00003458681749179959,0.002243321854621172,-0.0008314494043588638
1782812210486935600,3.046935546875,0.00011786978575401008,-4.0745362639427185e-7,-0.000201044837012887
1782812210507018800,3.067018798828125,0.001231178641319275,-0.000014983117580413818,-0.00087758619338274
1782812210527101700,3.087101806640625,-0.0017731881234794855,0.0005257930606603622,-0.0004610493779182434
1782812210547184600,3.1071845703125,0.00025591347366571426,0.0004693875089287758,-0.0006410542409867048
1782812210567266800,3.127266845703125,-0.0008940394618548453,0.0008462248370051384,-0.00008205673657357693
1782812210587349800,3.147349853515625,-0.0009983989875763655,0.0003354456275701523,-0.0008076145313680172
1782812210607432700,3.1674326171875,0.0020556962117552757,0.00063277967274189,0.0007882078643888235
1782812210627514600,3.1875146484375,-0.0012471058871597052,0.00018237996846437454,0.00012958655133843422
1782812210647597800,3.207597900390625,0.000228579476242885,-0.0010063766967505217,-0.0006011363584548235
1782812210667680800,3.2276806640625,-0.0006893210811540484,0.000060657504945993423,-0.0008799848146736622
1782812210687762700,3.2477626953125,0.00040548163815401495,0.0025562532246112823,0.0006571674020960927
1782812210707846000,3.267845947265625,0.0002876311191357672,0.0003619864583015442,0.002007092582061887
1782812210727928800,3.2879287109375,-0.00012170600530225784,-0.0008997570257633924,-0.0010018518660217524
1782812210748012000,3.308011962890625,0.0010435834992676973,-0.0021370388567447662,0.0009134020656347275
1782812210768094000,3.328093994140625,0.0003711744211614132,-0.0008716222364455462,-0.0005865965504199266
1782812210788177000,3.348177001953125,0.0011772627476602793,0.00033174920827150345,-0.0008648778311908245
1782812210808259800,3.368259765625,0.000704508158378303,0.0005035009235143661,0.0006786284502595663
1782812210828342000,3.388342041015625,-0.00010771673987619579,0.00009831134229898453,0.0008028438314795494
1782812210848425000,3.408425048828125,0.0008618677966296673,-0.00026460224762558937,0.00018928595818579197
1782812210868508000,3.4285078125,-0.0008300526533275843,0.0002389056608080864,0.0010257635731250048
1782812210888589800,3.44858984375,0.0018473152304068208,0.0008255066350102425,0.00008804211392998695
1782812210908673000,3.468673095703125,-0.00203908234834671,0.0006423285230994225,-0.0002525688614696264
1782812210928756000,3.488755859375,0.00010424846550449729,0.00001662643626332283,0.00012474507093429565
1782812210948838000,3.508837890625,-0.00017443457909394056,0.0008622575551271439,0.00032323331106454134
1782812210968920800,3.5289208984375,-0.00010169408051297069,-0.000601666048169136,-0.00013547600246965885
1782812210989003800,3.549003662109375,0.0005982819711789489,-0.00012884708121418953,-0.00010768999345600605
1782812211009086700,3.569086669921875,-0.0004413881106302142,0.00010496517643332481,-0.0007378354202955961
1782812211029169200,3.589169189453125,-0.000943741004448384,-0.0008937516249716282,-0.0004568148870021105
1782812211049252000,3.609252197265625,0.000528356060385704,-0.00006882892921566963,0.0005006474675610662
1782812211069335000,3.6293349609375,-0.0002592593082226813,-0.0010358730796724558,-0.00007034442387521267
1782812211089417000,3.6494169921875,0.0008867809665389359,-0.00038786185905337334,0.0007414277642965317
1782812211109500000,3.6695,-0.0020487671718001366,-0.00008676853030920029,-0.0008467843290418386
1782812211129582800,3.689582763671875,-0.0005723446374759078,-0.0002078413963317871,0.0002249919343739748
1782812211149666000,3.709666015625,0.0010365252383053303,0.0009640646167099476,0.0007732596714049578
1782812211169748000,3.729748046875,0.0007501801592297852,-0.0006301365792751312,0.00039503397420048714
1782812211189831000,3.749830810546875,-0.0003645135439001024,-0.0007123162504285574,0.000570240430533886
1782812211209913900,3.769913818359375,-0.001025922829285264,0.0003981254994869232,0.00040894944686442614
1782812211229996000,3.78999609375,-0.00012285415141377598,0.0011617164127528667,-0.0004372417461127043
1782812211250079000,3.810078857421875,-0.00009001474245451391,0.0005281185731291771,-0.001562281046062708
1782812211270162000,3.830161865234375,-0.001245317980647087,0.00005273846909403801,-0.00043529830873012543
1782812211290243800,3.850243896484375,0.00006524287164211273,-0.00006367731839418411,-0.0005887285806238651
1782812211310327000,3.8703271484375,-0.0006872355006635189,0.0004103211686015129,-0.00007038936018943787
1782812211330410000,3.890409912109375,0.00040566292591392994,0.00016388623043894768,0.0013618762604892254
1782812211350492000,3.910491943359375,-0.00005768355913460255,0.00020466512069106102,0.00017707853112369776
1782812211370574800,3.930574951171875,-0.0011830164585262537,-0.000495171407237649,-0.0010627314914017916
1782812211390657800,3.95065771484375,-0.00043060912867076695,0.0008366755209863186,0.0013815995771437883
1782812211410740700,3.97074072265625,-0.0010770813096314669,0.0008643525652587414,-0.00060244370251894
1782812211430823000,3.990822998046875,-0.0005169754731468856,-0.00012298580259084702,0.0016955285100266337
1782812211450906000,4.010906005859375,0.0007935511530376971,0.00007780967280268669,0.00039163080509752035
1782812211470989000,4.030989013671875,-0.001425242400728166,0.000112961046397686,0.0007731817895546556
1782812211491071000,4.051071044921875,0.0007028720574453473,0.0004686187021434307,-0.0003487516660243273
1782812211511154000,4.07115380859375,0.0014445004053413868,-0.0007448103278875351,-0.0010847849771380424
1782812211531236900,4.09123681640625,-0.00012597552267834544,-0.0012913118116557598,-0.0014976244419813156
1782812211551318800,4.11131884765625,-0.0011276440927758813,-0.00022745132446289062,0.0010942777153104544
1782812211571402000,4.131402099609375,-0.0005727645475417376,-0.000800236826762557,0.0012642687652260065
1782812211591485000,4.15148486328125,-0.0006221397197805345,-0.0012104092165827751,0.0007146645803004503
1782812211611567900,4.17156787109375,-0.0006986549706198275,0.0002271970734000206,-0.00010014255531132221
1782812211631650000,4.191650146484375,-0.000005766167305409908,0.0001482744701206684,-0.001307555940002203
1782812211651733000,4.21173291015625,-0.0003686067648231983,0.001441300380975008,-0.001315463101491332
1782812211671816000,4.23181591796875,-0.0010559596121311188,-0.0012126020155847073,-0.0005630149971693754
1782812211691897900,4.25189794921875,-0.0009898041607812047,-0.00007223524153232574,0.0009041993180289865
1782812211711981000,4.27198095703125,-0.0007690308266319335,-0.0010501041542738676,0.00011841533705592155
1782812211732064000,4.29206396484375,0.00011757589527405798,-0.000569166149944067,0.00012031826190650463
1782812211752146000,4.31214599609375,-0.0011471686884760857,0.0013329260982573032,-0.0006062970496714115
1782812211772228900,4.332228759765625,-0.0017065339488908648,-0.00010577775537967682,0.0003396839601919055
1782812211792311800,4.352311767578125,-0.00016073029837571084,0.0011693895794451237,0.0006565272342413664
1782812211812394800,4.372394775390625,-0.00042317452607676387,0.000011527445167303085,-0.0004450937267392874
1782812211832477000,4.392476806640625,0.0015072320820763707,-0.0012872798833996058,0.0007828568341210485
1782812211852560100,4.41256005859375,-0.00031868161750026047,0.00022042728960514069,0.00001225993037223816
1782812211872643000,4.43264306640625,0.0003182851360179484,-0.00018872739747166634,-0.00013441545888781548
1782812211892725000,4.45272509765625,0.0006222304655238986,0.000960394274443388,0.000050286995247006416
1782812211912808000,4.472807861328125,0.0010735129471868277,0.0011604777537286282,-0.0008385474793612957
1782812211932891000,4.492890869140625,0.0006481517339125276,-0.0007377131842076778,0.000456450623460114
1782812211952972800,4.512972900390625,-0.00018332459148950875,-0.0007332207169383764,-0.00019942107610404491
1782812211973056000,4.533055908203125,0.00010019890032708645,-0.0003937440924346447,-0.0006661389488726854
1782812211993139000,4.553138916015625,0.001780239399522543,0.00035309698432683945,-0.0007429528050124645
1782812212013221000,4.57322119140625,0.0008644107729196548,-0.00012147240340709686,0.00023632205557078123
1782812212033304000,4.593303955078125,0.00010128307621926069,0.001405444461852312,-0.0005894720088690519
1782812212053387000,4.613386962890625,0.0007764400215819478,0.00096913892775774,-0.000585358589887619
1782812212073469000,4.633468994140625,-0.0009004301391541958,-0.001204328378662467,0.0010978149948641658
1782812212093551900,4.6535517578125,-0.0011943337740376592,-0.0005751769058406353,0.00016012461856007576
1782812212113635000,4.673635009765625,-0.0010021586203947663,-0.0005166695918887854,-0.000013719778507947922
1782812212133718000,4.693718017578125,-0.0022186965215951204,0.00007568765431642532,0.0008899453096091747
1782812212153800000,4.713800048828125,-0.00038844585651531816,-0.0002937512472271919,0.0003250816371291876
1782812212173883000,4.7338828125,0.00030753412283957005,0.00043469248339533806,-0.0008302258793264627
1782812212193965800,4.7539658203125,0.00006651239527855068,0.0009155352599918842,0.0006207788828760386
1782812212214048000,4.774048095703125,0.00028565883985720575,-0.00004830723628401756,-0.000762568786740303
1782812212234131000,4.794130859375,0.0013297246769070625,0.000037097372114658356,-0.00046971929259598255
1782812212254214100,4.814214111328125,-0.0006927957874722779,0.00040723010897636414,-0.0004004845395684242
1782812212274296000,4.834296142578125,0.0008070265757851303,0.0006803236901760101,0.00016482349019497633
1782812212294379000,4.85437890625,-0.0005292626447044313,0.00028368644416332245,0.0007455809973180294
1782812212314462000,4.8744619140625,0.00026756952865980566,-0.000793522922322154,0.000449397717602551
1782812212334544000,4.8945439453125,0.0012577315792441368,-0.0002642977051436901,0.00012192502617835999
1782812212354626800,4.914626708984375,-0.0009714184561744332,0.0010654772631824017,0.0006367593305185437
1782812212374710000,4.9347099609375,0.0019934449810534716,0.0007658055983483791,0.0005687761586159468
1782812212394793000,4.95479296875,0.00003642834781203419,-0.0006338874809443951,-0.0006033359095454216
1782812212414875100,4.974875244140625,0.0015876011457294226,-0.00022763852030038834,-0.00007474026642739773
1782812212434958000,4.9949580078125,0.0007519726641476154,0.0008955583907663822,0.001135340891778469
1782812212455041000,5.015041015625,-0.0005527787143364549,-0.0008081919513642788,0.0006340248510241508
1782812212475123000,5.035123046875,-0.001190575072541833,0.0006244690157473087,0.0006441181758418679
1782812212495206000,5.055205810546875,0.0005478167440742254,0.0006972677074372768,-0.0018890313804149628
1782812212515289000,5.0752890625,-0.0005287649692036211,-0.0006369277834892273,0.0002627524081617594
1782812212535371000,5.09537109375,-0.00046192313311621547,-0.0002708504907786846,-0.00011811521835625172
1782812212555454000,5.115453857421875,0.0010353217367082834,0.0017928299494087696,0.00020454940386116505
1782812212575537000,5.135536865234375,0.0005078540416434407,-0.0007175316568464041,0.0005145653849467635
1782812212595619000,5.155619140625,0.002260686596855521,0.0009868266060948372,-0.0022515207529067993
1782812212615702000,5.175701904296875,0.0002918154059443623,-0.00007851608097553253,0.0003782268613576889
1782812212635785000,5.195784912109375,-0.000048166155465878546,-0.0013555351179093122,0.00015004491433501244
1782812212655867000,5.215866943359375,0.0012017409317195415,-0.001125694951042533,0.00020163424778729677
1782812212675950000,5.2359501953125,0.0010212822817265987,-0.00008425675332546234,-0.0016309174243360758
1782812212696033000,5.256032958984375,0.00027287311968393624,0.00013772817328572273,0.0007712576771155
1782812212716115700,5.27611572265625,0.000667762360535562,0.001300023403018713,-0.0011499002575874329
1782812212736197600,5.29619775390625,0.0008110431372188032,-0.0004520714282989502,-0.000030212337151169777
1782812212756280600,5.316280517578125,-0.0006501575699076056,0.0014270921237766743,0.0007141625974327326
1782812212776362800,5.33636279296875,0.0009326705476269126,0.00009031826630234718,0.0004825531505048275
1782812212796446000,5.356446044921875,-0.00005193686229176819,-0.000225030817091465,-0.0016221234109252691
1782812212816529000,5.37652880859375,0.00018317304784432054,-0.0002614404074847698,-0.0012878736015409231
1782812212836610800,5.39661083984375,-0.000457613670732826,0.0004874570295214653,0.0001390259712934494
1782812212856693800,5.41669384765625,0.00011192657984793186,-0.0005311553832143545,-0.0007865843363106251
1782812212876776700,5.436776611328125,-0.00014368472329806536,-0.00026741018518805504,-0.0012156062293797731
1782812212896858600,5.456858642578125,0.0010650868061929941,-0.00040682521648705006,-0.0008219340816140175
1782812212916941600,5.476941650390625,-0.00006316867074929178,0.00045495014637708664,-0.0006120300386101007
1782812212937024800,5.497024658203125,-0.000384712649974972,-0.00002816971391439438,0.0006921974709257483
1782812212957107000,5.51710693359375,0.00039257691241800785,0.00012072920799255371,-0.00018865359015762806
1782812212977190000,5.53718994140625,-0.001970527693629265,-0.0001291399821639061,-0.00029095960780978203
1782812212997272800,5.55727294921875,-0.0003618212358560413,-0.00007276469841599464,0.0006872557569295168
1782812213017355800,5.577355712890625,-0.0013311163056641817,0.0013568326830863953,-0.0005510759074240923
1782812213037437700,5.597437744140625,-0.000032430863939225674,0.0001292186789214611,0.001758909784257412
1782812213057521000,5.61752099609375,-0.0007134719053283334,-0.0008384811226278543,0.00002696458250284195
1782812213077603800,5.637603759765625,-0.0017591780051589012,0.0003945385105907917,-0.00037911045365035534
1782812213097685800,5.657685791015625,0.0005170304793864489,0.00025324011221528053,0.00032629212364554405
1782812213117768700,5.677768798828125,-0.0005689265090040863,-0.001536863623186946,0.0008899675449356437
1782812213137851600,5.6978515625,-0.0012541667092591524,0.0017948565073311329,0.0007592467591166496
1782812213157934600,5.7179345703125,-0.0006936835125088692,0.00045415153726935387,0.0014461376704275608
1782812213178016800,5.738016845703125,0.0009705263655632734,0.0005197571590542793,0.0004892747383564711
1782812213198100000,5.758099853515625,0.0013751838123425841,0.00012398045510053635,-0.0002528233453631401
1782812213218183000,5.778182861328125,-0.00018673914019018412,0.0011040042154490948,0.00042841886170208454
1782812213238264800,5.798264892578125,0.0008078576065599918,0.00043544545769691467,0.0009419148555025458
1782812213258347800,5.81834765625,-0.0005245875217951834,0.0001863483339548111,0.0001482065999880433
1782812213278430700,5.8384306640625,-0.0007640748517587781,0.0008476842194795609,-0.0005122048314660788
1782812213298512600,5.8585126953125,0.0020687661599367857,-0.0008747302927076817,-0.000614930409938097
1782812213318595600,5.878595703125,0.0007561668753623962,-0.00028443383052945137,0.00020397501066327095
1782812213338678800,5.8986787109375,0.001000388991087675,-0.00092314463108778,-0.00033141253516077995
1782812213358761000,5.918760986328125,-0.0001547977008158341,-0.00046846666373312473,0.0009528060909360647
1782812213378844000,5.938843994140625,-0.0014115532394498587,-0.0006894993130117655,0.00030787382274866104
1782812213398926800,5.9589267578125,-0.00015079189324751496,0.0010152473114430904,-0.0007713241502642632
1782812213419009800,5.979009765625,-0.00008473891648463905,-0.00003538327291607857,0.0005269371904432774
1782812213439091700,5.999091796875,0.0006731056491844356,-0.00010060006752610207,-0.0005852370522916317
1782812213459175000,6.0191748046875,0.0004858318716287613,0.0004718201234936714,0.0005944778677076101
1782812213479257900,6.0392578125,0.0008937031961977482,0.00039797788485884666,-0.0007837717421352863
1782812213499339800,6.05933984375,0.0002751124557107687,-0.001130526652559638,-0.0004176029469817877
1782812213519422700,6.079422607421875,0.0003872588276863098,0.00027963193133473396,0.0003094339044764638
1782812213539505700,6.099505615234375,0.0004511481383815408,-0.0007099625654518604,0.00038170593325048685
1782812213559587800,6.119587890625,0.0016092598671093583,0.00037949904799461365,0.0009443038143217564
1782812213579670800,6.1396708984375,-0.00012438638077583164,0.00029203202575445175,0.00018256274051964283
1782812213599754000,6.15975390625,-0.002399897202849388,-0.0002445424906909466,-0.0007082445081323385
1782812213619836000,6.1798359375,-0.00024143248447217047,-0.0008405447006225586,-0.0004281476140022278
1782812213639918800,6.1999189453125,0.0012011619983240962,-0.00046354997903108597,0.0007916155736893415
1782812213660001800,6.220001708984375,6.335903890430927e-7,-0.0006221833173185587,0.0008562708972021937
1782812213680084700,6.240084716796875,0.00044364103814586997,0.00015462888404726982,-0.00046771159395575523
1782812213700166700,6.260166748046875,-0.0005202842294238508,0.0012687398120760918,0.0003826046595349908
1782812213720249900,6.280249755859375,0.0014938459498807788,0.0005650562234222889,0.0016922515351325274
1782812213740332800,6.300332763671875,0.0006136407610028982,0.0009814286604523659,0.0008404277032241225
1782812213760414700,6.320414794921875,0.0005969716585241258,-0.00032073212787508965,-0.0010169507004320621
1782812213780497700,6.34049755859375,0.0015128243248909712,-0.00037186406552791595,-0.0006459413561969995
1782812213800580900,6.360580810546875,0.0008394225151278079,-0.00017046742141246796,-0.0006731289904564619
1782812213820663000,6.3806630859375,0.001296298112720251,-0.0004706906620413065,-0.00029902253299951553
1782812213840746000,6.40074609375,0.001032213564030826,-0.0008569252677261829,-0.00044741667807102203
1782812213860829000,6.420828857421875,-0.0006290053715929389,-0.00008985446766018867,-0.0002811849117279053
1782812213880910800,6.440910888671875,-0.00043727754382416606,0.0006307228468358517,-0.0004928598646074533
1782812213900993800,6.460993896484375,0.0007949767750687897,0.00035663973540067673,-0.00037079514004290104
1782812213921076700,6.48107666015625,0.00042162201134487987,0.0007277717813849449,0.0006046157795935869
1782812213941160000,6.501159912109375,0.002116827294230461,0.0007491158321499825,0.0005805797409266233
1782812213961241900,6.521241943359375,0.0014537643874064088,-0.000776955159381032,0.000045919790863990784
1782812213981324800,6.54132470703125,0.0030070587527006865,-0.0004678289406001568,-0.0021774997003376484
1782812214001407700,6.56140771484375,0.0004943062667734921,0.0008524656295776367,-0.0002600166480988264
1782812214021490000,6.581489990234375,-0.00046936783473938704,-0.00011933781206607819,-0.000170400133356452
1782812214041572900,6.60157275390625,0.0013304788153618574,0.000007801223546266556,0.0005197016289457679
1782812214061656000,6.621656005859375,-0.0003251970047131181,0.0006265463307499886,-0.0004422524943947792
1782812214081738000,6.641738037109375,-0.0007161409594118595,0.0006391257047653198,-0.0007069769781082869
1782812214101821000,6.661821044921875,-0.0004215870867483318,0.0007304437458515167,-0.0012460798025131226
1782812214121903900,6.68190380859375,0.00019313064694870263,0.000798150897026062,0.002142891753464937
1782812214141985800,6.70198583984375,-0.00017561543791089207,-0.0003363844007253647,0.00004432583227753639
1782812214162068700,6.72206884765625,0.0005638493457809091,-0.0006926839705556631,-0.00001058424822986126
1782812214182151700,6.742151611328125,-0.0006045910995453596,0.0006441776640713215,0.0006223806412890553
1782812214202235000,6.76223486328125,0.0006422098376788199,0.0008185715414583683,-0.0005713326390832663
1782812214222317000,6.782317138671875,-0.00042688404209911823,0.0006023836322128773,0.0005857540527358651
1782812214242400000,6.80239990234375,-0.00035976257640868425,0.00028918543830513954,0.0002793226158246398
1782812214262483000,6.82248291015625,-0.0008760598720982671,0.00009327800944447517,-0.00004497566260397434
1782812214282564900,6.84256494140625,0.0008946389425545931,0.0009922808967530727,0.0013621046673506498
1782812214302647800,6.862647705078125,0.0008316662861034274,0.0002297842875123024,0.00015771202743053436
1782812214322730800,6.882730712890625,0.00031355483224615455,-0.0014029513113200665,0.00045686436351388693
1782812214342812700,6.902812744140625,-0.0003601035277824849,0.0005092457868158817,-0.0008293641731142998
1782812214362896000,6.922895751953125,0.0008770887507125735,0.0003771078772842884,-0.00020517362281680107
1782812214382978800,6.942978759765625,0.0011490255128592253,-0.0006991855334490538,-0.0002058674581348896
1782812214403061000,6.96306103515625,0.0019668834283947945,0.0015911534428596497,0.0009768460877239704
1782812214423144000,6.98314404296875,-0.00035386200761422515,-0.00045948452316224575,0.00019961711950600147
1782812214443227000,7.003226806640625,-0.00039412116166204214,-0.0013562457170337439,0.0006336034275591373
1782812214463309800,7.023309814453125,0.0003277403593529016,-0.0010215057991445065,0.0014752254355698824
1782812214483392000,7.04339208984375,-0.00038434553425759077,-0.0002007526345551014,0.0005445851711556315
1782812214503475000,7.063474853515625,0.00040697783697396517,0.0000076214782893657684,0.0013511168072000146
1782812214523558000,7.083557861328125,0.0006733438349328935,0.00039331475272774696,-0.0012845532037317753
1782812214543639800,7.103639892578125,0.0004637796664610505,0.001081966795027256,-0.0016812582034617662
1782812214563722800,7.12372265625,-0.0009424748132005334,-0.00025066034868359566,-0.000703638419508934
1782812214583805700,7.1438056640625,0.0003055863198824227,0.0006719864904880524,-0.0005175936967134476
1782812214603887900,7.163887939453125,-0.0006296808714978397,-0.00019447645172476768,0.0003135179867967963
1782812214623971000,7.18397119140625,0.0003296048380434513,0.0001462996006011963,0.0006407459732145071
1782812214644054000,7.204053955078125,0.0006310709286481142,0.0011349371634423733,0.0006065255729481578
1782812214664136000,7.224135986328125,0.0005234898417256773,-0.00014882534742355347,0.000413654837757349
1782812214684219000,7.244218994140625,0.0003988203243352473,0.0010471637360751629,0.001157411141321063
1782812214704301800,7.2643017578125,-0.0023467130959033966,-0.0007361951284110546,0.0007501414511352777
1782812214724383700,7.2843837890625,0.00025410513626411557,0.0008769584819674492,-0.00030298298224806786
1782812214744466700,7.304466796875,0.00009087259240914136,0.0005865483544766903,0.00021378486417233944
1782812214764549600,7.324549560546875,-0.0010575035121291876,-0.0006798291578888893,-0.0004765347111970186
1782812214784631800,7.3446318359375,0.000295323901809752,0.00030953576788306236,-0.0008813873864710331
1782812214804714800,7.36471484375,-0.0006990989786572754,0.0006462177261710167,-0.00018304307013750076
1782812214824798000,7.3847978515625,0.0012018880806863308,0.0005422080866992474,0.00007189181633293629
1782812214844881000,7.404880859375,-0.001153013203293085,-0.0016601961106061935,0.0001962045207619667
1782812214864962800,7.424962890625,0.0005233853589743376,-0.0004341523163020611,-0.00038192071951925755
1782812214885045800,7.445045654296875,0.0001197231758851558,0.000027861446142196655,0.0005147521151229739
1782812214905128700,7.465128662109375,0.0001042603689711541,0.0010449690744280815,-0.0006810170598328114
1782812214925210600,7.485210693359375,0.0006667273119091988,-0.0006143869832158089,-0.0008192958775907755
1782812214945293600,7.50529345703125,-0.00014872345491312444,0.0002444176934659481,0.0016403400804847479
1782812214965376800,7.525376708984375,0.0013734159292653203,-0.00016553746536374092,-0.0009968781378120184
1782812214985459000,7.545458984375,0.000275252852588892,-0.0002750246785581112,-0.0012519126757979393
1782812215005542000,7.5655419921875,-0.00030672672437503934,-0.00023562787100672722,-0.0012734660413116217
1782812215025624800,7.585624755859375,0.00012788138701580465,-0.0005511993076652288,-0.00010497705079615116
1782812215045706800,7.605706787109375,0.00042724303784780204,-0.0017266273498535156,0.0004963304381817579
1782812215065789700,7.625789794921875,-0.0006658436614088714,0.0004600668326020241,-0.00039868010208010674
1782812215085872600,7.64587255859375,-0.00017505334108136594,-0.0003947571385651827,-0.0007956456393003464
1782812215105954600,7.66595458984375,0.0021087045315653086,0.0007659010589122772,0.001279930816963315
1782812215126037800,7.686037841796875,0.0005308187683112919,0.00019636331126093864,0.0012204628437757492
1782812215146120700,7.70612060546875,0.00016345817130059004,-0.0001290622167289257,-0.0002762738149613142
1782812215166203000,7.726202880859375,0.0006581356283277273,0.002012385055422783,0.0005494577344506979
1782812215186285800,7.746285888671875,-0.0006633094744756818,0.0015255017206072807,-0.0007829919923096895
1782812215206368800,7.76636865234375,0.0008635715348646045,0.0003133825957775116,0.00015788828022778034
1782812215226452000,7.786451904296875,-0.0009894014801830053,-0.00043831602670252323,0.00028155394829809666
1782812215246534000,7.806533935546875,0.0002767653204500675,0.0016965502873063087,0.0002297410974279046
1782812215266616800,7.826616943359375,0.0011960219126194715,-0.00036250241100788116,-0.0002746300306171179
1782812215286699800,7.84669970703125,-0.00025602508685551584,0.0005408292636275291,0.00034122553188353777
1782812215306781700,7.86678173828125,0.0018719832878559828,0.0014720587059855461,-0.00039194943383336067
1782812215326864600,7.88686474609375,0.0008459552773274481,-0.0007095634937286377,-0.0010599293746054173
1782812215346947600,7.906947509765625,-0.00012139907630626112,0.00027871131896972656,0.0004172340268269181
1782812215367029800,7.92702978515625,-0.0008164650062099099,0.0010297233238816261,0.001582370838150382
1782812215387113000,7.947113037109375,0.0008473464986309409,-0.0002831083256751299,-0.0003463460598140955
1782812215407196000,7.96719580078125,0.000755955115891993,-0.00022925855591893196,-0.0002440977841615677
1782812215427277800,7.98727783203125,-0.00031072000274434686,0.00020516011863946915,0.0005579807329922915
1782812215447360800,8.00736083984375,-0.001867906772531569,0.000124423298984766,-0.0015101928729563951
1782812215467443700,8.027443603515625,-0.0009364259894937277,0.0005448316223919392,-0.0006872205995023251
1782812215487525600,8.047525634765625,-0.000499107816722244,-0.0012397875543683767,0.0007610026514157653
1782812215507608600,8.067608642578126,-0.00025134722818620503,-0.00035257311537861824,-0.0007510636933147907
1782812215527691800,8.08769189453125,-0.0014467949513345957,0.0005837865173816681,0.0017533847130835056
1782812215547774000,8.10777392578125,0.0011131730861961842,0.0008287183009088039,0.0010167707223445177
1782812215567857000,8.12785693359375,0.0011340335477143526,0.0007227067835628986,0.00025250983890146017
1782812215587939800,8.14793994140625,0.0023021558299660683,0.0002359449863433838,0.00044311315286904573
1782812215608022800,8.168022705078124,0.0009842944564297795,0.0008137738332152367,-0.000713092740625143
1782812215628104700,8.188104736328125,-0.00011380718206055462,0.0005004373379051685,-0.0019219086971133947
1782812215648188000,8.20818798828125,-0.000425576523412019,0.0017087813466787338,0.00034050794783979654
1782812215668270800,8.228270751953126,-0.0007740756263956428,-0.001378814224153757,-0.00022872257977724075
1782812215688352800,8.248352783203124,0.0005570147768594325,0.0008177906274795532,-0.000626113498583436
1782812215708436700,8.268436767578125,-0.00011696520959958434,0.0003729965537786484,-0.0006277044303715229
1782812215728520000,8.28852001953125,0.000425861740950495,0.00051847193390131,0.0008579597342759371
1782812215748601900,8.308601806640626,0.0015317890793085098,-0.0008579099085181952,-0.0015420147683471441
1782812215768684800,8.328684814453124,-0.0007163925911299884,0.0008308361284434795,-0.00019718101248145103
1782812215788767700,8.348767822265625,-0.0009210400748997927,0.0009632231667637825,-0.00013143150135874748
1782812215808850000,8.368849853515625,0.00015187769895419478,-0.0008758667390793562,0.0004750235239043832
1782812215828932900,8.388932861328126,0.00023778609465807676,0.0002675591967999935,-0.0012029767967760563
1782812215849016000,8.40901611328125,-0.0002240957401227206,0.0007742098532617092,0.0003758436068892479
1782812215869098000,8.429097900390625,-0.0010123433312401175,0.0016223462298512459,0.0006200841162353754
1782812215889181000,8.449180908203125,-0.00005171055090613663,0.0005368385463953018,0.00018233945593237877
1782812215909264000,8.469263916015626,-0.000960876583121717,0.0008214609697461128,-0.0014335454907268286
1782812215929345800,8.489345703125,-0.0011713391868397593,0.0005759564228355885,0.0004230476915836334
1782812215949428700,8.5094287109375,0.0014324167277663946,0.001070857048034668,0.001960276160389185
1782812215969511700,8.52951171875,0.0008577252156101167,0.0006392309442162514,0.0011396999470889568
1782812215989593900,8.54959375,-0.0008343245135620236,0.0000729970633983612,0.0008944215951487422
1782812216009677000,8.569677001953124,-0.0001961744565051049,0.0008746120147407055,-0.0007652919739484787
1782812216029760000,8.589760009765625,0.0005302366334944963,0.0012056254781782627,-0.00030756648629903793
1782812216049842000,8.609842041015625,0.00033135683042928576,-0.0001948266290128231,0.0011560845887288451
1782812216069924900,8.6299248046875,0.0015136421425268054,-0.00042535993270576,-0.00010816613212227821
1782812216090007800,8.6500078125,-0.000725479272659868,-0.0005124290473759174,0.0014613450039178133
1782812216110090800,8.6700908203125,-0.00037904042983427644,0.000017710495740175247,0.0014956402592360973
1782812216130172700,8.690172607421875,0.0013152796309441328,-0.0011249992530792952,-0.0011478499509394169
1782812216150255900,8.710255859375,-0.0003385469317436218,0.0005781659856438637,-0.0001993384212255478
1782812216170338800,8.7303388671875,-0.0014074437785893679,-0.0003766370937228203,0.001277887262403965
1782812216190421000,8.7504208984375,0.0011618274729698896,-0.0009437028784304857,-0.00042954180389642715
1782812216210504000,8.77050390625,-0.00014209310756996274,-0.000006108079105615616,0.00001957057975232601
1782812216230587000,8.7905869140625,-0.0006272478494793177,0.00015451107174158096,0.0008269413374364376
1782812216250668800,8.810668701171876,0.00047780119348317385,0.00003682449460029602,0.0017207011114805937
1782812216270752000,8.830751953125,-0.00009990463149733841,-0.0007909419946372509,0.0007422524504363537
1782812216290835000,8.8508349609375,-0.0005905171856284142,0.0006493018008768559,0.0006215538596734405
1782812216310916900,8.870916748046875,0.00010901712812483311,0.0012722257524728775,-0.0007442582864314318
1782812216330999800,8.890999755859376,0.0008960308041423559,-0.0003961191978305578,0.00018969434313476086
1782812216351082800,8.911082763671875,-0.0003455876430962235,-0.0006247141864150763,0.0006340015679597855
1782812216371164700,8.93116455078125,-0.00021917295816820115,-0.0006650111172348261,0.001226577558554709
1782812216391248000,8.951247802734375,-0.0005034210626035929,0.0006969892419874668,-0.0008066811133176088
1782812216411330800,8.971330810546876,-0.00010560490773059428,0.0008774641901254654,0.0003601633943617344
1782812216431413000,8.9914130859375,0.0003999237669631839,-0.0009501359891146421,0.00001593097113072872
1782812216451496000,9.011495849609375,-0.00016457671881653368,0.0005863630212843418,0.0006097484147176147
1782812216471579000,9.031578857421875,-0.0016130092553794384,0.0007528667338192463,0.00029187172185629606
1782812216491660800,9.051660888671876,-0.00016905032680369914,0.0005162893794476986,-0.0004546050913631916
1782812216511743700,9.07174365234375,0.0002918443933594972,0.00018328288570046425,-0.0010374162811785936
1782812216531826700,9.09182666015625,0.0008343285880982876,0.0003930763341486454,-0.0018833109643310308
1782812216551908600,9.11190869140625,-0.00044614289072342217,-0.00028109108097851276,-0.0008824453689157963
1782812216571991800,9.13199169921875,-0.0008578437846153975,0.0001741279847919941,0.0006423690356314182
1782812216592074800,9.15207470703125,0.00040676022763364017,0.00031674327328801155,0.0016371700912714005
1782812216612157000,9.172156982421875,0.0011103127617388964,0.0004205689765512943,-0.001380095724016428
1782812216632239900,9.192239990234375,-0.0002745885867625475,-0.000584073830395937,0.00014960160478949547
1782812216652322800,9.21232275390625,-0.0013078462798148394,-0.0017454801127314568,-0.0013734458480030298
1782812216672406000,9.232406005859374,-0.0008977578836493194,-0.0005125235766172409,0.0008823367534205317
1782812216692488000,9.252488037109375,0.0011680666357278824,0.000023751985281705856,-0.0001847811508923769
1782812216712570000,9.272570068359375,-0.00022684442228637636,0.0010501188226044178,0.0006284710252657533
1782812216732653000,9.292653076171876,0.00030681502539664507,0.0017900257371366024,0.0006967171793803573
1782812216752735200,9.3127353515625,-0.0018105978379026055,0.000943492166697979,0.0008950550109148026
1782812216772818200,9.332818115234375,-0.0000383094884455204,0.0002298993058502674,0.00031895784195512533
1782812216792900000,9.352900146484375,0.0008474316564388573,-0.00033310241997241974,0.00031692348420619965
1782812216812983000,9.372983154296875,0.0006789637263864279,-0.0001703319139778614,0.000314745819196105
1782812216833066000,9.39306591796875,-0.0012852519284933805,0.0006273519247770309,-0.00025065476074814796
1782812216853148000,9.41314794921875,-0.0011716588633134961,-0.00016845203936100006,-0.00032605696469545364
1782812216873231000,9.433231201171875,0.00006318330997601151,0.0007570032030344009,0.00075543113052845
1782812216893314000,9.45331396484375,-0.0006162173231132329,0.0007110703736543655,-0.00023910892195999622
1782812216913396200,9.473396240234376,0.0006853005033917725,-0.00011319248005747795,-0.00022847880609333515
1782812216933479200,9.493479248046874,0.00020541856065392494,0.0015410352498292923,0.0013390479143708944
1782812216953562000,9.51356201171875,-0.0010321114677935839,-0.0015025767497718334,0.0010833048727363348
1782812216973645000,9.53364501953125,-0.0002405238337814808,0.00008958112448453903,0.001374243525788188
1782812216993727200,9.553727294921876,-0.0012727235443890095,0.0007808147929608822,-0.00016714446246623993
1782812217013810200,9.57381005859375,-0.00102113070897758,-0.0005941295530647039,0.00036525074392557144
1782812217033893000,9.59389306640625,-0.001150790834799409,-0.0003087993245571852,0.0010808060178533196
1782812217053975000,9.61397509765625,-0.0011899571400135756,0.0002722027711570263,0.000849704840220511
1782812217074058000,9.63405810546875,0.00011511630145832896,0.0005639004521071911,0.000009232200682163239
1782812217094141000,9.654140869140624,-0.0001489214482717216,-0.00014471495524048805,0.0007209315663203597
1782812217114223000,9.67422314453125,-0.000192714185686782,-0.0006384700536727905,-0.0006924055051058531
1782812217134306300,9.694306396484375,0.00036385850398801267,-0.0003481591120362282,0.0010780375450849533
1782812217154389200,9.71438916015625,-0.0012552444823086262,-0.000212410232052207,0.0007260603597387671
1782812217174471200,9.73447119140625,-0.00023743390920571983,0.0019164583645761013,-0.0010168994776904583
1782812217194554000,9.75455419921875,0.0004454485606402159,0.0017200950533151627,-0.0017868531867861748
1782812217214637000,9.774636962890625,0.0006453848327510059,-0.000055470969527959824,0.0009009510977193713
1782812217234719000,9.794718994140625,-0.00003726832801476121,-0.0004664065781980753,0.0013784621842205524
1782812217254802000,9.814802001953124,0.0002768751292023808,-0.0010238124523311853,0.0011932442430406809
1782812217274885000,9.834885009765625,0.0006304868729785085,0.0011185845360159874,0.00019498169422149658
1782812217294967300,9.85496728515625,-0.000764283468015492,-0.00031112926080822945,-0.0008487780578434467
1782812217315050200,9.87505029296875,0.00018000201089307666,-0.00009264471009373665,-0.00038251234218478203
1782812217335133200,9.89513330078125,-0.0012040178989991546,0.001142820343375206,0.00013854121789336205
1782812217355215000,9.915215087890624,0.0005424472619779408,0.00027422793209552765,-0.0006423171143978834
1782812217375298000,9.935298095703125,-0.0009077158174477518,0.000857966486364603,-0.00030933693051338196
1782812217395381000,9.955381103515625,-0.00039922978612594306,0.0005107219330966473,0.00041062256786972284
1782812217415464200,9.975464111328124,0.0009970725513994694,0.00025646062567830086,0.0018288188148289919
1782812217435546000,9.995546142578124,0.0000027313653845340014,-0.0003039226867258549,-0.00001274910755455494
1782812217455629000,10.015629150390625,-0.0002718970354180783,0.00007050391286611557,-0.001147126778960228
1782812217475712000,10.0357119140625,-0.0010937164770439267,-0.00012236647307872772,0.0008544260635972023
1782812217495794200,10.055794189453126,-0.0006719881203025579,0.00028850650414824486,0.0005398177308961749
1782812217515877000,10.075877197265624,-0.0020164716988801956,0.0003351341001689434,-0.00035152072086930275
1782812217535960300,10.095960205078125,0.0015514721162617207,-0.00071128667332232,-0.0017597030382603407
1782812217556042200,10.116042236328125,-0.002201594179496169,0.001135911326855421,-0.00005494477227330208
1782812217576125200,10.136125244140626,-0.005979300010949373,0.14708289504051208,0.045721665024757385
1782812217596208000,10.1562080078125,0.0012963498011231422,-0.053682200610637665,-0.018908390775322914
1782812217616290000,10.1762900390625,0.0009560768958181143,0.00016886601224541664,-0.0007005864754319191
