time,seconds_elapsed,z,y,x
1782812346482103300,0.060103271484375,-0.0001862144999904558,-0.00041398312896490097,0.0006191538413986564
1782812346502186200,0.080186279296875,-0.0013277459656819701,-0.0011654244735836983,0.00010293722152709961
1782812346522268400,0.100268310546875,0.0002799859212245792,-0.00004065781831741333,-0.0006665410473942757
1782812346542351400,0.120351318359375,-0.0011682509211823344,-0.0001924852840602398,-0.00017647258937358856
1782812346562433300,0.140433349609375,0.0011117537505924702,0.0018687513656914234,-0.0005612506065517664
1782812346582516200,0.16051611328125,0.00017725669022183865,0.0012634783051908016,-0.00008487189188599586
1782812346602598100,0.18059814453125,0.0012795488582924008,0.0008675022982060909,0.0006215834291651845
1782812346622681300,0.200681396484375,0.0006540686008520424,0.0010954965837299824,-0.0004899045452475548
1782812346642763300,0.22076318359375,-0.0010837878799065948,0.0006378921680152416,0.0009024743922054768
1782812346662846200,0.24084619140625,-0.00013441758346743882,0.0010397457517683506,-0.00006279721856117249
1782812346682928400,0.260928466796875,-0.0005104287411086261,0.001065709162503481,0.00041035725735127926
1782812346703011300,0.28101123046875,0.0009709640871733427,0.0007232767529785633,-0.0003514967393130064
1782812346723093200,0.30109326171875,0.000015809942851774395,0.0006945636123418808,-0.0008643572218716145
1782812346743176200,0.32117626953125,0.001232024049386382,0.000013277865946292877,-0.0002464582212269306
1782812346763258000,0.341258056640625,-0.0001287799095734954,-0.0006583852227777243,0.0017758156172931194
1782812346783341300,0.36134130859375,-0.001946141361258924,0.0005326932296156883,0.0003727714065462351
1782812346803423500,0.381423583984375,0.00034972350113093853,0.000678015872836113,0.0004797321744263172
1782812346823506400,0.40150634765625,0.000091784808319062,-0.00015349918976426125,-0.0016582794487476349
1782812346843589000,0.421589111328125,0.0010190041502937675,-0.000354961259290576,0.0003920639865100384
1782812346863671000,0.441671142578125,0.0012263919925317168,-0.0007522148080170155,-0.00204611849039793
1782812346883754200,0.461754150390625,-0.0005149879725649953,-0.0011270383838564157,-0.000653756083920598
1782812346903836200,0.481836181640625,0.0009977301815524697,-0.0000016726553440093994,0.0005847364664077759
1782812346923919000,0.501919189453125,-0.001744804554618895,-0.000299693550914526,-0.000019683735445141792
1782812346944001300,0.522001220703125,0.0007637987146154046,0.000787174329161644,0.0007387794321402907
1782812346964084200,0.542084228515625,-0.0004888714756816626,-0.00011799624189734459,-0.0012414420489221811
1782812346984166100,0.562166259765625,-0.00016306855832226574,0.00012876838445663452,0.0011977428803220391
1782812347004249000,0.5822490234375,-0.0003234081668779254,0.0011485102586448193,-0.00006176461465656757
1782812347024331000,0.6023310546875,0.00023892080935183913,0.001237744465470314,0.00004770350642502308
1782812347044414000,0.6224140625,0.001015780959278345,0.00017614848911762238,0.000544977723620832
1782812347064496000,0.64249609375,0.001026976853609085,-0.00031339190900325775,-0.0009721305686980486
1782812347084579300,0.662579345703125,0.0019991230219602585,0.0010531563311815262,-0.00001281173899769783
1782812347104661200,0.6826611328125,0.0009462714660912752,-0.00028218445368111134,0.000060552963986992836
1782812347124744200,0.702744140625,-0.00019374715338926762,0.00009275972843170166,0.00034303776919841766
1782812347144826000,0.722826171875,0.0003271351451985538,-0.00011335732415318489,0.001836900832131505
1782812347164909000,0.742908935546875,0.00033735984470695257,-0.0006572823040187359,-0.0005245131906121969
1782812347184991200,0.7629912109375,0.0010979948565363884,-0.0004053714219480753,0.0010603195987641811
1782812347205074200,0.78307421875,0.001102376845665276,-0.0008287543896585703,-0.0011027450673282146
1782812347225156000,0.803156005859375,-0.0010156293865293264,-0.0009169233962893486,-0.00017919461242854595
1782812347245239300,0.8232392578125,0.0005286183441057801,0.000902076717466116,-0.0010084814857691526
1782812347265322200,0.843322265625,-0.00044334959238767624,0.0005338680930435658,0.0004137324867770076
1782812347285404200,0.863404052734375,0.000001667722244746983,-0.0008592880330979824,0.0004908276023343205
1782812347305487000,0.883487060546875,0.0007191513432189822,0.0012863078154623508,0.00002330704592168331
1782812347325569300,0.9035693359375,-0.000338438869221136,0.0006423229351639748,-0.0018767144065350294
1782812347345652200,0.92365234375,-0.0003802176797762513,-0.0004376806318759918,-0.0011723891366273165
1782812347365734100,0.943734130859375,0.0010221570264548063,-0.0010408451780676842,-0.0011086384765803814
1782812347385817000,0.963817138671875,0.00032906391425058246,-0.0001820405013859272,0.0006982916966080666
1782812347405899000,0.98389892578125,-0.0007734161335974932,-0.001195681281387806,0.000585840200074017
1782812347425982200,1.003982177734375,0.0009882500162348151,0.0010383552871644497,-0.0014552115462720394
1782812347446064000,1.024064208984375,-0.0007897197501733899,-0.00008405093103647232,-0.0005356031470000744
1782812347466147000,1.04414697265625,-0.0004560485831461847,-0.0004675814416259527,0.0010337355779483914
1782812347486229200,1.064229248046875,-0.00025153026217594743,0.0011183414608240128,0.00004828139208257198
1782812347506312200,1.084312255859375,-0.00040561152854934335,0.0005188509821891785,0.0009068712824955583
1782812347526394000,1.10439404296875,0.0005371675360947847,-0.0009147045202553272,0.0005294542061164975
1782812347546477000,1.12447705078125,0.000477063178550452,-0.0002988413907587528,-0.0005421750247478485
1782812347566559000,1.14455908203125,-0.0016030865954235196,-0.000712626613676548,0.0014021899551153183
1782812347586642000,1.164641845703125,0.0003883022873196751,0.00048491358757019043,0.0016389477532356977
1782812347606724000,1.18472412109375,-0.00037205495755188167,0.0000033471733331680298,0.0009029826615005732
1782812347626807300,1.204807373046875,-0.0012938525760546327,0.001630021259188652,-0.0002300648484379053
1782812347646889200,1.22488916015625,-0.00031262633274309337,0.002161423210054636,-0.0003617985639721155
1782812347666972200,1.24497216796875,-0.00024885646416805685,0.00007093977183103561,-0.00026721833273768425
1782812347687054000,1.26505419921875,0.0005109549965709448,-0.0019702152349054813,-0.0002476074732840061
1782812347707137000,1.285136962890625,0.00018402273417450488,-0.0000733337365090847,0.001276814378798008
1782812347727219200,1.30521923828125,0.00021171994740143418,-0.00009222887456417084,-0.0008251722902059555
1782812347747302100,1.32530224609375,0.0005646671634167433,0.00016078585758805275,-0.0009248708374798298
1782812347767385300,1.34538525390625,0.0011853330070152879,0.00003527523949742317,0.0003193130251020193
1782812347787467300,1.36546728515625,0.00011226898641325533,0.000652361661195755,0.00027174665592610836
1782812347807549200,1.385549072265625,0.00008778669871389866,0.0006437688134610653,0.0006691152229905128
1782812347827632000,1.405632080078125,-0.0014603316085413098,-0.00020757131278514862,0.0000981893390417099
1782812347847715300,1.42571533203125,0.0007423920324072242,0.0007296381518244743,-0.00017877062782645226
1782812347867797200,1.44579736328125,0.0004307931521907449,0.0012421216815710068,0.00032379827462136745
1782812347887880400,1.46588037109375,-0.00010734255192801356,0.0004212534986436367,-0.0009493515826761723
1782812347907962400,1.48596240234375,-0.000678897020407021,-0.0011048272717744112,-0.000593074131757021
1782812347928045300,1.50604541015625,-0.0002926423621829599,-0.0004852155689150095,0.0003491907846182585
1782812347948127200,1.526127197265625,-0.0009883558377623558,0.0007939022034406662,0.000020553357899188995
1782812347968210200,1.546210205078125,0.0008612842066213489,0.0003924206830561161,0.00045027979649603367
1782812347988292000,1.5662919921875,-0.00043648292194120586,0.00044694123789668083,0.00013241893611848354
1782812348008375000,1.586375,0.00006824961747042835,0.0009569250978529453,-0.0005552424117922783
1782812348028457200,1.606457275390625,0.0008415986085310578,0.0008795205503702164,0.0004889605334028602
1782812348048540400,1.62654052734375,0.00035555436625145376,-0.0003639250062406063,-0.0004385574720799923
1782812348068622300,1.646622314453125,0.00016877954476512969,0.0012096334248781204,-0.0005352317821234465
1782812348088705300,1.666705322265625,0.000028725480660796165,0.0007469728589057922,-0.00044734752736985683
1782812348108787200,1.686787109375,-0.0004667156608775258,-0.00007646670565009117,0.0006810289341956377
1782812348128870100,1.7068701171875,0.0013377491850405931,0.0006723836995661259,0.0006186277605593204
1782812348148952300,1.726952392578125,0.0005604902980849147,-0.00001920107752084732,-0.0011223913170397282
1782812348169035300,1.74703515625,-0.00020729508833028376,-0.00029762135818600655,0.0013157045468688011
1782812348189117200,1.7671171875,-0.0002569576899986714,-0.0002502638380974531,0.0005199821898713708
1782812348209200400,1.787200439453125,0.0003668568388093263,-0.0002740384079515934,-0.00012591015547513962
1782812348229282300,1.8072822265625,0.00040612687007524073,0.0013421461917459965,-0.0002088523469865322
1782812348249365200,1.827365234375,-0.0017586692702025175,0.00032438570633530617,-0.0001323132310062647
1782812348269447400,1.847447509765625,-0.0003416124964132905,-0.0004901695065200329,-0.0008104331791400909
1782812348289530400,1.8675302734375,-0.0003834060044027865,0.0007377048023045063,-0.001742825610563159
1782812348309612300,1.8876123046875,0.00005471898475661874,-0.0009384122677147388,-0.0003952158149331808
1782812348329695200,1.9076953125,-0.001335533452220261,-0.0007122890092432499,-0.0005334303714334965
1782812348349777200,1.927777099609375,-0.0005173507379367948,-0.0002486023586243391,0.0011544448789209127
1782812348369860000,1.947860107421875,-0.00084282411262393,-0.001212194561958313,0.0012874267995357513
1782812348389942300,1.9679423828125,0.00034340855199843645,-0.0000496213324368,-0.0010575063060969114
1782812348410025500,1.988025390625,0.0016567722195759416,0.0010900837369263172,-0.0003941191826015711
1782812348430107400,2.008107421875,0.0014150063507258892,-0.001293399604037404,0.0019237154629081488
1782812348450190300,2.0281904296875,0.0006775918882340193,-0.00003210175782442093,-0.0005978201515972614
1782812348470273300,2.048273193359375,-0.00094801583327353,-0.00012946128845214844,0.0012447952758520842
1782812348490355200,2.068355224609375,0.00023182346194516867,0.0002949293702840805,-0.0007662721909582615
1782812348510438100,2.088438232421875,0.001185674569569528,-0.000294859753921628,-0.0009321197867393494
1782812348530520300,2.108520263671875,0.0006404588930308819,0.0000933641567826271,-0.0014638719148933887
1782812348550603300,2.128603271484375,-0.0006956539582461119,0.0007799374870955944,0.0003529256209731102
1782812348570685200,2.148685302734375,-0.0009031713707372546,-0.0007479882333427668,0.0005682146875187755
1782812348590768400,2.168768310546875,0.0007599363452754915,-0.0002825330011546612,-0.0008081414271146059
1782812348610850300,2.188850341796875,0.0009715694468468428,0.0007186750881373882,-0.0001521280501037836
1782812348630933200,2.208933349609375,-0.0005322133074514568,-0.0007105462718755007,-0.00043823011219501495
1782812348651015200,2.22901513671875,0.00009622513607610017,-0.0011285343207418919,-0.0006168580148369074
1782812348671098000,2.24909814453125,-0.00044019275810569525,0.00053774518892169,0.0011962377466261387
1782812348691180300,2.26918017578125,0.002064370783045888,0.0008517461828887463,0.000013228040188550949
1782812348711263200,2.28926318359375,0.0009792129276320338,0.0012236014008522034,-0.001372152240946889
1782812348731345200,2.30934521484375,-0.0013439982431009412,0.00031116651371121407,-0.0001856982707977295
1782812348751428400,2.329428466796875,0.000375244184397161,0.00013544922694563866,-0.00003318558447062969
1782812348771510300,2.34951025390625,0.0005777042824774981,0.0002736547030508518,-0.0008372759912163019
1782812348791593200,2.36959326171875,0.000024708730052225292,-0.000004658009856939316,0.0008142709266394377
1782812348811675400,2.38967529296875,0.00007119670044630766,0.0009476044215261936,0.0016934492159634829
1782812348831758300,2.40975830078125,0.00022182625252753496,0.0005605919286608696,-0.0000019120052456855774
1782812348851840300,2.42984033203125,0.0015443668235093355,-0.00019249320030212402,-0.00009732367470860481
1782812348871923200,2.449923095703125,-0.0004951083101332188,0.00034336093813180923,0.0008178316056728363
1782812348892005000,2.470005126953125,0.0001783813931979239,0.0015421519055962563,-0.000016535399481654167
1782812348912088300,2.49008837890625,-0.0005189749062992632,0.000019146129488945007,0.00006151152774691582
1782812348932170500,2.51017041015625,-0.00030771896126680076,-0.0003378314431756735,-0.0006731245666742325
1782812348952253400,2.53025341796875,0.0007364515331573784,0.00005403254181146622,0.00022466899827122688
1782812348972335400,2.55033544921875,0.0008856013882905245,0.0008181347511708736,0.0009923266479745507
1782812348992418300,2.570418212890625,-0.00009560259059071541,0.0017996332608163357,-0.0011482443660497665
1782812349012500200,2.590500244140625,0.0004960924852639437,-0.000695045106112957,-0.0001587667502462864
1782812349032583200,2.610583251953125,-0.00033229286782443523,-0.0010827388614416122,0.0009778726380318403
1782812349052665300,2.630665283203125,-0.00037228234577924013,-0.0011862090323120356,-0.0009446754120290279
1782812349072748500,2.65074853515625,-0.0006789641920477152,-0.0001797778531908989,-0.00016712048090994358
1782812349092830500,2.67083056640625,0.0006846386822871864,-0.0005173042882233858,-0.00042674620635807514
1782812349112913400,2.690913330078125,-0.00016253977082669735,-0.0009974411223083735,-0.00022291741333901882
1782812349132996400,2.710996337890625,0.002044172026216984,-0.000570633914321661,-0.00043727573938667774
1782812349153078300,2.731078369140625,-0.0006346026202663779,-0.0010118535719811916,-0.000251363730058074
1782812349173161200,2.7511611328125,-0.0000063221086747944355,0.00026089465245604515,-0.0029544769786298275
1782812349193243400,2.771243408203125,0.000809438235592097,0.00034899264574050903,-0.0003298975061625242
1782812349213326300,2.791326416015625,-0.0006666518747806549,0.00048568611964583397,-0.00164045300334692
1782812349233408300,2.811408203125,-0.00025945494417101145,-0.00017389561980962753,-0.0002880347892642021
1782812349253491500,2.831491455078125,-0.00021740839292760938,0.0013703801669180393,-0.00006515928544104099
1782812349273573400,2.851573486328125,-0.000569793744944036,0.00023502809926867485,-0.00012086983770132065
1782812349293656300,2.87165625,0.0013311957009136677,-0.00006036786362528801,-0.0008350748103111982
1782812349313738200,2.89173828125,-0.0007216054946184158,0.001123692374676466,-0.0001834365539252758
1782812349333821200,2.9118212890625,0.0008092406787909567,-0.0002452039625495672,-0.00045371754094958305
1782812349353903400,2.9319033203125,0.0009078928269445896,-0.00026766094379127026,-0.00012828828766942024
1782812349373986300,2.951986328125,-0.00038852414581924677,-0.0002848480362445116,0.0006250888109207153
1782812349394068200,2.972068115234375,0.0007578263175673783,0.00010818662121891975,0.0005368854617699981
1782812349414151200,2.992151123046875,-0.0012571064289659262,-0.0006155702285468578,-0.0005127107724547386
1782812349434233000,3.012233154296875,0.0006129767862148583,0.0006394395604729652,0.000412421184591949
1782812349454316300,3.03231640625,-0.0014655782142654061,0.0005027321167290211,0.0007230377523228526
1782812349474398500,3.0523984375,-0.0013504812959581614,0.0003789118491113186,0.0006515167187899351
1782812349494481400,3.0724814453125,0.0010300124995410442,0.0002350728027522564,0.00036400556564331055
1782812349514563300,3.092563232421875,-0.0020202449522912502,-0.0003028293140232563,0.0006304866401478648
1782812349534646300,3.112646240234375,0.0006660731742158532,0.001881809439510107,0.000027475645765662193
1782812349554728200,3.132728271484375,-0.00018939038272947073,0.00044298917055130005,-0.000886494992300868
1782812349574811100,3.15281103515625,-0.0016303027514368296,0.0001256382092833519,0.0002701166085898876
1782812349594893300,3.172893310546875,-0.0007898418698459864,-0.00031880498863756657,-0.000026059802621603012
1782812349614976500,3.1929765625,-0.0029086307622492313,-0.0007158305961638689,-0.0002434214111417532
1782812349635058400,3.213058349609375,0.0004258998669683933,-0.00037058116868138313,0.00019809859804809093
1782812349655141400,3.233141357421875,-0.000753441359847784,0.0013935388997197151,0.0009418278932571411
1782812349675223300,3.253223388671875,0.0017815455794334412,0.0007106494158506393,-0.0014868676662445068
1782812349695306200,3.27330615234375,-0.0010505106765776873,-0.0008171966765075922,-0.0009948844090104103
1782812349715389200,3.29338916015625,0.00036646926309913397,-0.00009099161252379417,0.0009425252210348845
1782812349735471400,3.313471435546875,0.001285809325054288,-0.0012960645835846663,-0.00004608510062098503
1782812349755554300,3.33355419921875,-0.0005087164463475347,-0.0005918527022004128,0.0010664744768291712
1782812349775636200,3.35363623046875,0.0012814716901630163,-0.00000413600355386734,0.00008420879021286964
1782812349795719400,3.373719482421875,-0.0016452918061986566,0.0006856690160930157,0.00016449647955596447
1782812349815801300,3.39380126953125,-0.0006466777995228767,0.0009382017888128757,-0.00034804223105311394
1782812349835883800,3.4138837890625,0.0004914164310321212,-0.0004921203944832087,-0.0006920599844306707
1782812349855966000,3.433966064453125,-0.0011121408315375447,0.0012991540133953094,0.0013138712383806705
1782812349876049000,3.454048828125,0.0020084010902792215,0.0007893699221313,0.0011988724581897259
1782812349896130800,3.474130859375,0.0005780638311989605,0.0003764107823371887,-0.0007127893622964621
1782812349916214000,3.494214111328125,0.0013699360424652696,0.00022378889843821526,-0.0006514056585729122
1782812349936296000,3.5142958984375,-0.0001367864024359733,0.00022875424474477768,-0.00038803531788289547
1782812349956379000,3.53437890625,-0.000791985890828073,-0.0002522051800042391,0.0009920038282871246
1782812349976461000,3.5544609375,0.001006988575682044,-0.000733130844309926,0.0008250210667029023
1782812349996544000,3.5745439453125,-0.001454221666790545,-0.00006082747131586075,-0.0008020270615816116
1782812350016626000,3.5946259765625,0.00028726697200909257,0.000985266175121069,-0.00006780470721423626
1782812350036708900,3.614708984375,0.00022943496878724545,0.0013764016330242157,0.0007231298368424177
1782812350056790800,3.634790771484375,0.0008994891541078687,-0.00010270904749631882,0.00012100464664399624
1782812350076873700,3.654873779296875,-0.00008283856732305139,-0.0005756646860390902,0.0006366369780153036
1782812350096956000,3.674955810546875,0.0005739618791267276,-0.0009616829920560122,-0.000054458389058709145
1782812350117038800,3.695038818359375,0.0003436525003053248,-0.0008680925238877535,0.0005929329199716449
1782812350137121000,3.71512109375,-0.0005845738342031837,-0.000023595523089170456,-0.0006749418098479509
1782812350157204000,3.735203857421875,-0.0000010389776434749365,-0.0019635383505374193,-0.0000821002759039402
1782812350177286000,3.755285888671875,0.000770447077229619,0.0009809290058910847,0.0004174081841483712
1782812350197368800,3.775368896484375,-0.0009995398577302694,0.0005008820444345474,0.00047097308561205864
1782812350217451800,3.79545166015625,-0.0001299016730627045,-0.0008266817312687635,-0.0004941504448652267
1782812350237533700,3.81553369140625,-0.0020284503698349,-0.0001494348980486393,0.0009398444090038538
1782812350257617000,3.835616943359375,0.0009769594762474298,0.0005227723158895969,-0.0004345609340816736
1782812350277699000,3.855698974609375,0.00092380988644436,-0.00027834181673824787,-0.0010568019933998585
1782812350297782000,3.875781982421875,-0.0016482090577483177,0.00003466801717877388,-0.0018851389177143574
1782812350317864000,3.895864013671875,0.0022932500578463078,-0.0005104674492031336,-0.0009731240570545197
1782812350337947000,3.91594677734375,-0.00015343489940278232,0.0011350996792316437,-0.00045219482854008675
1782812350358028800,3.93602880859375,0.0005460929241962731,-0.0013860776089131832,0.0007273724768310785
1782812350378111700,3.95611181640625,0.0010354757541790605,0.0008260728791356087,0.00010342034511268139
1782812350398194000,3.97619384765625,0.0010107835987582803,-0.0008097693789750338,-0.0006106183864176273
1782812350418276900,3.99627685546875,0.00048605792107991874,0.0006134919822216034,-0.0007567000575363636
1782812350438358800,4.01635888671875,-0.0001657530083321035,0.00019669020548462868,0.0010907473042607307
1782812350458442000,4.03644189453125,0.001751223113387823,0.00034239329397678375,-0.00006993790157139301
1782812350478524000,4.05652392578125,-0.0006348674651235342,0.00029449956491589546,0.0002846578136086464
1782812350498606800,4.07660693359375,-0.00022427992371376604,-0.0005590638611465693,-0.0009263176470994949
1782812350518689000,4.09668896484375,-0.0009266147972084582,0.000960479024797678,0.0011596609838306904
1782812350538772000,4.11677197265625,0.0003530631656758487,0.00044478103518486023,0.00011454010382294655
1782812350558854000,4.13685400390625,0.0008590912912040949,0.0014227940700948238,0.0008056123042479157
1782812350578936800,4.156936767578125,-0.0009255876648239791,0.0013744416646659374,-0.0015338915400207043
1782812350599018800,4.177018798828125,-0.00011703805648721755,0.000511223915964365,-0.0005209024529904127
1782812350619102000,4.19710205078125,-0.0011513279750943184,-0.0017748575191944838,0.0004895372549071908
1782812350639184000,4.217183837890625,0.0012197444448247552,0.0007891543209552765,0.0007182992994785309
1782812350659267000,4.23726708984375,-0.0012118809390813112,0.00002969987690448761,-0.0007583864498883486
1782812350679349000,4.257348876953125,0.00009641548967920244,-0.0013923377264291048,0.0008757462492212653
1782812350699432000,4.277431884765625,0.000624028267338872,-0.00019706599414348602,-0.0004244660958647728
1782812350719515000,4.297514892578125,-0.0010614837519824505,-0.0010319650173187256,-0.0007956435438245535
1782812350739596800,4.3175966796875,0.0003053901018574834,-0.0002467930316925049,0.00008622952736914158
1782812350759679700,4.3376796875,-0.0021227991674095392,0.0010264110751450062,-0.00089475535787642
1782812350779761700,4.35776171875,-0.00007780283340252936,0.0002696397714316845,0.0005719730397686362
1782812350799844900,4.377844970703125,0.0007683928124606609,0.0005133338272571564,-0.0007793167605996132
1782812350819927000,4.397927001953125,-0.0017673783004283905,-0.0005641062743961811,0.0006271974416449666
1782812350840009700,4.418009765625,-0.0002280185290146619,-0.0018355539068579674,-0.00028695492073893547
1782812350860091600,4.438091552734375,-0.0022599822841584682,0.00030972715467214584,0.00029518106020987034
1782812350880174600,4.458174560546875,-0.001328859245404601,-0.0004740168806165457,0.0005741663044318557
1782812350900256500,4.478256591796875,0.00042904558358713984,0.0007784808985888958,0.0013638959499076009
1782812350920339700,4.498339599609375,0.0021682120859622955,0.00026884302496910095,-0.00018816138617694378
1782812350940421600,4.518421630859375,0.0005386837874539196,0.0016230461187660694,-0.0001941942609846592
1782812350960504600,4.538504638671875,0.0011607222259044647,0.0007746517658233643,-0.0001383526250720024
1782812350980586500,4.55858642578125,0.00009866710752248764,0.00028747785836458206,-0.0007980712689459324
1782812351000669700,4.578669677734375,0.00040615760372020304,0.0005813837051391602,-0.000864135567098856
1782812351020751600,4.598751708984375,-0.00029037793865427375,0.001196480356156826,-0.0009653365705162287
1782812351040834600,4.61883447265625,-0.0008630975498817861,0.0010840436443686485,0.0010871851118281484
1782812351060916700,4.638916748046875,0.0003008792700711638,-0.0006932227406650782,0.0008322172798216343
1782812351080999700,4.658999755859375,0.0005754781304858625,0.0008391779847443104,0.0017277661245316267
1782812351101081600,4.67908154296875,0.0008590585784986615,-0.0005858894437551498,-0.0011815580073744059
1782812351121164500,4.69916455078125,0.0010875191073864698,-0.00020772824063897133,0.0003064258489757776
1782812351141247700,4.719247802734375,0.0000903732143342495,0.00023451494053006172,0.00019061239436268806
1782812351161329700,4.73932958984375,-0.0011694843415170908,-0.00012313853949308395,0.0008362196385860443
1782812351181412600,4.75941259765625,0.0002795507316477597,0.0010561714880168438,0.000047704437747597694
1782812351201494800,4.779494873046875,-0.0013007347006350756,-0.000086979940533638,0.0010380102321505547
1782812351221577700,4.79957763671875,0.0008928455063141882,0.0002810969017446041,0.0006741810357198119
1782812351241659600,4.81965966796875,-0.0009320407989434898,0.0008566752076148987,0.0012767588486894965
1782812351261742600,4.83974267578125,-0.0008814987377263606,-0.00034844037145376205,-0.0013144416734576225
1782812351281824500,4.859824462890625,0.0012527020880952477,0.0011125365272164345,0.000978738651610911
1782812351301907500,4.879907470703125,0.0008102352148853242,0.000050473958253860474,0.00033518741838634014
1782812351321989600,4.89998974609375,-0.0007719102432020009,-0.0004900747444480658,0.0007696682587265968
1782812351342072800,4.92007275390625,0.0010162462713196874,-0.00038280547596514225,0.00018860562704503536
1782812351362154800,4.94015478515625,0.0002139547432307154,0.0006247139535844326,0.00018573086708784103
1782812351382237700,4.96023779296875,-0.00008889360469765961,-0.0007803500629961491,0.0013992879539728165
1782812351402319600,4.980319580078125,0.0005642563919536769,-0.0002971154171973467,-0.00047179777175188065
1782812351422402600,5.000402587890625,0.0007085871184244752,0.0007601138204336166,-0.0011192697566002607
1782812351442484700,5.020484619140625,0.000010033021681010723,-0.0004494267050176859,-0.0009312783367931843
1782812351462567700,5.040567626953125,-0.0005598139250651002,0.0002724630758166313,0.0010390895185992122
1782812351482649600,5.060649658203125,0.0002743588120210916,0.0003558690659701824,0.00043207663111388683
1782812351502732800,5.08073291015625,-0.00021965248743072152,0.0002779802307486534,0.0006856280378997326
1782812351522814700,5.100814697265625,0.0013154787011444569,-0.00013021565973758698,0.0002509171608835459
1782812351542897700,5.120897705078125,0.0009557526791468263,0.00028742244467139244,0.00016319286078214645
1782812351562979600,5.1409794921875,-0.00048465828876942396,-0.0010522520169615746,0.0005444196285679936
1782812351583062500,5.1610625,-0.0005869555752724409,-0.0003985192161053419,0.00134571292437613
1782812351603145500,5.1811455078125,-0.00016013861750252545,-0.00009200721979141235,0.000055150361731648445
1782812351623227600,5.2012275390625,-0.00046303938142955303,-0.000018948689103126526,0.0011951262131333351
1782812351643310600,5.221310546875,0.0009414919186383486,0.0010026227682828903,0.00004858686588704586
1782812351663392500,5.241392578125,-0.0000643932435195893,0.0008295699954032898,0.0013167157303541899
1782812351683475700,5.261475830078125,0.0002638185687828809,0.00016351556405425072,-0.00020300899632275105
1782812351703557600,5.2815576171875,0.0006630018469877541,0.0007894802838563919,0.00044999411329627037
1782812351723640600,5.301640625,-0.0016223371494561434,-0.00015596253797411919,-0.0009248633868992329
1782812351743722800,5.32172265625,-0.00043395147076807916,-0.0008811317384243011,-0.0009025626350194216
1782812351763804700,5.3418046875,0.00006649925489909947,-0.0007227992173284292,-0.0008737749885767698
1782812351783887600,5.3618876953125,-0.0012377675157040358,0.0013093436136841774,-0.0015102417673915625
1782812351803969500,5.381969482421875,-0.0007318907300941646,-0.0008758455514907837,0.0012954158009961247
1782812351824052500,5.402052490234375,0.00011635496048256755,0.0014976239763200283,0.000032261479645967484
1782812351844135700,5.4221357421875,0.00045302038779482245,0.0003278413787484169,0.00027329870499670506
1782812351864218600,5.442218505859375,0.0007877591415308416,-0.00016839895397424698,0.0008658207952976227
1782812351884300800,5.46230078125,-0.0008802504744380713,0.000238731037825346,0.0011733944993466139
1782812351904383700,5.4823837890625,-0.00043692850158549845,0.0017815781757235527,0.0014450866729021072
1782812351924465700,5.502465576171875,0.00018288474529981613,-0.00008586421608924866,0.0013707687612622976
1782812351944548900,5.522548828125,0.0010747972410172224,0.00032732123509049416,-0.0008738175965845585
1782812351964631800,5.5426318359375,0.00066427793353796,0.00007845601066946983,0.00039107236079871655
1782812351984713700,5.562713623046875,0.0007500542560592294,0.002122933976352215,0.0007188160670921206
1782812352004796700,5.582796630859375,-0.0005272003472782671,-0.0011321387719362974,-0.00033116014674305916
1782812352024878800,5.60287890625,-0.0004394661809783429,0.000676225870847702,-0.0005783347878605127
1782812352044961800,5.6229619140625,0.0009121287148445845,0.0007952135056257248,0.0006492673419415951
1782812352065043700,5.643043701171875,-0.0005188793875277042,0.0007349355146288872,0.0009318746160715818
1782812352085127000,5.663126953125,0.0008259533206000924,0.0013152328319847584,0.0005115000531077385
1782812352105209900,5.6832099609375,0.00020123363356105983,-0.001482881372794509,-0.000023396220058202744
1782812352125291800,5.703291748046875,-0.00019664806313812733,0.0018815170042216778,-0.0006139539182186127
1782812352145374700,5.723374755859375,-0.000028848531655967236,-0.00048116943798959255,0.0004671084461733699
1782812352165457000,5.743456787109375,-0.0002796929329633713,-0.0011157379485666752,-0.0000428131315857172
1782812352185539800,5.763539794921875,0.00014339431072585285,-0.0003335261717438698,-0.00020830309949815273
1782812352205621800,5.783621826171875,0.0006404052837751806,-0.00040851510129868984,0.00031313556246459484
1782812352225704700,5.80370458984375,0.0002627063076943159,0.00002581952139735222,-0.0006448477506637573
1782812352245786600,5.82378662109375,0.0020798672921955585,0.0008749831467866898,0.0001910149585455656
1782812352265869800,5.843869873046875,0.0010935153113678098,-0.0006269472651183605,-0.0010688954498618841
1782812352285951700,5.86395166015625,-0.00016573944594711065,0.00007650349289178848,-0.00004217773675918579
1782812352306034700,5.88403466796875,-0.00014368133270181715,0.00014677410945296288,0.0001963877584785223
1782812352326116900,5.904116943359375,-0.0011336517054587603,-0.0007780555170029402,-0.0007484171073883772
1782812352346199800,5.92419970703125,0.0001590643951203674,-0.0003465644549578428,0.00016402476467192173
1782812352366282800,5.94428271484375,0.001048369100317359,0.00012623099610209465,-0.00017034471966326237
1782812352386364700,5.96436474609375,-0.0002189402439398691,0.00002464093267917633,0.0002607656642794609
1782812352406447600,5.984447509765625,0.00016007368685677648,-0.00004425179213285446,0.0005945003358647227
1782812352426529500,6.004529541015625,0.000028888607630506158,-0.0008646242786198854,-0.0017705517821013927
1782812352446612700,6.02461279296875,0.0005539111443795264,0.00124382134526968,-0.0005733310244977474
1782812352466695000,6.04469482421875,0.00002362445229664445,-0.000019074883311986923,0.0006159385666251183
1782812352486777900,6.06477783203125,0.00016924450756050646,0.0010885512456297874,-0.002164066070690751
1782812352506859800,6.08485986328125,-0.0006257910281419754,0.0005197683349251747,0.0004985082196071744
1782812352526942700,6.104942626953125,-0.000002475018845871091,-0.00014935433864593506,0.000945177860558033
1782812352547024600,6.125024658203125,-0.00026921668904833496,-0.0008095221128314734,0.0010107929119840264
1782812352567107600,6.145107666015625,-0.000345148699125275,0.000796701293438673,-0.0005051637999713421
1782812352587189800,6.165189697265625,0.0017719484167173505,0.00019894959405064583,0.0010424490319564939
1782812352607273000,6.18527294921875,0.00043541815830394626,0.0007856213487684727,-0.00017804442904889584
1782812352627355000,6.20535498046875,-0.00022625754354521632,-0.0005086148157715797,-0.00024498580023646355
1782812352647437800,6.225437744140625,-0.0005120219429954886,0.0007253331132233143,-0.00046703102998435497
1782812352667519700,6.245519775390625,-0.001325841061770916,-0.0009558682795614004,0.00023841741494834423
1782812352687602700,6.265602783203125,-0.0002409104781690985,-0.000539382454007864,-0.0006828862242400646
1782812352707685600,6.285685546875,-0.0008940419647842646,0.00010064896196126938,-0.0015017553232610226
1782812352727767800,6.305767822265625,-0.0006983930943533778,-0.0004140313249081373,0.00001865648664534092
1782812352747850800,6.325850830078125,-0.000295141275273636,0.0011716061271727085,-0.00009332969784736633
1782812352767932700,6.3459326171875,-0.0011021227110177279,0.0002594967372715473,-0.00035200989805161953
1782812352788015900,6.366015869140625,0.0004986815620213747,-0.0002685792278498411,0.00026815885212272406
1782812352808097800,6.386097900390625,-0.0004492180305533111,-0.0010780764278024435,-0.0002730742562562227
1782812352828180700,6.4061806640625,0.0017748838290572166,-0.00034031295217573643,-0.0011951324995607138
1782812352848263000,6.426262939453125,0.0004364837077446282,-0.0006091310642659664,-0.0027397596277296543
1782812352868345900,6.446345947265625,0.00023951100592967123,0.00045743631199002266,0.00027396506629884243
1782812352888427800,6.466427734375,-0.00033075339160859585,0.000023975037038326263,-0.0004768115468323231
1782812352908510700,6.4865107421875,-0.00008639514271635562,0.0005948366597294807,-0.0015027397312223911
1782812352928592600,6.506592529296875,0.0012180288322269917,-0.00034767528995871544,-0.00008110469207167625
1782812352948675800,6.52667578125,-0.0002543114242143929,0.0008847322314977646,-0.000328446039929986
1782812352968757800,6.5467578125,0.002262401394546032,-0.00012151012197136879,0.0003137974999845028
1782812352988840700,6.5668408203125,-0.0004337723075877875,0.00038118520751595497,-0.0000452469103038311
1782812353008923600,6.586923583984375,0.0008232769323512912,0.00001637125387787819,-0.0002549428027123213
1782812353029005800,6.607005859375,-0.0002005348796956241,-0.0004021099302917719,-0.000044108135625720024
1782812353049088800,6.6270888671875,-0.0005105750169605017,0.00020904000848531723,0.001282809185795486
1782812353069170700,6.647170654296875,0.0007859319448471069,0.0002017212100327015,-0.00007661338895559311
1782812353089253600,6.667253662109375,-0.0006502249743789434,-0.00043237931095063686,-0.0006699773948639631
1782812353109335600,6.68733544921875,0.000100818055216223,0.000429272186011076,0.000180073082447052
1782812353129418800,6.707418701171875,0.0006447091582231224,0.0006073731929063797,-0.0011595794931054115
1782812353149501000,6.7275009765625,0.0011210322845727205,0.0010300981812179089,-0.000021787360310554504
1782812353169583900,6.747583984375,-0.0008869156590662897,-0.0001410413533449173,-0.0005891742184758186
1782812353189665800,6.767665771484375,0.0007776579586789012,0.0008736415766179562,-0.001628631493076682
1782812353209748700,6.787748779296875,0.00183538265991956,0.0001768176443874836,0.0004504967946559191
1782812353229830700,6.80783056640625,-0.0008531625499017537,-0.00005819229409098625,-0.0009329323656857014
1782812353249913600,6.82791357421875,-0.00010303149610990658,-0.000033108051866292953,-0.001364679541438818
1782812353269995800,6.847995849609375,0.0001179501268779859,-0.0008169945795089006,-0.0005983756855130196
1782812353290079000,6.868078857421875,-0.0005335708847269416,0.0008120723068714142,-0.00023623532615602016
1782812353310162000,6.888161865234375,0.00014314083091448992,0.0008672424592077732,0.0010256964014843106
1782812353330243800,6.908243896484375,-0.0007615071954205632,0.0012211152352392673,-0.00041781901381909847
1782812353350326800,6.928326904296875,0.00045176694402471185,-0.0007236285600811243,-0.00029394542798399925
1782812353370408700,6.94840869140625,0.0003974847786594182,-0.00007571931928396225,0.0000677832867950201
1782812353390491600,6.96849169921875,-0.0002890800533350557,0.0008941562846302986,-0.00042615970596671104
1782812353410573800,6.98857373046875,0.002030470408499241,0.00016422709450125694,0.0013702658470720053
1782812353430656800,7.00865673828125,-0.0008774150628596544,0.000032582785934209824,-0.002870139665901661
1782812353450738700,7.02873876953125,-0.00035526134888641536,0.001453207340091467,0.0010799928568303585
1782812353470822000,7.04882177734375,-0.000016963957023108378,0.000023609492927789688,0.0003259832737967372
1782812353490903800,7.06890380859375,-0.00028571567963808775,0.0007724231109023094,-0.0006165239028632641
1782812353510986800,7.08898681640625,-0.000663513143081218,-0.0005300790071487427,0.000011726049706339836
1782812353531069000,7.10906884765625,0.00026520888786762953,-0.00020823325030505657,-0.001408192329108715
1782812353551151900,7.12915185546875,0.0014861507806926966,-0.000038798898458480835,-0.0003019312862306833
1782812353571233800,7.14923388671875,-0.00007874490256654099,-0.0006758978124707937,-0.0008847801946103573
1782812353591316700,7.169316650390625,0.0011555871460586786,0.00017779599875211716,0.0012950175441801548
1782812353611398700,7.189398681640625,0.0012973630800843239,-0.00009623682126402855,0.000583490589633584
1782812353631481600,7.209481689453125,0.0003872360393870622,0.0012354995124042034,-0.0005420364905148745
1782812353651564800,7.229564697265625,0.0010602636029943824,0.00019075907766819,0.00011902651749551296
1782812353671646700,7.249646728515625,-0.000024710818252060562,0.00002920348197221756,0.00035938015207648277
1782812353691729700,7.269729736328125,0.0022559412755072117,0.000042215920984745026,-0.0009045477490872145
1782812353711811800,7.289811767578125,0.0004895183374173939,0.0005955556407570839,0.0008313457947224379
1782812353731894800,7.309894775390625,0.0018828691681846976,0.0009322008118033409,-0.0005244244821369648
1782812353751976700,7.329976806640625,-0.00019892094132956117,-0.0007836672011762857,-0.001216232543811202
1782812353772059600,7.3500595703125,0.00037803041050210595,0.0005803187377750874,-0.0006613219156861305
1782812353792141600,7.3701416015625,0.0013990019215270877,0.0007190117612481117,0.0004816654836758971
1782812353812224800,7.390224853515625,-0.0005163358291611075,0.00042652012780308723,0.00004683481529355049
1782812353832306200,7.41030615234375,0.0005184075562283397,-0.00007798825390636921,0.00041978375520557165
1782812353852389000,7.43038916015625,-0.0006589009426534176,0.00010179122909903526,0.00031934049911797047
1782812353872471000,7.450470947265625,0.0012703060638159513,0.00015535717830061913,-0.0003323052078485489
1782812353892554200,7.47055419921875,0.0012575688306242228,-0.00023541576229035854,-0.0001136914361268282
1782812353912636200,7.49063623046875,0.00011035295756300911,0.0005933665670454502,-0.0011474802158772945
1782812353932719000,7.510718994140625,0.0013739842688664794,0.00024348031729459763,0.0005629154620692134
1782812353952802300,7.53080224609375,-0.00000885924691829132,-0.00036080367863178253,-0.0008365341927856207
1782812353972884200,7.55088427734375,-0.0007687931647524238,-0.00016078120097517967,-0.0003104086499661207
1782812353992967200,7.57096728515625,0.000760723662097007,0.00011736387386918068,-0.0005533404182642698
1782812354013049000,7.591049072265625,-0.0015338171506300569,0.00043424079194664955,-0.00019277981482446194
1782812354033132000,7.611132080078125,-0.0003365103038959205,0.0006800065748393536,0.00046306755393743515
1782812354053214000,7.6312138671875,-0.0009199910564348102,-0.00010087410919368267,-0.0003937587607651949
1782812354073297200,7.651297119140625,-0.0005788117414340377,0.0009608310647308826,0.0008232697146013379
1782812354093379300,7.67137939453125,0.0006801947019994259,0.0008267182856798172,-0.00008576596155762672
1782812354113462300,7.691462158203125,-0.0006486863130703568,-0.00017797178588807583,-0.0005440732929855585
1782812354133544200,7.711544189453125,0.00018158656894229352,-0.001268492080271244,-0.0014954006765037775
1782812354153627100,7.731627197265625,-0.0004579265078064054,-0.001156361773610115,0.00003897864371538162
1782812354173709000,7.751708984375,0.00040668301517143846,0.0003154200967401266,0.00026751402765512466
1782812354193792000,7.7717919921875,-0.0008881028043106198,0.0008554591331630945,0.0003266865387558937
1782812354213874200,7.791874267578125,0.001388432690873742,-0.00020016147755086422,-0.0002683305647224188
1782812354233957400,7.811957275390625,0.0008205703925341368,0.0005911998450756073,0.0005230531096458435
1782812354254039300,7.832039306640625,0.00010419146565254778,0.001346580684185028,-0.0007059327326714993
1782812354274122200,7.852122314453125,-0.00025203413679264486,0.0006108353845775127,-0.00006329407915472984
1782812354294205200,7.872205078125,-0.00041702709859237075,-0.001403923612087965,0.0015486282063648105
1782812354314287000,7.892287109375,-0.0015325576532632113,0.000014408491551876068,0.00038950215093791485
1782812354334370000,7.9123701171875,0.00153326615691185,0.0006695177871733904,0.0007993481121957302
1782812354354452200,7.9324521484375,0.0005533276707865298,0.0005744390655308962,0.00018681632354855537
1782812354374535200,7.95253515625,0.0015622263308614492,-0.00009578652679920197,0.00004307646304368973
1782812354394617000,7.9726171875,-0.0010219361865893006,0.00029592541977763176,-0.00016202684491872787
1782812354414700300,7.9927001953125,-0.0002610089723020792,0.0016303826123476028,0.00034299353137612343
1782812354434782200,8.0127822265625,0.0000014269608072936535,0.000843734247609973,0.0008087933529168367
1782812354454865200,8.032865234375,0.0009232033626176417,0.0006792438216507435,0.000011597760021686554
1782812354474947300,8.052947265625,-0.0002934902731794864,-0.00020952243357896805,0.0003252779133617878
1782812354495030300,8.0730302734375,-0.0010677063837647438,0.0008773468434810638,-0.0003830338828265667
1782812354515112200,8.0931123046875,-0.001909337705001235,0.0005121019203215837,-0.0007463458459824324
1782812354535195100,8.113195068359374,-0.0003951670660171658,-0.0001976662315428257,0.0010167621076107025
1782812354555277000,8.133277099609375,0.0008918821113184094,0.0002444703131914139,-0.00027862261049449444
1782812354575360300,8.1533603515625,0.0004742177843581885,-0.0005396243650466204,-0.00014448422007262707
1782812354595442200,8.173442138671875,0.00012608233373612165,-0.0005930690094828606,-0.0013376022689044476
1782812354615525000,8.193525146484374,0.0015737514477223158,-0.0006285030394792557,-0.0003864432219415903
1782812354635608300,8.2136083984375,-0.0007347401697188616,0.00009441189467906952,-0.00040417746640741825
1782812354655690200,8.233690185546875,-0.00042977428529411554,0.0008209440857172012,0.0012768281158059835
1782812354675773200,8.253773193359375,0.0003105041105300188,0.00008363137021660805,0.00003941520117223263
1782812354695855000,8.273855224609376,-0.0007642052369192243,0.0018304451368749142,-0.000246202340349555
1782812354715938000,8.29393798828125,-0.0005267842207103968,0.00016615400090813637,0.0009983013151213527
1782812354736020000,8.31402001953125,0.00007970334263518453,0.0008006682619452477,-0.0008491338230669498
1782812354756103200,8.334103271484375,0.0006057728314772248,-0.0012651800643652678,0.0014789795968681574
1782812354776185300,8.354185302734376,0.00020294892601668835,-0.00009468104690313339,0.00017010187730193138
1782812354796268300,8.374268310546874,-0.0008865332929417491,0.0006973645649850368,-0.0007843964267522097
1782812354816350200,8.39435009765625,-0.0010950725991278887,-0.0005185843911021948,0.0010979740181937814
1782812354836433400,8.414433349609375,-0.00008349615382030606,-0.0005143445450812578,0.0019414620473980904
1782812354856515300,8.434515380859375,-0.000921025057323277,0.000539037398993969,0.0007533433381468058
1782812354876598300,8.454598388671876,-0.0004651200142689049,0.0007130596786737442,0.0015607943059876561
1782812354896680400,8.474680419921874,-0.00012731704919133335,0.00020677875727415085,-0.0007857019081711769
1782812354916763400,8.494763427734375,-0.00007835426367819309,0.0005493215285241604,0.00039568101055920124
1782812354936845300,8.51484521484375,-0.0006018170388415456,-0.00023656548000872135,0.00014308630488812923
1782812354956928500,8.534928466796876,-0.00035551685141399503,-0.0007762436289340258,0.0011643007164821029
1782812354977010400,8.555010498046874,-0.0005865618586540222,-0.0005841515958309174,0.00031661964021623135
1782812354997093400,8.57509326171875,-0.0015337150543928146,0.00030484143644571304,-0.00031043984927237034
1782812355017175600,8.595175537109375,-0.0014099956024438143,0.000835660845041275,0.00041661434806883335
1782812355037258500,8.615258544921875,0.0006875647231936455,0.002081517595797777,0.0013821752509102225
1782812355057341400,8.635341552734374,-0.000026799360057339072,0.00015952205285429955,0.0011030808091163635
1782812355077423400,8.65542333984375,0.00044079776853322983,-0.00026291864924132824,-0.00011236686259508133
1782812355097506300,8.67550634765625,0.00014869653386995196,-0.00029165158048272133,0.00011177640408277512
1782812355117588200,8.695588134765625,-0.000841794942971319,0.000017398502677679062,0.002575031016021967
1782812355137671400,8.71567138671875,-0.0011532662902027369,0.00020611844956874847,-0.00010959897190332413
1782812355157753300,8.73575341796875,0.00007344860932789743,0.0004549301229417324,0.0003951180260628462
1782812355177836500,8.75583642578125,0.0002627949870657176,0.0007625739090144634,-0.001935760723426938
1782812355197918500,8.77591845703125,-0.00023431985755451024,0.00007629208266735077,0.0013262280263006687
1782812355218001400,8.79600146484375,0.001089292811229825,-0.0002580250147730112,0.0005926910089328885
1782812355238083300,8.816083251953126,-0.00009867674089036882,0.00048419833183288574,-0.0002837998326867819
1782812355258166300,8.836166259765625,-0.0013396410504356027,0.0019542425870895386,0.00014946749433875084
1782812355278248200,8.856248291015625,-0.00022608600556850433,0.0013866396620869637,0.0004116748459637165
1782812355298331400,8.876331298828125,0.0008755867602303624,0.0008192677050828934,0.000369231216609478
1782812355318413600,8.89641357421875,0.0015099464217200875,0.0007219621911644936,-0.0009594329167157412
1782812355338496500,8.91649658203125,0.00256484211422503,-0.0003684151452034712,0.0006212545558810234
1782812355358578400,8.936578369140625,0.000518356915563345,0.0002840133383870125,-0.00008244113996624947
1782812355378661400,8.956661376953125,0.00017565560119692236,0.0003085765056312084,0.0008498972747474909
1782812355398743300,8.976743408203125,0.00014262340846471488,-0.0010892432183027267,-0.0007715236861258745
1782812355418826200,8.996826171875,-0.0007106850389391184,0.00103811826556921,0.0009384851437062025
1782812355438909200,9.0169091796875,-0.0007530407747253776,-0.00003740750253200531,0.0004611317999660969
1782812355458991400,9.036991455078125,-0.00039125795592553914,0.00020174449309706688,-0.0006013473030179739
1782812355479074600,9.057074462890625,-0.0001872386346803978,0.0013341172598302364,-0.00017256173305213451
1782812355499156500,9.077156494140626,0.0015117928851395845,-0.0001415081787854433,-0.0005088548641651869
1782812355519239400,9.097239501953124,0.0012231048895046115,0.0022140205837786198,0.0006834710948169231
1782812355539321300,9.1173212890625,0.0005856394418515265,0.0012029963545501232,-0.000321787316352129
1782812355559404300,9.137404296875,0.0006572649581357837,0.0008594081737101078,-0.0001403437927365303
1782812355579486500,9.157486572265626,0.0008155612740665674,0.0000030333176255226135,0.0016338942805305123
1782812355599569400,9.1775693359375,0.0010420880280435085,0.001084927935153246,-0.00004427949897944927
1782812355619651300,9.1976513671875,0.00006702778046019375,-0.00022573559544980526,-0.0007875787559896708
1782812355639734500,9.217734619140625,0.0003948081866838038,0.001418097410351038,0.0009530265815556049
1782812355659816400,9.23781640625,-0.0006460340227931738,0.0006479043513536453,0.0014791680732741952
1782812355679899400,9.2578994140625,0.00043177956831641495,-0.001002863747999072,0.0005279654869809747
1782812355699982300,9.277982421875,0.0006634646560996771,0.0016830549575388432,-0.00012899097055196762
1782812355720064500,9.298064453125,0.00018278678180649877,0.0003810473717749119,0.00041506881825625896
1782812355740147500,9.3181474609375,-0.0002731331915128976,-0.0000686917919665575,0.0011495306389406323
1782812355760229400,9.3382294921875,0.0005517739336937666,0.0001807170920073986,0.002154802903532982
1782812355780311300,9.358311279296874,0.0004444243386387825,0.0015130764804780483,0.0012107845395803452
1782812355800394200,9.378394287109375,-0.0007998051587492228,-0.000020481180399656296,0.0008425511186942458
1782812355820476400,9.398476318359375,-0.0005525390151888132,0.0013456223532557487,-0.0005651246756315231
1782812355840559000,9.41855908203125,0.0018679113127291203,-0.0009421517606824636,-0.0006213388405740261
1782812355860641000,9.43864111328125,0.00019574351608753204,0.0008354200981557369,-0.0006478449795395136
1782812355880724000,9.458723876953124,0.0005347891710698605,-0.00010879803448915482,0.00014814338646829128
1782812355900807000,9.478806884765625,-0.0006682160310447216,0.0016084779053926468,0.00039217062294483185
1782812355920888800,9.498888916015625,0.0010087639093399048,-0.00004580896347761154,-0.000576329417526722
1782812355940971800,9.5189716796875,-0.000012927892385050654,-0.00056444201618433,0.00006037997081875801
1782812355961054000,9.539053955078124,-0.00043790339259430766,0.0012876284308731556,-0.0005383710376918316
1782812355981137200,9.55913720703125,0.00021035620011389256,-0.00008001457899808884,-0.0005293432623147964
1782812356001219000,9.579218994140625,0.0004741487791761756,0.00011107698082923889,-0.0009376618545502424
1782812356021302000,9.599302001953125,0.00004088776768185198,0.0005349055863916874,0.000410547130741179
1782812356041384000,9.619384033203126,0.0002681290206965059,0.0006986921653151512,-0.0008587674237787724
1782812356061467000,9.639466796875,0.0003258561191614717,-0.0005408884026110172,0.0005471190670505166
1782812356081549800,9.6595498046875,0.000498722365591675,0.0009522503241896629,-0.000058378325775265694
1782812356101632800,9.6796328125,-0.00043804230517707765,0.00016489345580339432,-0.000516566215083003
1782812356121715000,9.69971484375,-0.0005696086445823312,-0.0004734948743134737,-0.0006300020031630993
1782812356141798100,9.719798095703124,-0.0011519487015902996,0.000837571918964386,0.000852808472700417
1782812356161880000,9.739880126953125,0.00016438649618066847,0.0006572031415998936,0.0005080029368400574
1782812356181963000,9.759962890625,-0.00006356684025377035,0.00036349473521113396,0.0006724217673763633
1782812356202045000,9.780044921875,-0.0012127922382205725,-0.00024368520826101303,0.0005461587570607662
1782812356222127900,9.8001279296875,-0.0014318653848022223,-0.00008182553574442863,-0.0011342002544552088
1782812356242209800,9.820209716796874,-0.0011597874108701944,-0.0006914003752171993,0.00140829524025321
1782812356262292700,9.840292724609375,0.0005201589083299041,0.000946536660194397,0.0014114156365394592
1782812356282376000,9.8603759765625,0.0009906727354973555,0.00012769969180226326,0.0005387605633586645
1782812356302458000,9.8804580078125,-0.0001757339050527662,0.0012056096456944942,-0.0005796959158033133
1782812356322541000,9.900541015625,-0.0006243496900424361,-0.0011041872203350067,0.00001897546462714672
1782812356342623000,9.920623046875,-0.0005353175802156329,0.00023052841424942017,-0.0001536805648356676
1782812356362706000,9.940705810546875,-0.0006313279736787081,-0.0002078681718558073,-0.0007632409688085318
1782812356382787800,9.960787841796876,-0.0003634618769865483,0.000512084923684597,-0.000355233671143651
1782812356402870800,9.980870849609374,-0.0005249304231256247,-0.00031931279227137566,-0.00017696921713650227
1782812356422953700,10.00095361328125,0.00014852016465738416,0.0005687703378498554,0.0007467055693268776
1782812356443036000,10.021035888671875,0.00016029842663556337,0.0010624146088957787,0.0007016909075900912
1782812356463119000,10.041119140625,0.0006153896101750433,0.00045300740748643875,-0.0013871605042368174
1782812356483201000,10.061200927734374,0.0009139222675003111,-0.0006897910498082638,0.00012490153312683105
1782812356503284000,10.081283935546875,0.00020872749155387282,-0.0004929949063807726,-0.00002970779314637184
1782812356523366000,10.101365966796875,0.0008907687733881176,-0.0012312079779803753,-0.002232365543022752
1782812356543448800,10.12144873046875,0.00030488724587485194,0.0015692156739532948,-0.0008500553667545319
1782812356563531800,10.14153173828125,0.00013692962238565087,0.05180008336901665,0.01700250245630741
1782812356583614000,10.161614013671874,-0.002878126921132207,0.024126965552568436,0.0070041632279753685
1782812356603697000,10.18169677734375,0.0018663655500859022,-0.033376358449459076,-0.009250566363334656
1782812356623778800,10.20177880859375,-0.0012410215567797422,-0.015431320294737816,-0.004941247869282961
1782812356643862000,10.221862060546876,-0.0021424912847578526,0.0011555193923413754,0.000209514400921762
