time,seconds_elapsed,z,y,x
1782813948120943000,0.090943115234375,-0.0006213482702150941,0.018090298399329185,-0.024679524824023247
1782813948141025000,0.11102490234375,-0.0011386408004909754,0.009168656542897224,-0.024002008140087128
1782813948161107000,0.13110693359375,-0.0015556828584522009,-0.022608531638979912,0.03863777965307236
1782813948181189000,0.151189208984375,0.001500223414041102,0.014458547346293926,-0.030357085168361664
1782813948201271000,0.17127099609375,0.0006564719951711595,-0.003016391769051552,0.00019058049656450748
1782813948221353000,0.19135302734375,-0.00042219681199640036,-0.009669985622167587,0.01722092367708683
1782813948241435100,0.21143505859375,0.0005952904466539621,0.013263768516480923,-0.019181285053491592
1782813948261518000,0.23151806640625,-0.00026633066590875387,-0.005230906885117292,0.01256180927157402
1782813948281600000,0.25160009765625,-0.0011978779220953584,-0.0007237615063786507,0.0007566125132143497
1782813948301682000,0.271681884765625,-0.0000232551246881485,0.007688764948397875,-0.004397018812596798
1782813948321764000,0.29176416015625,0.0005626935744658113,-0.0038815797306597233,0.012930168770253658
1782813948341846000,0.311845947265625,0.000601957319304347,0.004154609516263008,-0.0036637329030781984
1782813948361928000,0.331927978515625,0.001000534975901246,0.006964772939682007,0.005521209444850683
1782813948382009900,0.352009765625,0.00014669934171251953,-0.007131616584956646,0.001750641269609332
1782813948402092000,0.372092041015625,0.0009893323294818401,0.01354215107858181,0.003109229728579521
1782813948422174000,0.392174072265625,0.002897851401939988,-0.004443376325070858,0.006523285526782274
1782813948442256000,0.412255859375,0.0007321338052861392,0.0033272691071033478,-0.0025343005545437336
1782813948462338000,0.432338134765625,-0.00115636654663831,-0.0024512805975973606,-0.004336059559136629
1782813948482420000,0.452419921875,-0.0000389214837923646,-0.0027144979685544968,-0.000532220583409071
1782813948502503000,0.4725029296875,-0.001173215452581644,0.002457444556057453,-0.0012827126774936914
1782813948522584800,0.492584716796875,-0.0006452250527217984,-0.005295236594974995,-0.0014074528589844704
1782813948542667000,0.5126669921875,0.000462668074760586,-0.0023267813958227634,-0.0008804581593722105
1782813948562749000,0.5327490234375,-0.0002543169248383492,-0.0007586488500237465,-0.0026554292999207973
1782813948582830800,0.552830810546875,0.00015998241724446416,-0.0017735313158482313,-0.0035244568716734648
1782813948602913000,0.5729130859375,0.000528022414073348,-0.0012786313891410828,-0.0012600815389305353
1782813948622995000,0.592994873046875,-0.0008976737735792994,0.0012356024235486984,-0.0001812274567782879
1782813948643076900,0.613076904296875,-0.0015366887673735619,0.00021719466894865036,-0.0016918713226914406
1782813948663158800,0.63315869140625,0.0019447386730462313,0.00107550248503685,0.0018993032863363624
1782813948683241000,0.653240966796875,-0.0004120846570003778,0.0010390202514827251,-0.0006605584640055895
1782813948703323000,0.673322998046875,-0.0002860583772417158,0.0012017651461064816,0.00197610049508512
1782813948723404800,0.69340478515625,0.001088697579689324,0.0010518413037061691,0.0013447294477373362
1782813948743488000,0.713488037109375,0.0015890784561634064,-0.00027620489709079266,0.0008476085495203733
1782813948763570200,0.733570068359375,-0.00019350492220837623,-0.0013498484622687101,-0.0005663156043738127
1782813948783652000,0.753652099609375,-0.0002947788452729583,-0.0010169020388275385,0.0014717623125761747
1782813948803734000,0.773734130859375,0.0006674306932836771,0.00008280202746391296,0.0004780266899615526
1782813948823816000,0.79381591796875,0.0011021099053323269,-0.0007594595663249493,0.0022114329040050507
1782813948843898000,0.813898193359375,0.0007403256022371352,-0.0005231078248471022,-0.00004145246930420399
1782813948863980000,0.83397998046875,-0.00040520058246329427,-0.001250655623152852,-0.003033948829397559
1782813948884062000,0.85406201171875,0.0004126849235035479,0.00038336263969540596,0.0005344668170437217
1782813948904144100,0.87414404296875,-0.0007927811820991337,-0.004034337121993303,-0.004725238308310509
1782813948924226000,0.89422607421875,0.0007111304439604282,-0.001016018446534872,0.00448555126786232
1782813948944308000,0.914307861328125,0.0005316806491464376,0.0018379944376647472,0.0000016328413039445877
1782813948964390100,0.93439013671875,0.0010618179803714156,-0.001067564357072115,-0.002115807728841901
1782813948984472000,0.95447216796875,0.001028987462632358,0.001108262687921524,0.003910491243004799
1782813949004555000,0.974554931640625,0.00004330434603616595,-0.00007366528734564781,-0.0017169811762869358
1782813949024637000,0.994636962890625,0.00007282604929059744,-0.00013986323028802872,0.0020691361278295517
1782813949044718300,1.01471826171875,-0.0011160355061292648,0.0002544489689171314,-0.0006498640868812799
1782813949064800300,1.03480029296875,-0.0014096829108893871,0.0006294511258602142,-0.00005754665471613407
1782813949084882200,1.054882080078125,-0.0023126723244786263,-0.0010393369011580944,0.001160622457973659
1782813949104964400,1.07496435546875,0.0005977014661766589,0.003739704843610525,0.00030864542350172997
1782813949125046300,1.09504638671875,-0.001544581027701497,-0.0030538272112607956,0.0008646544301882386
1782813949145128200,1.115128173828125,-0.0012740569654852152,0.0020117508247494698,-0.0008188597857952118
1782813949165210400,1.13521044921875,0.0009523456101305783,0.000847949180752039,0.00003601470962166786
1782813949185292300,1.155292236328125,-0.0003417020780034363,-0.0005103587172925472,0.0009601773926988244
1782813949205374200,1.175374267578125,-0.0005191306117922068,0.0018532583490014076,-0.000845686299726367
1782813949225456000,1.1954560546875,0.001016962924040854,-0.0012571443803608418,-0.0002711967099457979
1782813949245539000,1.2155390625,0.0011179851135239005,-0.00021603098139166832,-0.0006073636468499899
1782813949265621200,1.235621337890625,-0.0008247109944932163,-0.00009282957762479782,-0.0015450192149728537
1782813949285703200,1.255703125,-0.0015960864257067442,-0.0005936417728662491,0.0003128540702164173
1782813949305785000,1.27578515625,0.0008073277422226965,0.0013039074838161469,-0.0014366153627634048
1782813949325867300,1.2958671875,-0.0011150663485750556,-0.0013598112855106592,0.0008397568017244339
1782813949345949200,1.31594921875,-0.00173460622318089,-0.0006572187412530184,-0.0006857404951006174
1782813949366031000,1.336031005859375,0.0010419611353427172,-0.0013441580813378096,-0.001887910533696413
1782813949386113300,1.35611328125,0.00006701334496028721,0.00005712546408176422,0.00013946276158094406
1782813949406195200,1.3761953125,0.0006937171565368772,0.000791031401604414,-0.0007029215339571238
1782813949426277000,1.396277099609375,-0.000247133313678205,0.0006822156719863415,0.0009194954764097929
1782813949446359000,1.416359130859375,-0.000668205670081079,0.000709102489054203,-0.0011647588107734919
1782813949466441200,1.436441162109375,0.0000757037487346679,-0.0009146812371909618,0.0007759254658594728
1782813949486523100,1.456523193359375,-0.00018969761731568724,0.0020950734615325928,-0.0011418296489864588
1782813949506605000,1.47660498046875,0.0015613839495927095,0.00005777832120656967,0.00029773847199976444
1782813949526688300,1.496688232421875,-0.0003143601934425533,0.0003512226976454258,-0.00021138601005077362
1782813949546770400,1.5167705078125,-0.0013338360004127026,0.0016755154356360435,0.001347408047877252
1782813949566852400,1.536852294921875,0.00024508958449587226,-0.000005563255399465561,-0.00031958892941474915
1782813949586934300,1.556934326171875,0.00010684283915907145,0.0015585082583129406,-0.0010243901051580906
1782813949607016400,1.577016357421875,0.0004357336147222668,-0.0010702591389417648,0.0024652632419019938
1782813949627098400,1.597098388671875,0.0009714245097711682,0.0007088752463459969,0.00037921173498034477
1782813949647180300,1.61718017578125,-0.0010263901203870773,0.00009407615289092064,-0.0016715608071535826
1782813949667262200,1.63726220703125,0.0013992900494486094,-0.0007975217886269093,-0.000043209176510572433
1782813949687344400,1.657344482421875,0.000027694448363035917,0.0003920062445104122,-0.0030068529304116964
1782813949707426300,1.67742626953125,0.000043924403144046664,-0.00021206913515925407,0.0015689400024712086
1782813949727508200,1.69750830078125,-0.0015599677572026849,0.0007889368571341038,0.0003353219944983721
1782813949747590400,1.71759033203125,0.0011910473695024848,0.0015734387561678886,-0.0017625121399760246
1782813949767672300,1.73767236328125,-0.0003238312783651054,-0.00193302845582366,0.002233909210190177
1782813949787754200,1.757754150390625,-0.00006953931006137282,0.00026506325230002403,-0.00223327218554914
1782813949807836400,1.77783642578125,0.0010852481937035918,-0.0013948220293968916,-0.00004163570702075958
1782813949827919400,1.79791943359375,0.0009245541878044605,-0.0014249333180487156,0.0008889532182365656
1782813949848001300,1.818001220703125,-0.00013040288467891514,0.0002631591632962227,-0.003244435414671898
1782813949868083200,1.838083251953125,0.0003536540025379509,-0.0016693992074579,0.0025719492696225643
1782813949888165000,1.8581650390625,-0.0013821759494021535,0.000720134936273098,0.0000948142260313034
1782813949908247300,1.878247314453125,-0.00023198325652629137,0.00003775162622332573,0.0008607623167335987
1782813949928329200,1.8983291015625,-0.00045715708984062076,-0.0008124012965708971,-0.0014240380842238665
1782813949948411100,1.9184111328125,0.0005095178494229913,-0.0013628285378217697,-0.002448404673486948
1782813949968493300,1.938493408203125,-0.001216086558997631,-0.0011789221316576004,-0.00042302184738218784
1782813949988575200,1.9585751953125,-0.000005501176929101348,0.00038831401616334915,0.0003848513588309288
1782813950008657200,1.9786572265625,-0.00021549424855038524,-0.00034685805439949036,0.0005006334977224469
1782813950028739300,1.9987392578125,0.00009443089948035777,0.0011357706971466541,-0.0010913170408457518
1782813950048822000,2.018822021484375,0.0003727640141732991,-0.0004830583930015564,0.002139287767931819
1782813950068904000,2.038904052734375,0.0024077515117824078,0.0007392410188913345,-0.0022264420986175537
1782813950088985900,2.05898583984375,-0.00042516959365457296,-0.001991417957469821,0.001427479786798358
1782813950109068000,2.079068115234375,-0.0006351970368996263,0.00024266215041279793,0.0007543687243014574
1782813950129150000,2.09914990234375,0.0006614510202780366,0.00021500978618860245,-0.0021851263009011745
1782813950149231900,2.11923193359375,0.0007702635484747589,-0.0003099045716226101,0.001595503999851644
1782813950169313800,2.139313720703125,-0.0009122490882873535,-0.0014429530128836632,0.00007282686419785023
1782813950189396700,2.159396728515625,-0.002124085556715727,0.0006436114199459553,-0.0015012910589575768
1782813950209479000,2.17947900390625,0.0002587308408692479,-0.0023454567417502403,0.0010399349266663194
1782813950229560800,2.199560791015625,-0.002449476160109043,0.0015793303027749062,-0.000007566995918750763
1782813950249642800,2.219642822265625,0.00025603477843105793,-0.0012361113913357258,0.0008299000328406692
1782813950269725000,2.239724853515625,-0.0005129265482537448,0.0011593746021389961,0.0013875104486942291
1782813950289806800,2.259806884765625,-0.00027152226539328694,-0.0008124455343931913,0.00021555437706410885
1782813950309888800,2.279888671875,0.001238043885678053,-0.0007749684154987335,0.0013029114343225956
1782813950329971000,2.299970947265625,-0.000366321241017431,-0.0005522794090211391,-0.0026685430202633142
1782813950350052900,2.320052978515625,0.0022482427302747965,-0.0010426025837659836,0.00010374863632023335
1782813950370134800,2.340134765625,-0.0011357960756868124,0.0005223075859248638,-0.00013162312097847462
1782813950390216700,2.360216796875,-0.0013413643464446068,0.0014284038916230202,0.0005398406647145748
1782813950410299000,2.380298828125,0.0011090475600212812,-0.0008360224310308695,0.0007236084202304482
1782813950430380800,2.400380859375,0.0005056773079559207,0.001096478197723627,-0.00013638543896377087
1782813950450462700,2.420462646484375,-0.0007563255494460464,-0.001710032345727086,0.002017937134951353
1782813950470545000,2.440544921875,0.00019456545123830438,-0.0005175371188670397,0.00034264358691871166
1782813950490626800,2.460626708984375,0.0005600058939307928,0.0010349573567509651,-0.0012310838792473078
1782813950510708700,2.480708740234375,0.00024407103774137795,-0.0005072581116110086,-0.0004843685310333967
1782813950530791000,2.500791015625,-0.0012251953594386578,0.0001352769322693348,-0.0009526058565825224
1782813950550872800,2.520872802734375,-0.0008522127172909677,0.00014112330973148346,-0.0014311824925243855
1782813950570954800,2.540954833984375,0.0002842406101990491,0.0007247007451951504,0.000011899042874574661
1782813950591036700,2.56103662109375,-0.0007864183280616999,0.0006860340945422649,-0.0002873418852686882
1782813950611119900,2.581119873046875,0.0001634022919461131,0.001520534511655569,-0.001423719571903348
1782813950631202000,2.6012021484375,-0.00010285718599334359,-0.0008818735368549824,0.00003954418934881687
1782813950651284000,2.621283935546875,-0.00006620110070798546,-0.00163299310952425,-0.0008783100638538599
1782813950671366000,2.641365966796875,0.0005618104478344321,0.0008883709087967873,-0.001359245041385293
1782813950691448000,2.661447998046875,-0.0011368563864380121,-0.0006965682841837406,0.0007106916746124625
1782813950711530000,2.681530029296875,-0.0004857926396653056,0.00036273105069994926,0.00010774331167340279
1782813950731612000,2.70161181640625,0.00007772541721351445,-0.0003709951415657997,0.001930516678839922
1782813950751694000,2.721694091796875,0.0004505292745307088,-0.0006689876317977905,0.0006091850809752941
1782813950771776000,2.74177587890625,0.0008861512178555131,0.00002772267907857895,-0.000801802845671773
1782813950791858000,2.76185791015625,0.0014107689494267106,0.0005530491471290588,0.0013587974244728684
1782813950811939800,2.78193994140625,0.0007418986642733216,-0.0004135831259191036,0.00030167214572429657
1782813950832022000,2.80202197265625,0.00004218079266138375,-0.00009817350655794144,0.0009032111847773194
1782813950852104000,2.82210400390625,-0.000044964952394366264,-0.0002677761949598789,-0.00021020229905843735
1782813950872185900,2.842185791015625,0.0018490187358111143,0.001203897874802351,-0.0018555650021880865
1782813950892268000,2.86226806640625,0.0006405571475625038,-0.0021314758341759443,0.002343196887522936
1782813950912350000,2.882349853515625,-0.0007179509848356247,0.0008179061114788055,-0.0003340353723615408
1782813950932432000,2.902431884765625,0.0005061932606622577,-0.001302430173382163,-0.0017345217056572437
1782813950952514000,2.92251416015625,0.001874333480373025,-0.00009156297892332077,0.003947914112359285
1782813950972596000,2.942595947265625,-0.0009379127877764404,0.000765080563724041,-0.00233335979282856
1782813950992678000,2.962677978515625,-0.0008629546500742435,-0.0027502502780407667,0.0029222427401691675
1782813951012760800,2.9827607421875,0.000550264841876924,0.0001766369678080082,-0.00271056592464447
1782813951032842800,3.0028427734375,0.0003370955237187445,-0.001791129820048809,0.00035733100958168507
1782813951052925000,3.022925048828125,-0.00006203273369465023,-0.0008059546817094088,0.000560642103664577
1782813951073006800,3.0430068359375,-0.0003580463526304811,0.0011801272630691528,-0.0025850972160696983
1782813951093088800,3.0630888671875,-0.0019096455071121454,-0.0019628778100013733,0.0022199410013854504
1782813951113171000,3.0831708984375,0.00045054429210722446,-0.000004233326762914658,0.000054501229897141457
1782813951133252900,3.1032529296875,-0.00017836947517935187,-0.0005763419903814793,3.8906000554561615e-7
1782813951153334800,3.123334716796875,0.00038075391785241663,-0.0004997830837965012,-0.0002803124953061342
1782813951173417000,3.1434169921875,0.00010800492600537837,0.00005548633635044098,0.0006623476510867476
1782813951193499000,3.163498779296875,0.00034022892941720784,0.0005730222910642624,-0.000029363902285695076
1782813951213580800,3.183580810546875,0.001273757079616189,-0.0020211192313581705,0.0010817504953593016
1782813951233662700,3.203662841796875,-0.0003072030085604638,-0.0005395868793129921,-0.0014414340257644653
1782813951253745000,3.223744873046875,0.00017723333439789712,0.0018155095167458057,-0.0013564983382821083
1782813951273826800,3.243826904296875,0.0003633190062828362,-0.0002530203200876713,0.0010093256132677197
1782813951293908700,3.26390869140625,0.001022184849716723,-0.00010049296543002129,-0.0022404638584703207
1782813951313991000,3.283990966796875,0.0005562618607655168,-0.0013765201438218355,0.0007177909137681127
1782813951334072800,3.30407275390625,-0.00014976257807575166,0.00016644177958369255,0.000008832896128296852
1782813951354154800,3.32415478515625,-0.0010798298753798008,-0.0003912905231118202,-0.0007826143410056829
1782813951374237000,3.34423681640625,0.0017627381021156907,0.0009541749022901058,0.000611658557318151
1782813951394320100,3.364320068359375,-0.0004477066977415234,-0.00020923558622598648,-0.0004753377288579941
1782813951414402000,3.384402099609375,0.0006614488665945828,0.0000625750981271267,0.0011719765607267618
1782813951434484000,3.40448388671875,-0.0010435677831992507,-0.0006773797795176506,-0.00015902495943009853
1782813951454566000,3.42456591796875,-0.0007688209880143404,0.00008436199277639389,-0.0010923149529844522
1782813951474648000,3.44464794921875,0.0004330638621468097,0.000558067113161087,0.0013338931603357196
1782813951494730000,3.46472998046875,-0.000563318666536361,0.0010916008614003658,0.001107031013816595
1782813951514812000,3.48481201171875,0.0002576736151240766,0.001428905874490738,0.00047238089609891176
1782813951534894000,3.50489404296875,0.0016688271425664425,-0.00022594258189201355,-0.00025578239001333714
1782813951554976000,3.52497607421875,0.0007561893435195088,-0.0004695151001214981,-0.0006587828975170851
1782813951575058000,3.545057861328125,0.0011025519343093038,-0.0003762762062251568,0.0002614411059767008
1782813951595140000,3.56514013671875,0.0005021691904403269,-0.00009958213195204735,0.0012318594381213188
1782813951615222000,3.585221923828125,0.000023402622900903225,-0.0001455480232834816,0.0011887724976986647
1782813951635304000,3.605303955078125,0.0008092251373454928,0.0015131193213164806,-0.002067533088847995
1782813951655385900,3.6253857421875,-0.0013161493698135018,-0.0008360138162970543,-0.0016119463834911585
1782813951675468000,3.645468017578125,-0.000900813436601311,-0.0019852234981954098,0.004370476584881544
1782813951695550000,3.665550048828125,-0.0009718104265630245,0.0005410970188677311,-0.00416293740272522
1782813951715631900,3.6856318359375,0.0016007651574909687,-0.001548523548990488,0.003046132158488035
1782813951735714000,3.705714111328125,-0.002015914535149932,-0.0005029076710343361,-0.003761920379474759
1782813951755797000,3.725796875,-0.00019072493887506425,0.00046000583097338676,-0.0023223364260047674
1782813951775879000,3.74587890625,-0.00042454618960618973,-0.001365335425361991,-0.0007803353946655989
1782813951795960800,3.7659609375,0.0004594260244630277,0.0021683326922357082,-0.0005738716572523117
1782813951816043000,3.78604296875,0.00002343181404285133,-0.0018514175899326801,0.0033881468698382378
1782813951836125000,3.806125,-0.0001816264120861888,0.0017261630855500698,-0.0016348029021173716
1782813951856206800,3.826206787109375,0.00040053261909633875,0.0019472548738121986,-0.0008872922044247389
1782813951876288800,3.846288818359375,0.0022708773612976074,-0.0030853920616209507,0.003082563867792487
1782813951896371000,3.866370849609375,-0.0015919842990115285,0.0015619546175003052,-0.002033848315477371
1782813951916452900,3.886452880859375,0.0007126725395210087,-0.0036299098283052444,0.0022493889555335045
1782813951936534800,3.90653466796875,-0.0007641584379598498,0.0004881438799202442,-0.0032623345032334328
1782813951956617000,3.926616943359375,-0.0006518501322716475,-0.0013225143775343895,-0.00034225196577608585
1782813951976699000,3.946698974609375,0.0004094231699127704,-0.0020934855565428734,0.0030768215656280518
1782813951996780800,3.96678076171875,0.00017671301611699164,0.00346972793340683,-0.005268892738968134
1782813952016863000,3.986863037109375,-0.000027413188945502043,-0.0017947889864444733,0.002932761562988162
1782813952036946000,4.00694580078125,0.000007675145752727985,0.0005596294067800045,-0.003362318966537714
1782813952057028000,4.027028076171875,-0.000681733014062047,-0.00041026738472282887,-0.0008751817513257265
1782813952077110000,4.047110107421875,0.0007377739530056715,0.0005453671328723431,0.0014189050998538733
1782813952097192000,4.06719189453125,0.001026794663630426,0.00042631709948182106,-0.0027428865432739258
1782813952117274000,4.087274169921875,0.000015767232980579138,-0.00048626190982759,0.0009089024970307946
1782813952137356000,4.10735595703125,-0.000866853108163923,0.0003278879448771477,-0.001100101973861456
1782813952157438000,4.12743798828125,0.0008256857399828732,0.00009082304313778877,0.0009177273605018854
1782813952177520000,4.14752001953125,-0.0010688311886042356,-0.001202655490487814,0.001867712358944118
1782813952197602000,4.16760205078125,0.0005143884336575866,0.002568998374044895,-0.001375019084662199
1782813952217684200,4.187684326171875,0.0014337393222376704,0.00025346875190734863,0.0002837730571627617
1782813952237766100,4.20776611328125,-0.0006664780084975064,0.00025126803666353226,0.0012808662140741944
1782813952257848300,4.227848388671875,0.0014935744693502784,-0.0008800511714071035,-0.00002974807284772396
1782813952277930200,4.24793017578125,0.0007554974290542305,0.002716577611863613,-0.002036899095401168
1782813952298013200,4.26801318359375,-0.00015716317284386605,-0.004174636211246252,0.004055880941450596
1782813952318095000,4.28809521484375,-0.0005147528718225658,0.0026511792093515396,-0.001968699274584651
1782813952338177300,4.30817724609375,-0.000023842410882934928,-0.0006822352297604084,0.0003645871765911579
1782813952358259200,4.32825927734375,0.000613562180660665,0.000844092108309269,0.0023333013523370028
1782813952378341000,4.348341064453125,-0.000445816433057189,0.0023480975069105625,-0.0021308371797204018
1782813952398423300,4.36842333984375,0.0005163621972315013,-0.000887945992872119,0.0022728731855750084
1782813952418505200,4.388505126953125,-0.0006939012091606855,-0.00037510856054723263,-0.0025193081237375736
1782813952438587100,4.408587158203125,0.00020254860282875597,0.0005504707805812359,-0.00021287798881530762
1782813952458669300,4.42866943359375,-0.0008332139113917947,-0.0020389643032103777,0.001139993779361248
1782813952478751200,4.448751220703125,-0.001425021793693304,-0.00043221237137913704,-0.00059333979152143
1782813952498833200,4.468833251953125,0.00036867300514131784,-0.0018259738571941853,-0.00017069256864488125
1782813952518915000,4.4889150390625,-0.00032538000959903,0.0004109046421945095,-0.0001756502315402031
1782813952538998000,4.508998046875,0.00046923523768782616,0.0008713528513908386,0.0004753806861117482
1782813952559080200,4.529080078125,-0.0002813042956404388,-0.000512539641931653,0.002422953024506569
1782813952579162000,4.549162109375,0.00033197738230228424,0.000057874247431755066,-0.001028359169140458
1782813952599244000,4.569244140625,0.00012562773190438747,-0.0014231691602617502,0.00028370064683258533
1782813952619326200,4.589326171875,0.0000016037665773183107,-0.0027125575579702854,0.0020437065977603197
1782813952639408000,4.609408203125,0.0018215453019365668,0.000929687637835741,-0.0027509662322700024
1782813952659490000,4.629489990234375,-0.000030235765734687448,-0.0012714939657598734,0.0016512093134224415
1782813952679572200,4.649572265625,-0.000534385209903121,-0.00011678226292133331,-0.0003432233352214098
1782813952699654100,4.669654052734375,0.0015276588965207338,-0.00044642318971455097,-0.0002318955957889557
1782813952719736000,4.689736083984375,-0.00015085005725268275,-0.0010234187357127666,0.0009877118282020092
1782813952739818000,4.70981787109375,-0.00040705621358938515,0.0006524017080664635,-0.0013163641560822725
1782813952759900200,4.729900146484375,-0.0010649404721334577,-0.0004002947825938463,-0.00027289846912026405
1782813952779983000,4.749983154296875,0.0012342508416622877,-0.00029105739668011665,-0.00018908921629190445
1782813952800065000,4.77006494140625,0.0003229276626370847,-0.0003290432505309582,0.0011190108489245176
1782813952820147000,4.79014697265625,0.0006475843256339431,0.000011819880455732346,0.00017972453497350216
1782813952840229000,4.81022900390625,-0.0008122101426124573,0.000028741545975208282,0.0002601984888315201
1782813952860311000,4.83031103515625,-0.0008721218327991664,-0.0011087942402809858,-0.00012710015289485455
1782813952880393200,4.850393310546875,-0.001069112098775804,-0.0014314050786197186,0.000583776505663991
1782813952900475100,4.87047509765625,0.000045491178752854466,0.0031297258101403713,-0.0013548191636800766
1782813952920557300,4.890557373046875,0.0012810982298105955,-0.0013377366121858358,0.002007443457841873
1782813952940639200,4.91063916015625,0.0000485615455545485,0.0018952637910842896,0.002859005704522133
1782813952960721200,4.93072119140625,0.0005830154987052083,0.0008330359123647213,-0.00192465097643435
1782813952980803300,4.95080322265625,0.000002065295120701194,-0.0012527029030025005,0.002093004994094372
1782813953000885200,4.97088525390625,-0.00006765758735127747,0.000516657717525959,-0.0033955127000808716
1782813953020968200,4.99096826171875,0.0010227187303826213,-0.00048149004578590393,0.00228765606880188
1782813953041049600,5.011049560546875,-0.00007092487066984177,-0.0001354101113975048,-0.00030493992380797863
1782813953061131800,5.0311318359375,0.0013932203873991966,0.0001567932777106762,-0.00002018664963543415
1782813953081213700,5.051213623046875,-0.0006206141551956534,-0.001724784728139639,0.0005366088589653373
1782813953101295600,5.071295654296875,-0.0002119635755661875,0.001599969808012247,-0.002533507300540805
1782813953121377800,5.091377685546875,-0.00027332844911143184,-0.003143907757475972,0.0001520891673862934
1782813953141459700,5.111459716796875,-0.0013210466131567955,-0.0009983694180846214,-0.00020521506667137146
1782813953161541600,5.131541748046875,-0.0002200438902946189,-0.0005902745760977268,-0.002575068734586239
1782813953181623800,5.151623779296875,0.0008295562001876533,-0.0011714785359799862,0.0012995245633646846
1782813953201705700,5.171705810546875,0.00213025719858706,0.00032085226848721504,-0.0014095739461481571
1782813953221787600,5.19178759765625,-0.0002180094743380323,-0.0015234204474836588,0.0018837559036910534
1782813953241869600,5.21186962890625,0.0010319065768271685,0.0003558327443897724,-0.000047257402911782265
1782813953261951700,5.23195166015625,0.00041356979636475444,-0.000985336722806096,-0.0009414220694452524
1782813953282034700,5.25203466796875,0.0013413178967311978,0.0004693465307354927,0.0011511556804180145
1782813953302116600,5.27211669921875,0.000893290271051228,-0.00010404502972960472,-0.0013188940938562155
1782813953322198500,5.292198486328125,0.0006247481796890497,0.00034440960735082626,0.0018004060257226229
1782813953342280700,5.31228076171875,0.00046781814307905734,0.00046328455209732056,0.0009611259447410703
1782813953362989600,5.332989501953125,0.0005074775544926524,-0.000402156263589859,-0.0015246463008224964
1782813953383071700,5.35307177734375,-0.0006728138541802764,0.00020597223192453384,0.0015890371287241578
1782813953403153700,5.373153564453125,-0.001810080255381763,-0.0008468800224363804,-0.000785693759098649
1782813953423235600,5.393235595703125,-0.0004029388655908406,-0.0006192235741764307,-0.0010414603166282177
1782813953443317800,5.41331787109375,0.002386599313467741,0.0002716248854994774,0.0006082486361265182
1782813953463399700,5.433399658203125,-0.0008971294737420976,-0.0013017975725233555,0.0008164861937984824
1782813953483481600,5.453481689453125,0.00036660628393292427,0.0010159746743738651,0.0012985272333025932
1782813953503563500,5.4735634765625,0.00010775425471365452,-0.0008964184671640396,0.000629149260930717
1782813953523645700,5.493645751953125,0.0004045108216814697,0.0016497024334967136,-0.00012727687135338783
1782813953543729000,5.51372900390625,-0.0007702012080699205,-0.0010917109902948141,0.0009382057469338179
1782813953563810800,5.533810791015625,0.00021060212748125196,0.00030277157202363014,0.00014834338799118996
1782813953583892700,5.553892822265625,0.0002626869536470622,-0.0003591468557715416,-0.0007920283824205399
1782813953603975000,5.573974853515625,0.000044732034439221025,-0.0016029695980250835,0.0010152836330235004
1782813953624056800,5.594056884765625,-0.0005023354897275567,0.0018242616206407547,-0.0003800196573138237
1782813953644138800,5.614138671875,-0.0003845925675705075,-0.001850718166679144,0.0031939020846039057
1782813953664221000,5.634220947265625,0.0013842594344168901,0.0016072620637714863,0.0005456103244796395
1782813953684302800,5.654302734375,-0.0003126627125311643,0.00012976117432117462,-0.00038494844920933247
1782813953703757800,5.6737578125,0.0000023443426471203566,-0.000981646589934826,0.0015855957753956318
1782813953723839700,5.69383984375,-0.0007455702871084213,0.0019479524344205856,-0.000158628448843956
1782813953743921700,5.713921630859375,-0.00027592608239501715,-0.0006238201167434454,0.0013635082868859172
1782813953764003800,5.73400390625,-0.0025516576133668423,-0.00039016781374812126,-0.0004518090281635523
1782813953784086800,5.754086669921875,-0.0008070903713814914,-0.0004633059725165367,-0.00006884080357849598
1782813953804168700,5.774168701171875,-0.001271291053853929,-0.002385596977546811,0.0019027773523703218
1782813953824250600,5.794250732421875,0.00033529350184835494,0.0026142913848161697,-0.0018754596821963787
1782813953844332800,5.814332763671875,0.0005496992380358279,-0.0019790534861385822,-0.000172692583873868
1782813953864414700,5.834414794921875,0.0004025425878353417,-0.00012773927301168442,-0.0019455086439847946
1782813953884496600,5.85449658203125,0.00025218367227353156,-0.000424753874540329,0.00012100976891815662
1782813953904578600,5.87457861328125,0.002636717166751623,-0.0005189937073737383,-0.00041872262954711914
1782813953924660700,5.89466064453125,0.0008136856486089528,-0.001205002423375845,0.00012154830619692802
1782813953944742700,5.91474267578125,0.0011036875657737255,-0.0005009535234421492,0.003800187958404422
1782813953964824600,5.934824462890625,0.0014711704570800066,0.001464321743696928,-0.0017462200485169888
1782813953984906800,5.95490673828125,0.00014492112677544355,-0.0006793767679482698,0.0015159405302256346
1782813954004988700,5.97498876953125,0.0010762251913547516,0.0005667530931532383,-0.0016300433780997992
1782813954025070600,5.995070556640625,0.0005488182068802416,-0.0014884497504681349,-0.00011840346269309521
1782813954045153300,6.0151533203125,0.0013272385112941265,0.001368728931993246,-0.00003952300176024437
1782813954065235500,6.0352353515625,-0.0001980696979444474,-0.0014919873792678118,-0.0006372225470840931
1782813954085317400,6.0553173828125,0.000042703235521912575,-0.0016520814970135689,0.001226399326696992
1782813954105399300,6.0753994140625,-0.00025816968991421163,-0.0001300298608839512,-0.0005116083193570375
1782813954125481500,6.0954814453125,-0.000396844872739166,-0.00041574006900191307,-0.0008769235573709011
1782813954145563400,6.1155634765625,0.00027459405828267336,-0.0006905244663357735,-0.0015584379434585571
1782813954165645300,6.135645263671875,-0.0005875159404240549,-0.0011585624888539314,-0.0021679659839719534
1782813954185727200,6.155727294921875,0.000865617417730391,-0.000017364975064992905,0.0004649772308766842
1782813954205809400,6.175809326171875,0.00009144379873760045,0.0017166314646601677,-0.001306281890720129
1782813954225891300,6.195891357421875,-0.0010184331331402063,0.00021147914230823517,-0.00047085084952414036
1782813954245973200,6.21597314453125,0.00003064589691348374,0.00014644907787442207,-0.0009953007102012634
1782813954266055400,6.236055419921875,0.0006768887978978455,0.00025523407384753227,-0.0012832868378609419
1782813954286137300,6.256137451171875,0.000739430368412286,-0.00035572098568081856,0.001526425825431943
1782813954306220300,6.27622021484375,-0.00006499167648144066,0.0023200414143502712,-0.0012361344415694475
1782813954326302200,6.29630224609375,0.0005472262273542583,-0.0005526046734303236,0.0015733587788417935
1782813954346384400,6.31638427734375,0.00029395867022685707,0.0008189911022782326,-0.0006239062640815973
1782813954366466300,6.33646630859375,0.00044397482997737825,-0.00024280371144413948,0.00012965337373316288
1782813954386548500,6.356548583984375,0.00004735196125693619,-0.0010453339200466871,-0.0007619874086230993
1782813954406630400,6.37663037109375,-0.00023622141452506185,-0.000021387357264757156,0.0001502721570432186
1782813954426712600,6.396712646484375,0.00029125582659617066,-0.00039389776065945625,0.00028056511655449867
1782813954446794500,6.41679443359375,0.0003731272299773991,0.001535138115286827,-0.00041587185114622116
1782813954466876400,6.43687646484375,-0.0007844507927075028,-0.000487456563860178,0.00364491599611938
1782813954486958600,6.45695849609375,-0.0012577727902680635,-0.00008682254701852798,-0.0016986480914056301
1782813954507040500,6.47704052734375,-0.0011546768946573138,0.00039059342816472054,0.002070683753117919
1782813954527122400,6.497122314453125,-0.0008593429811298847,-0.0009326336439698935,0.00001193210482597351
1782813954547204600,6.51720458984375,0.00017661420861259103,-0.0011074922513216734,-0.002143346704542637
1782813954567287600,6.53728759765625,0.0022203288972377777,-0.0022571284789592028,0.0015132981352508068
1782813954587369500,6.557369384765625,-0.0005061235278844833,0.0011240141466259956,-0.003216976299881935
1782813954607451400,6.577451416015625,-0.00018635422748047858,-0.0009954117704182863,0.00018254341557621956
1782813954627533300,6.597533203125,0.00036526474286802113,0.0003283219411969185,-0.0003531770780682564
1782813954647615500,6.617615478515625,-0.0008933822391554713,0.0025203339755535126,-0.0012030655052512884
1782813954667697400,6.637697509765625,-0.00035467668203637004,-0.0007835966534912586,0.0022958964109420776
1782813954687779300,6.657779296875,0.00012815246009267867,-0.0003959452733397484,-0.0006449681241065264
1782813954707861500,6.677861572265625,-0.0011304189683869481,-0.0015542982146143913,0.0002306604292243719
1782813954727943400,6.697943359375,0.0011072640772908926,-0.0016132451128214598,0.00004957732744514942
1782813954748025300,6.718025390625,0.0002608815557323396,0.000953910406678915,-0.00298310280777514
1782813954768107500,6.738107421875,-0.0005997063126415014,-0.0008346792310476303,0.0007771516684442759
1782813954788189400,6.758189453125,0.0003626835532486439,0.00044698314741253853,-0.0012599087785929441
1782813954808271400,6.778271240234375,-0.0006069416995160282,-0.0016027099918574095,-0.0005906999576836824
1782813954828353300,6.798353271484375,-0.0014503365382552147,-0.0012027602642774582,-0.0003788305912166834
1782813954848436500,6.8184365234375,-0.0006371322087943554,-0.0010946353431791067,-0.0011217636056244373
1782813954868518400,6.838518310546875,-0.0007832818082533777,0.0005775783210992813,0.00011261948384344578
1782813954888600300,6.858600341796875,0.00015002934378571808,-0.0008634342812001705,-0.0009643915109336376
1782813954908682200,6.87868212890625,0.0005982270231470466,0.0006301263347268105,-0.00039759185165166855
1782813954928764400,6.898764404296875,0.000045272347051650286,0.00018790503963828087,0.0005695986328646541
1782813954948846300,6.918846435546875,-0.0007405286887660623,0.00028115883469581604,0.0007645714795216918
1782813954968928300,6.93892822265625,-0.0009183784713968635,0.00020461296662688255,0.001774186035618186
1782813954989010400,6.959010498046875,-0.000230130972340703,0.0008534151129424572,-0.00028964411467313766
1782813955009092400,6.97909228515625,0.0005919316317886114,-0.0015997071750462055,0.0014148871414363384
1782813955029174300,6.99917431640625,-0.00030691048596054316,0.0007286639884114265,-0.001950535923242569
1782813955049256400,7.01925634765625,0.0008356556645594537,-0.0007501537911593914,0.000308407936245203
1782813955069338400,7.03933837890625,-0.002017723862081766,0.0007383828051388264,0.00009147915989160538
1782813955089420300,7.059420166015625,-0.0008068919996730983,-0.0004572696052491665,-0.00032675894908607006
1782813955109502200,7.079502197265625,0.0000975587172433734,-0.0006320611573755741,0.000666335690766573
1782813955129584400,7.09958447265625,-0.0011978365946561098,0.00033104559406638145,-0.0006584050133824348
1782813955149666300,7.119666259765625,0.0006895795813761652,-0.0008239976596087217,0.002084276406094432
1782813955169748200,7.139748291015625,-0.00037046591751277447,0.0014835074543952942,-0.0020867367275059223
1782813955189831200,7.1598310546875,-0.001457546604797244,-0.0006542785558849573,-0.00033776741474866867
1782813955209913300,7.179913330078125,-0.0014598199632018805,-0.0014420112129300833,-0.0010391974356025457
1782813955229995300,7.199995361328125,0.0013791287783533335,-0.00013454211875796318,0.0009395329980179667
1782813955250077200,7.2200771484375,0.00023597475956194103,-0.0009335121139883995,-0.0005991309881210327
1782813955270159400,7.240159423828125,-0.0007074839086271822,0.00055727269500494,-0.0024568564258515835
1782813955290241300,7.2602412109375,0.0005971994251012802,-0.0007198555395007133,0.0008548247860744596
1782813955310323200,7.2803232421875,-0.00010949514398816973,0.0009073768742382526,-0.002151212887838483
1782813955330405000,7.300405029296875,-0.00040959962643682957,0.00007939059287309647,-0.00033051567152142525
1782813955350487300,7.3204873046875,0.0009071263484656811,-0.0000553610734641552,-0.00009703123942017555
1782813955370569200,7.3405693359375,-0.0008248297963291407,-0.0003299238160252571,0.0012970883399248123
1782813955390651100,7.360651123046875,-0.0005454974598251283,0.000010408926755189896,-0.000015947967767715454
1782813955410733300,7.3807333984375,0.0011039527598768473,-0.0017998204566538334,0.0002422030083835125
1782813955430815200,7.400815185546875,0.0018416207749396563,-0.00007317261770367622,-0.0011756033636629581
1782813955450897200,7.420897216796875,0.0005271274130791426,-0.0012907055206596851,0.00034604757092893124
1782813955470979300,7.440979248046875,-0.00021804617426823825,-0.0018787612207233906,0.00021463725715875626
1782813955491061200,7.461061279296875,-0.001203646301291883,-0.002000743057578802,-0.0024474754463881254
1782813955511144200,7.481144287109375,-0.0008116267854347825,-0.001309284707531333,0.0008764911908656359
1782813955531226000,7.50122607421875,-0.00038524167030118406,0.0020325863733887672,-0.002813280327245593
1782813955551308300,7.521308349609375,-0.0005481194239109755,-0.0016406700015068054,0.0008762649958953261
1782813955571390500,7.541390380859375,0.0010840892791748047,0.00011641578748822212,0.0011539175175130367
1782813955591472400,7.561472412109375,-0.0010026827221736312,0.0012073507532477379,-0.002396537223830819
1782813955611554300,7.58155419921875,-0.0007266985485330224,-0.0003177504986524582,0.0016174281481653452
1782813955631636500,7.601636474609375,-0.0006432295776903629,0.0013871933333575726,-0.0007818117737770081
1782813955651718400,7.621718505859375,-0.0007899894844740629,-0.000570785254240036,0.0013415977591648698
1782813955671800300,7.64180029296875,-0.0009928529616445303,-0.0008055057842284441,-0.00019706622697412968
1782813955691882500,7.661882568359375,-0.00031535871676169336,0.0016923518851399422,0.00036415085196495056
1782813955711964400,7.68196435546875,0.00003971421392634511,-0.001062827417626977,0.0030903061851859093
1782813955732046300,7.70204638671875,0.0006587527459487319,-0.0001277434639632702,-0.0027018478140234947
1782813955752128300,7.722128173828125,-0.00037727277958765626,0.00048190588131546974,0.002210636157542467
1782813955772210400,7.74221044921875,-0.0001582255499670282,-0.0007446841336786747,-0.0006107634399086237
1782813955792292400,7.762292236328125,0.00020499274251051247,0.0019026696681976318,-0.0011328288819640875
1782813955812374300,7.782374267578125,0.00005986407632008195,-0.00011025136336684227,0.0012728403089568019
1782813955832456400,7.80245654296875,0.00044552446343004704,0.0009522251784801483,0.00036978255957365036
1782813955852538400,7.822538330078125,1.1411611922085285e-7,0.00009182654321193695,-0.0007653331849724054
1782813955872621300,7.842621337890625,0.00007500185165554285,-0.0002311738207936287,0.0006514816777780652
1782813955892703200,7.862703125,-0.0002374406176386401,0.0000897417776286602,0.0006883667083457112
1782813955912785400,7.882785400390625,-0.001230916241183877,-0.0011385849211364985,0.00015858234837651253
1782813955932867300,7.902867431640625,0.00024071719963103533,0.001040896400809288,-0.0016913872677832842
1782813955952949200,7.92294921875,0.0012952253455296159,-0.000838238513097167,-0.001680376473814249
1782813955973031200,7.94303125,0.0001933774328790605,0.00062915263697505,0.0005233574192970991
1782813955993113300,7.96311328125,-0.0005915967631153762,-0.0005417927168309689,-0.0005026091821491718
1782813956013195300,7.9831953125,-0.00012605637311935425,-0.0018863740842789412,-0.00045902584679424763
1782813956033277200,8.003277099609376,-0.0011447903234511614,-0.0013806018978357315,-0.00039212359115481377
1782813956053359400,8.023359375,0.0011759494664147496,0.002204424235969782,-0.0016429179813712835
1782813956073441300,8.043441162109374,0.000475480395834893,-0.00198998861014843,0.0021054185926914215
1782813956093523200,8.063523193359375,-0.000760730414185673,0.001068699173629284,-0.0009033801034092903
1782813956113605400,8.08360546875,0.000605623354203999,-0.00018403492867946625,-0.0002647407818585634
1782813956133687300,8.103687255859375,0.0008196693961508572,-0.001192101975902915,0.0018022253643721342
1782813956153769200,8.123769287109376,0.00021947926143184304,0.001020259689539671,-0.0019688368774950504
1782813956173851100,8.14385107421875,-0.0007360469317063689,-0.001626722514629364,0.0006419759010896087
1782813956193933300,8.163933349609374,-0.001754439901560545,0.0003302590921521187,-0.00031116907484829426
1782813956214016300,8.184016357421875,0.00018394086509943008,-0.00046025216579437256,-0.002633828902617097
1782813956234098200,8.20409814453125,0.0012667851988226175,-0.0000021224841475486755,0.0019196460489183664
1782813956254180000,8.22418017578125,0.00022744224406778812,0.0011452785693109035,-0.001011422136798501
1782813956274262300,8.24426220703125,-0.0003263726830482483,0.0000929306261241436,0.003051102627068758
1782813956294344200,8.26434423828125,-0.00019357408746145666,0.0010082651861011982,0.0017986319726333022
1782813956314426000,8.284426025390625,0.00011193871614523232,0.001517444383352995,0.000364700797945261
1782813956334508300,8.30450830078125,-0.0014522004639729857,0.00040172645822167397,0.003772304393351078
1782813956354590200,8.324590087890625,-0.00045635143760591745,0.0020201210863888264,-0.0010294115636497736
1782813956374672100,8.344672119140625,0.001074460567906499,-0.0009223576635122299,0.001540450961329043
1782813956394754000,8.364754150390626,0.000993175432085991,0.001017495058476925,-0.002275471342727542
1782813956414836200,8.384836181640624,0.0005069487961009145,-0.0002079796977341175,-0.001582779223099351
1782813956434918100,8.404918212890625,0.0014498148811981082,0.000700782984495163,0.00116271385923028
1782813956455000000,8.425,-0.00007475883467122912,-0.0005594149697571993,0.00021284562535583973
1782813956475082200,8.445082275390625,-0.0003644737880676985,0.000017679762095212936,0.0012948047369718552
1782813956495164200,8.4651640625,0.0005335838068276644,-0.00015704426914453506,-0.0013991999439895153
1782813956515246000,8.48524609375,-0.0016284133307635784,0.00003425590693950653,-0.0010625130962580442
1782813956535328300,8.505328369140624,-0.0003750133328139782,0.00009593693539500237,-0.00008500693365931511
1782813956555410200,8.52541015625,0.0005730843404307961,-0.0013012944255024195,-0.00113664660602808
1782813956575492000,8.5454921875,-0.0004074002499692142,-0.0001925518736243248,-0.00103278667666018
1782813956595574000,8.565573974609375,-0.0007072871085256338,-0.0025221165269613266,-0.001592033775523305
1782813956615657200,8.5856572265625,-0.0008694560383446515,-0.0007081443909555674,-0.0009401370771229267
1782813956635739400,8.605739501953124,0.0003557497984729707,-0.0007118172943592072,-0.0005961621645838022
1782813956655821300,8.6258212890625,0.0013227903982624412,0.00029880786314606667,-0.0007703544106334448
1782813956675903200,8.6459033203125,0.0018890125211328268,0.000572501216083765,-0.00045753270387649536
1782813956695985400,8.6659853515625,-0.0019158630166202784,-0.001227679429575801,0.00012939865700900555
1782813956716067300,8.6860673828125,-0.0004987370339222252,0.003073316067457199,-0.0016248696483671665
1782813956736149200,8.706149169921876,-0.0007756012491881847,-0.0004032973665744066,0.00124158407561481
1782813956756231400,8.7262314453125,0.0004813676350750029,-0.0015478776767849922,-0.000499240355566144
1782813956776313300,8.746313232421874,-0.0005298789474181831,0.0014924672432243824,0.0005896645598113537
1782813956796395300,8.766395263671875,0.0012607626849785447,-0.0026081856340169907,-0.0007304495666176081
1782813956816477200,8.786477294921875,-0.0006091676186770201,0.000028372276574373245,-0.0031201730016618967
1782813956836559400,8.806559326171875,-0.0002135206013917923,0.001190295908600092,0.0003097130684182048
1782813956856641300,8.826641357421876,-0.0016373603139072657,-0.00016499822959303856,-0.0007418601308017969
1782813956876723200,8.84672314453125,0.00038420347846113145,-0.0013169220183044672,-0.0005643998738378286
1782813956896805400,8.866805419921874,-0.0007067659753374755,0.00063756899908185,-0.0009238563943654299
1782813956916887300,8.88688720703125,-0.0009381159907206893,0.0005445890128612518,-0.0007245808374136686
1782813956936969200,8.90696923828125,-0.0012664293171837926,-0.0008752639405429363,-0.0011412899475544691
1782813956957051400,8.927051513671875,0.0010617515072226524,0.0008844388648867607,0.00003693951293826103
1782813956977133300,8.94713330078125,-0.0004390985704958439,-0.0011303070932626724,0.0011121650459244847
1782813956997215200,8.96721533203125,0.000057518540415912867,0.000487565528601408,-0.00024475017562508583
1782813957017297200,8.987297119140624,-0.0004985626437701285,0.00008700881153345108,0.0007662978023290634
1782813957037380000,9.007380126953125,-0.0010726319160312414,-0.000337755074724555,0.002812344115227461
1782813957057463000,9.027463134765625,-0.0005846999119967222,0.001586433034390211,-0.00045997416600584984
1782813957077545000,9.047544921875,-0.0008187912753783166,-0.0015692550223320723,0.0010484178783372045
1782813957097627000,9.067626953125,-0.0015796300722286105,0.0016805455088615417,-0.0003931077662855387
1782813957117708800,9.087708740234374,0.0007313451496884227,-0.000807321397587657,0.0030094431713223457
1782813957137791000,9.107791015625,0.000248247612034902,0.001374560408294201,0.00006792135536670685
1782813957157873000,9.127872802734375,-0.0007699616253376007,-0.00003985408693552017,0.0006673696916550398
1782813957177954800,9.147954833984375,-0.0015399018302559853,-0.00033699278719723225,0.0016317589906975627
1782813957198037000,9.168037109375,-0.00017166051839012653,0.0013859583996236324,-0.0009384122677147388
1782813957218119000,9.188118896484376,-0.00013109071005601436,0.0005963845178484917,0.0014933388447389007
1782813957238200800,9.208200927734374,-0.0006558896275237203,-0.0008120553102344275,-0.00020091747865080833
1782813957258283000,9.228282958984375,0.00045419030357152224,-0.0007747847121208906,-0.0017171953804790974
1782813957278365000,9.248364990234375,-0.0019040328916162252,-0.0028278955724090338,0.001488237059675157
1782813957298446800,9.26844677734375,-0.00013793024118058383,0.0006107077933847904,-0.0026393646840006113
1782813957318528800,9.28852880859375,-0.00028790978831239045,-0.001694611506536603,-0.00038305623456835747
1782813957338611000,9.30861083984375,0.001183707034215331,-0.0006944851484149694,0.0016594030894339085
1782813957358692900,9.32869287109375,-0.0014878024812787771,0.000546156894415617,-0.0015201002825051546
1782813957378774800,9.34877490234375,0.0000032535172067582607,-0.0008657388389110565,0.002052213763818145
1782813957398857000,9.36885693359375,0.0011955996742472053,-0.0011031674221158028,-0.002224897500127554
1782813957418939000,9.38893896484375,0.00054850650485605,0.00033610640093684196,0.00000504753552377224
1782813957439020800,9.409020751953125,-0.0011790059506893158,0.0017869840376079082,0.00066170166246593
1782813957459103000,9.42910302734375,-0.0007027903338894248,-0.0004900163039565086,0.00224701757542789
1782813957479185000,9.449184814453124,-0.0009255777695216238,-0.0003997115418314934,-0.000678161159157753
1782813957499266800,9.469266845703125,-0.0002509968471713364,-0.000735193258151412,-0.001462508225813508
1782813957519348700,9.4893486328125,-0.00026175769744440913,-0.0014649787917733192,0.0004046262474730611
1782813957539432000,9.509431884765625,-0.00008809207065496594,-0.00055879564024508,-0.001485534943640232
1782813957559513900,9.529513916015626,0.00027289867284707725,-0.0005316247697919607,0.0011410563020035625
1782813957579595800,9.549595703125,-0.0009945330675691366,-0.00010149367153644562,-0.0015218304470181465
1782813957599677700,9.569677734375,0.0006780509138479829,-0.00019224220886826515,-0.0006858506239950657
1782813957619759900,9.589759765625,-0.0009878406999632716,-0.0008207815699279308,0.0006449919892475009
1782813957639841800,9.609841796875,-0.0008023462723940611,0.0019862139597535133,-0.0023728986270725727
1782813957659923700,9.629923828125,-0.00033008152968250215,-0.0008746746461838484,0.0012054966064170003
1782813957680006000,9.650005859375,0.000939561752602458,-0.00021921703591942787,-0.0008112902287393808
1782813957700087800,9.670087890625,-0.00014441033999901265,0.0015645110979676247,-0.00036507565528154373
1782813957720169700,9.690169677734374,0.000013617303920909762,-0.00004718266427516937,0.0014389014104381204
1782813957740252000,9.710251953125,0.0007523570093326271,0.0005770516581833363,-0.0011992922518402338
1782813957760333800,9.730333740234375,0.0000011655502021312714,0.00038714194670319557,0.0003619592171162367
1782813957780415700,9.750415771484375,0.0006591733545064926,-0.00015517417341470718,-0.0002700597979128361
1782813957800497700,9.77049755859375,0.0009529809467494488,0.0014938893727958202,0.00017129117622971535
1782813957820579800,9.790579833984374,-0.0015250516589730978,-0.0005666569340974092,0.0008003510301932693
1782813957840661800,9.810661865234374,0.0003101116162724793,0.0006969030946493149,0.0001683544833213091
1782813957860743700,9.83074365234375,0.0005929144099354744,-0.0002842326648533344,0.0005642827600240707
1782813957880825900,9.850825927734375,-0.0011808715062215924,0.00048187607899308205,0.00019382848404347897
1782813957900907800,9.87090771484375,0.00023531034821644425,0.0005124248564243317,-0.002555231796577573
1782813957920991000,9.890990966796876,0.0001426433154847473,-0.0009004713501781225,0.0018960621673613787
1782813957941073000,9.911072998046874,0.0014492999762296677,0.00010827742516994476,-0.0007015098817646503
1782813957961154800,9.93115478515625,-0.00012545462232083082,-0.001181144965812564,0.00021504820324480534
1782813957981237000,9.951237060546875,0.0007152645848691463,-0.0006753925699740648,-0.0002551395446062088
1782813958001319000,9.97131884765625,-0.0011971121421083808,-0.00013076886534690857,0.00026308768428862095
1782813958021400800,9.99140087890625,0.00040229651494883,-0.0007387986406683922,0.00012841448187828064
1782813958041482200,10.011482177734376,0.00018481476581655443,0.0003725476562976837,-0.0006617649924010038
1782813958061564200,10.031564208984374,-0.0010044687660411,-0.00129483244381845,0.001916965818963945
1782813958081646000,10.05164599609375,0.0006172568537294865,0.000036487821489572525,-0.00003719027154147625
1782813958101728300,10.071728271484375,0.00009989712270908058,0.0016979682259261608,-0.0003052584361284971
1782813958121810200,10.09181005859375,-0.0024934823159128428,0.0003513013944029808,0.0013253227807581425
1782813958141892000,10.11189208984375,0.00011527552851475775,-0.00034727854654192924,-0.0025726992171257734
1782813958161974300,10.131974365234376,-0.000551048549823463,-0.0015874234959483147,-0.0006636171601712704
1782813958182056200,10.15205615234375,0.0003567351959645748,0.002732650376856327,-0.00021721050143241882
1782813958202138000,10.17213818359375,-0.0004839911125600338,0.0038206856697797775,0.005635124631226063
1782813958222220300,10.19222021484375,-0.0008464011480100453,0.0017243889160454273,0.001372755505144596
1782813958242302200,10.21230224609375,-0.00019032889395020902,-0.002424833597615361,-0.002530492842197418
1782813958262384000,10.232384033203125,0.0001788868976291269,-0.0020901961252093315,-0.0015934554394334555
1782813958282466000,10.252466064453126,-0.0006060425657778978,-0.00047729024663567543,-0.001842929981648922
1782813958302548200,10.27254833984375,0.0016917826142162085,-0.0012474560644477606,-0.00010386551730334759
1782813958322630100,10.292630126953124,-0.000247872929321602,0.00031667668372392654,0.0005117307882755995
1782813958342713000,10.312713134765625,-0.00024093355750665069,0.0013785422779619694,-0.0005285672377794981
1782813958362795000,10.332794921875,-0.00024674649466760457,-0.0009454879909753799,0.000005511101335287094
1782813958382877200,10.352877197265625,-0.00045976683031767607,0.0012497887946665287,0.001941550406627357
1782813958402959000,10.372958984375,0.0001991020981222391,0.0008223853074014187,0.0029952344484627247
1782813958423041000,10.393041015625,-0.0015900435391813517,0.0025746882893145084,0.0026236928533762693
1782813958443123200,10.413123291015625,0.0011591154616326094,0.003429973963648081,0.0012215848546475172
1782813958463205000,10.433205078125,0.0008455556817352772,0.00419252784922719,0.00696448003873229
1782813958483287000,10.453287109375,0.0010137805948033929,0.009711595252156258,0.01171107217669487
1782813958503369200,10.473369140625,0.0010541736846789718,0.0038292398676276207,0.007190321572124958
1782813958523451100,10.493451171875,-0.0035647847689688206,0.1350504606962204,0.13197778165340424
1782813958543533000,10.513532958984374,-0.002844335278496146,-0.049082763493061066,0.15716740489006042
1782813958563615000,10.533614990234375,0.005573498085141182,-0.03971302881836891,-0.1536063402891159
1782813958583697200,10.553697265625,-0.0068000806495547295,0.004999316763132811,-0.1865062266588211
