time,seconds_elapsed,z,y,x
1782812276077699000,0.062698974609375,0.005220677237957716,0.0014350689016282558,-0.0010975985787808895
1782812276097782000,0.082781982421875,-0.0008587866905145347,-0.00022860802710056305,-0.0012749650049954653
1782812276117864000,0.102864013671875,-0.0006380371632985771,-0.0004912097938358784,0.0007145308190956712
1782812276137947000,0.12294677734375,0.002578574698418379,-0.000989395659416914,-0.00013055792078375816
1782812276158029800,0.14302978515625,-0.002773954998701811,-0.0002269740216434002,-0.002209370257332921
1782812276178111700,0.16311181640625,0.0021405541338026524,0.0005066073499619961,-0.0004647010937333107
1782812276198195000,0.18319482421875,-0.002709218068048358,0.001219982746988535,0.00024252431467175484
1782812276218276900,0.20327685546875,0.0010907722171396017,0.0019443361088633537,0.0005239581223577261
1782812276238359800,0.22335986328125,0.002812159713357687,0.0015134569257497787,0.0018179623875766993
1782812276258442800,0.24344287109375,-0.002451770706102252,-0.0005616357084363699,-0.0009523364715278149
1782812276278525000,0.26352490234375,0.0031764348968863487,-0.001302660908550024,0.0013722170842811465
1782812276298607900,0.28360791015625,-0.004769586957991123,-0.0011044929269701242,0.0010763764148578048
1782812276318690800,0.30369091796875,0.001792376977391541,-0.00025298306718468666,0.0004809142556041479
1782812276338772700,0.323772705078125,0.002277871361002326,0.0015132254920899868,-0.0007513302844017744
1782812276358856000,0.34385595703125,-0.0015977878356352448,0.0008225562050938606,-0.0005054264329373837
1782812276378937900,0.363937744140625,0.00379532715305686,-0.00047576334327459335,0.000690296059474349
1782812276399020800,0.384020751953125,-0.003357697743922472,-0.0006279847584664822,0.0008316155290231109
1782812276419103700,0.404103759765625,0.0014989422634243965,-0.0005037612281739712,0.00024568988010287285
1782812276439186000,0.42418603515625,0.00037432718090713024,-0.0005691207479685545,0.00014564883895218372
1782812276459268900,0.444268798828125,-0.0005734079168178141,0.00000204332172870636,0.0011804162058979273
1782812276479352000,0.46435205078125,0.003793968353420496,0.0006965454667806625,0.0018885665340349078
1782812276499434000,0.48443408203125,-0.0017381299985572696,0.001531159970909357,0.0010736664989963174
1782812276519517000,0.504516845703125,0.0027390834875404835,-0.0014475025236606598,0.0009638129267841578
1782812276539598800,0.524598876953125,-0.001824676408432424,0.00039206352084875107,-0.0002801802475005388
1782812276559681800,0.544681884765625,-0.000573042721953243,0.0006426381878554821,0.0018551053944975138
1782812276579764700,0.5647646484375,0.0021120398305356503,0.00036671431735157967,-0.0012985833454877138
1782812276599847000,0.584846923828125,-0.0018769197631627321,0.0011999746784567833,-0.00046227313578128815
1782812276619929900,0.604929931640625,0.0024877674877643585,0.0013938043266534805,0.0009976616129279137
1782812276640011800,0.62501171875,-0.0023144835140556097,-0.00025884201750159264,0.0019365980988368392
1782812276660095000,0.645094970703125,-0.0005823838291689754,-0.0006986071821302176,0.0008063055574893951
1782812276680178000,0.665177978515625,-0.00022990131401456892,-0.000716568436473608,0.000015351921319961548
1782812276700259800,0.685259765625,-0.0011709026293829083,0.0008075651712715626,-0.0024831367190927267
1782812276720342800,0.7053427734375,0.0015189223922789097,0.001480231061577797,-0.00041174027137458324
1782812276740425700,0.72542578125,-0.0020734479185193777,0.0013575078919529915,0.0013760500587522984
1782812276760507100,0.745507080078125,0.0021687012631446123,-0.00047394796274602413,-0.0010130717419087887
1782812276780590000,0.765590087890625,0.00039238593308255076,-0.0008748797699809074,-0.00018888129852712154
1782812276800672000,0.785672119140625,-0.001475982484407723,-0.0001963125541806221,0.0004432643763720989
1782812276820755000,0.8057548828125,0.0003601222997531295,0.00013536866754293442,0.0008531197672709823
1782812276840838100,0.825838134765625,-0.0008260167669504881,0.00016008736565709114,-0.00047128042206168175
1782812276860920000,0.845920166015625,0.0029080710373818874,0.0009322436526417732,-0.00035881134681403637
1782812276881003300,0.866003173828125,-0.001526935026049614,0.0008021900430321693,0.0008335537277162075
1782812276901086200,0.886086181640625,-0.000637674005702138,0.0007219798862934113,0.002362197730690241
1782812276921168100,0.906168212890625,0.001511279377155006,-0.000018084421753883362,-0.0011291701812297106
1782812276941251000,0.9262509765625,-0.001965862698853016,-0.0010789553634822369,-0.00020810263231396675
1782812276961333000,0.9463330078125,0.0037206076085567474,-0.0009040690492838621,-0.00035923998802900314
1782812276981416000,0.966416015625,-0.0026313478592783213,-0.00017811963334679604,0.002960087964311242
1782812277001499100,0.9864990234375,0.0015306014101952314,0.0003860495053231716,-0.00010636984370648861
1782812277021581000,1.0065810546875,0.00022565903782378882,0.000011812429875135422,0.0002820235677063465
1782812277041664000,1.0266640625,-0.0022325925529003143,-0.00018266774713993073,-0.000027420464903116226
1782812277061746200,1.04674609375,0.0013464116491377354,0.0005733268335461617,-0.00012893346138298512
1782812277081829000,1.0668291015625,-0.0013972977176308632,-0.00039246981032192707,0.0006184952799230814
1782812277101912000,1.086912109375,0.003641746938228607,-0.000041688792407512665,0.0002943105064332485
1782812277121994000,1.106993896484375,-0.000602097949013114,0.0008151964284479618,-0.00017916876822710037
1782812277142077200,1.1270771484375,-0.001040537958033383,0.0006309421733021736,0.0006217429181560874
1782812277162160000,1.14716015625,0.00134826370049268,0.001035511028021574,0.0006333201890811324
1782812277182242000,1.167241943359375,-0.0024658972397446632,0.0011905841529369354,-0.0007237792015075684
1782812277202325000,1.187324951171875,0.0029123383574187756,-0.0014438917860388756,-0.0008942689746618271
1782812277222407200,1.2074072265625,-0.0009084868361242115,-0.00037901964969933033,-0.0003081641625612974
1782812277242490000,1.227489990234375,0.0014120166888460517,0.0012445473112165928,0.0013202009722590446
1782812277262573000,1.247572998046875,0.00013116806803736836,0.00046138232573866844,-0.0011067786253988743
1782812277282655000,1.267655029296875,-0.0005970379570499063,0.0003416864201426506,-0.0003634595777839422
1782812277302738200,1.28773828125,0.0009144347277469933,-0.0008928836323320866,0.0008975057862699032
1782812277322820000,1.307820068359375,-0.0018507689237594604,-0.0005068168975412846,0.00029756384901702404
1782812277342903000,1.327903076171875,0.0001686141185928136,0.0000581229105591774,0.0011776071041822433
1782812277362986000,1.347986083984375,0.0025650435127317905,0.00110520888119936,-0.00020748632960021496
1782812277383068200,1.368068115234375,-0.0012261958327144384,0.0012193461880087852,-0.0007932877633720636
1782812277403151000,1.388151123046875,0.0016606152057647705,0.0017125988379120827,0.0007551992312073708
1782812277423234000,1.408234130859375,0.00014176945842336863,-0.0016598536167293787,0.0015422313008457422
1782812277443316000,1.42831591796875,0.0013788463547825813,-0.0012525019701570272,0.0006522968178614974
1782812277463399200,1.448399169921875,-0.002151070162653923,0.00026229722425341606,-0.001353685511276126
1782812277483481000,1.468481201171875,0.00030105875339359045,-0.0012681512162089348,0.0007240978302434087
1782812277503564000,1.48856396484375,0.0008941762498579919,-0.0009563444182276726,0.002064988948404789
1782812277523647000,1.50864697265625,-0.002093129325658083,0.0012248964048922062,-0.0008813599124550819
1782812277543729200,1.528729248046875,0.0008718302706256509,0.0018325322307646275,0.0005404801340773702
1782812277563812000,1.54881201171875,-0.001104629714973271,0.000035892706364393234,0.000657168566249311
1782812277583894000,1.56889404296875,-0.00016066513489931822,-0.0009266289416700602,0.0018448395421728492
1782812277603977200,1.588977294921875,0.0007474298472516239,-0.00029342062771320343,-0.002374072093516588
1782812277624060200,1.60906005859375,0.0010854399297386408,-0.00010010972619056702,0.00005300692282617092
1782812277644142000,1.62914208984375,0.0012632902944460511,0.00003381911665201187,0.00022607622668147087
1782812277664225000,1.64922509765625,-0.0009096015710383654,0.0007679755799472332,0.000753068714402616
1782812277684307200,1.66930712890625,-0.000002074302756227553,-0.000718643656000495,0.0007685930468142033
1782812277704390100,1.68939013671875,0.00158780871424824,0.00021200580522418022,0.000002315966412425041
1782812277724473000,1.70947314453125,-0.0005087585304863751,-0.00017675990238785744,-0.0002623009495437145
1782812277744555000,1.729554931640625,0.00024389875761698931,-0.0012049779761582613,0.00149568822234869
1782812277764639200,1.74963916015625,-0.0014117425307631493,0.002062748186290264,-0.0007767516653984785
1782812277784721200,1.76972119140625,0.00299496715888381,-0.00012425333261489868,-0.00024427007883787155
1782812277804804400,1.789804443359375,-0.000006783680873923004,-0.001792184542864561,-0.0005965169984847307
1782812277824887300,1.80988720703125,-0.0017894365591928363,-0.000414692098274827,0.00028613791801035404
1782812277844969200,1.82996923828125,0.0019463207572698593,-0.0011258269660174847,0.0007748700445517898
1782812277865052200,1.85005224609375,-0.0010622007539495826,-0.0013857227750122547,-0.0005281781777739525
1782812277885135000,1.870135009765625,0.003160563064739108,0.00023237895220518112,-0.0016231287736445665
1782812277905217300,1.89021728515625,0.00006388653127942234,-0.00004988815635442734,-0.00006860634312033653
1782812277925300200,1.91030029296875,-0.0010299701243638992,0.0007601892575621605,-0.00008146162144839764
1782812277945382100,1.930382080078125,0.0020228843204677105,-0.0001939786598086357,-0.000006172340363264084
1782812277965465300,1.95046533203125,-0.0006775726797059178,0.0003022938035428524,-0.00042130216024816036
1782812277985548300,1.97054833984375,0.002268322976306081,-0.0005415149498730898,0.0009438657434657216
1782812278005630200,1.990630126953125,-0.00009676750050857663,0.00010100798681378365,0.00007512164302170277
1782812278025713200,2.010713134765625,0.00121454824693501,0.0003654453903436661,-0.0006044013425707817
1782812278045795300,2.03079541015625,0.001421488355845213,0.000350405927747488,-0.001376509666442871
1782812278065878300,2.050878173828125,-0.0011709872633218765,0.0002940804697573185,-0.000029364367946982384
1782812278085961200,2.070961181640625,-0.00039832614129409194,-0.0009900056757032871,0.0013812718680128455
1782812278106043400,2.09104345703125,-0.0012480521108955145,-0.0013040758203715086,0.000980063690803945
1782812278126126300,2.111126220703125,0.0013853469863533974,0.0009906087070703506,0.00018093199469149113
1782812278146208300,2.131208251953125,0.0005338317714631557,0.0014558699913322926,-0.0003060705494135618
1782812278166291200,2.151291259765625,0.0013311695074662566,0.00026236753910779953,-0.0004578130319714546
1782812278186374100,2.1713740234375,0.0008476999355480075,0.0014913114719092846,0.00012397603131830692
1782812278206456000,2.1914560546875,-0.0016116754850372672,-0.0008966689929366112,-0.0002679666504263878
1782812278226539000,2.2115390625,0.0010306860785931349,-0.00014886772260069847,-0.0010031508281826973
1782812278246622200,2.231622314453125,-0.0010123561369255185,-0.000883359694853425,-0.0005042778793722391
1782812278266704400,2.251704345703125,0.001189457019791007,0.00030955392867326736,0.0005584596656262875
1782812278286787300,2.271787353515625,0.00193068478256464,-0.00030526425689458847,-0.00019699567928910255
1782812278306869200,2.291869140625,-0.0001741549640428275,0.0018313969485461712,0.0003647258272394538
1782812278326952200,2.3119521484375,0.0017075055511668324,0.00129988556727767,0.0013861493207514286
1782812278347035100,2.33203515625,-0.0012735843192785978,0.000453087966889143,0.0003417098196223378
1782812278367117000,2.352116943359375,0.001831927802413702,-0.0002696942538022995,-0.00041862274520099163
1782812278387200000,2.372199951171875,-0.0008491494227200747,-0.000035911332815885544,0.0003106289077550173
1782812278407282200,2.3922822265625,-0.0005132399965077639,-0.0001933877356350422,-0.0006714146584272385
1782812278427365400,2.412365478515625,0.0009534083073958755,0.0015539401210844517,0.0016431740950793028
1782812278447448300,2.4324482421875,-0.0016065274830907583,0.0010456130839884281,0.0009821634739637375
1782812278467530200,2.4525302734375,0.0003740341344382614,0.00009731017053127289,-0.000514256302267313
1782812278487613200,2.47261328125,-0.0009458347922191024,-0.00116283493116498,-0.0002893235068768263
1782812278507695000,2.492695068359375,-0.0013276885729283094,-0.0010889738332480192,0.00034444057382643223
1782812278527778000,2.512778076171875,-0.00017823203234001994,0.00004222476854920387,-0.00007677753455936909
1782812278547861200,2.532861328125,-0.0005243908963166177,0.0006821476854383945,0.000688222236931324
1782812278567943400,2.552943359375,0.0019064295338466763,-0.0005624815821647644,0.00015440653078258038
1782812278588026400,2.5730263671875,-0.0018137154402211308,-0.00014488305896520615,0.0009929202497005463
1782812278608108300,2.5931083984375,-0.0016999442595988512,-0.00013646017760038376,0.00003789062611758709
1782812278628191200,2.613191162109375,0.00004098136560060084,-0.001617899164557457,-0.0013663473073393106
1782812278648274200,2.633274169921875,-0.0009361790725961328,0.00042045628651976585,0.00020301737822592258
1782812278668356000,2.653356201171875,0.0001340778253506869,0.001327423844486475,-0.0010756494011729956
1782812278688439000,2.67343896484375,-0.0004991723690181971,-0.00010666018351912498,-0.00015149591490626335
1782812278708521200,2.693521240234375,0.0027965367771685123,0.0010648919269442558,0.0016544293612241745
1782812278728604400,2.7136044921875,-0.00035352815757505596,-0.000021124258637428284,-0.0016910589765757322
1782812278748687400,2.733687255859375,-0.0001688987686065957,0.00040449108928442,0.00032966863363981247
1782812278768768300,2.753768310546875,-0.0005047799786552787,-0.0002718055620789528,0.00014887191355228424
1782812278788851200,2.773851318359375,-0.0008745961240492761,-0.0005886657163500786,-0.0009458812419325113
1782812278808933400,2.793933349609375,0.0016242651036009192,0.0005930564366281033,-0.000763674033805728
1782812278829016300,2.814016357421875,0.000012786418665200472,0.0013776235282421112,0.0002083799336105585
1782812278849099300,2.834099365234375,-0.0000892299140105024,0.0005746032111346722,-0.0013344362378120422
1782812278869181200,2.85418115234375,0.00018847204046323895,-0.0010393771808594465,0.0006884179310873151
1782812278889264000,2.87426416015625,-0.00246292888186872,-0.0009253029711544514,-0.0004858379252254963
1782812278909346300,2.89434619140625,-0.0000030938535928726196,-0.0005860002711415291,0.0001279034186154604
1782812278929429200,2.91442919921875,0.0002256059378851205,-0.00031259795650839806,0.001135028200224042
1782812278949512200,2.93451220703125,0.00005303925718180835,0.0010450179688632488,-0.0003264104016125202
1782812278969594400,2.954594482421875,0.00127786910161376,0.00014469493180513382,-0.000672156224027276
1782812278989677300,2.97467724609375,-0.0017083452548831701,-0.0006589216645807028,-0.0007570539601147175
1782812279009759200,2.99475927734375,-0.00031733530340716243,-0.0012417961843311787,0.0005622077733278275
1782812279029842200,3.01484228515625,-0.0009784091962501407,-0.0000614621676504612,-0.00007511209696531296
1782812279049925400,3.03492529296875,0.00000696655479259789,0.0009105284698307514,-0.00009844382293522358
1782812279070007300,3.05500732421875,0.0001005373487714678,-0.0006596154998987913,0.00026887794956564903
1782812279090090200,3.07509033203125,0.0002030634495895356,0.002212666906416416,-0.00021352479234337807
1782812279110173200,3.095173095703125,0.0002765666868072003,-0.0003551528789103031,0.0008605279726907611
1782812279130255000,3.115255126953125,-0.0007858203607611358,0.00014901859685778618,0.00036610534880310297
1782812279150338000,3.135338134765625,0.0013103358214721084,0.0000757044181227684,0.0007900340715423226
1782812279170420200,3.155420166015625,0.00016366009367629886,-0.0018311450257897377,-0.0017181101720780134
1782812279190503200,3.175503173828125,-0.0000388462794944644,0.001012648455798626,-0.0004722976591438055
1782812279210586400,3.19558642578125,0.000801979738753289,-0.00010098051279783249,0.002370975911617279
1782812279230668300,3.215668212890625,-0.0016460155602544546,-0.0006123841740190983,0.00043214799370616674
1782812279250751200,3.235751220703125,0.0000291304022539407,-0.000619764206930995,-0.001799267716705799
1782812279270833200,3.255833251953125,-0.000134902962599881,-0.0007624321151524782,0.0010186698054894805
1782812279290916000,3.275916015625,0.0006567836971953511,0.000026353634893894196,0.0007220723200589418
1782812279310999000,3.2959990234375,-0.0012351017212495208,0.00033103348687291145,-0.0004002985078841448
1782812279331081200,3.316081298828125,0.00032636229298077524,0.0013533858582377434,-0.001196176977828145
1782812279351164400,3.336164306640625,-0.00032929665758274496,0.0006674961186945438,-0.0004638656973838806
1782812279371246300,3.356246337890625,-0.00042994183604605496,0.00024486612528562546,0.0012167399981990457
1782812279391329300,3.376329345703125,-0.0001873845758382231,-0.001023765653371811,0.00030755880288779736
1782812279411412200,3.396412109375,-0.0009768116287887096,-0.00008191075176000595,0.00046060781460255384
1782812279431494100,3.416494140625,-0.0012220763601362705,-0.0007861766498535872,0.00010102312080562115
1782812279451577000,3.4365771484375,0.0010333299869671464,0.00047428300604224205,0.0003639928763732314
1782812279471659300,3.4566591796875,-0.0015540458261966705,0.0016138078644871712,0.0015456867404282093
1782812279491742200,3.4767421875,0.00033305378747172654,0.0004243631847202778,-0.00009699724614620209
1782812279511825400,3.496825439453125,-0.0005319976480677724,0.000019927043467760086,-0.000407766317948699
1782812279531907300,3.5169072265625,-0.0011930298060178757,-0.000024435576051473618,-0.0010113317985087633
1782812279551990300,3.536990234375,0.0006017331033945084,-0.0008897946681827307,0.0005426009884104133
1782812279572072200,3.557072265625,0.0010558628709986806,-0.0017634725663810968,0.00035812577698379755
1782812279592155100,3.577155029296875,0.001654706196859479,0.0008060154505074024,0.00017701718024909496
1782812279612238000,3.597238037109375,-0.00015762327529955655,-0.000015065539628267288,-0.0009695098269730806
1782812279632320300,3.6173203125,-0.00035122892586514354,-0.0007392417173832655,-0.0016674196813255548
1782812279652403200,3.6374033203125,-0.0022275755181908607,-0.001608693739399314,0.00031818938441574574
1782812279672485000,3.657485107421875,0.0006190147832967341,-0.00006310036405920982,-0.0007823107298463583
1782812279692568300,3.677568359375,0.0012976990547031164,0.0005600778385996819,-0.0004330826923251152
1782812279712651300,3.6976513671875,-0.0007910309941507876,0.0001554037444293499,0.0015614156145602465
1782812279732733200,3.717733154296875,-0.0005716842133551836,0.0002577677369117737,-0.0018120170570909977
1782812279752816000,3.737816162109375,0.0017508245073258877,0.00019609415903687477,-0.00014257477596402168
1782812279772898800,3.75789892578125,-0.00041173375211656094,0.00020670518279075623,-0.000343031482771039
1782812279792981800,3.777981689453125,0.0005708315875381231,0.0007241521961987019,0.000832012970931828
1782812279813064700,3.798064697265625,-0.0005299386684782803,0.00035305460914969444,0.00026905350387096405
1782812279833147000,3.81814697265625,0.0014253542758524418,0.0002926005981862545,-0.0004308251664042473
1782812279853229800,3.838229736328125,0.0005390660371631384,-0.0009392369538545609,-0.000432480126619339
1782812279873311700,3.858311767578125,0.0001622346753720194,0.00043702125549316406,0.0007990695303305984
1782812279893395000,3.87839501953125,0.0010325959883630276,-0.0003623685333877802,-0.0006652052979916334
1782812279913478000,3.898477783203125,-0.0010572747560217977,-0.000213616993278265,-0.00024306192062795162
1782812279933559800,3.918559814453125,0.0003368839679751545,-0.0006441869772970676,0.00009905011393129826
1782812279953642800,3.938642822265625,-0.0008558515692129731,0.0000839773565530777,0.00041976652573794127
1782812279973725000,3.958724853515625,0.0012152716517448425,-0.001264191698282957,-0.00003940868191421032
1782812279993808000,3.978807861328125,0.002362095285207033,0.0008165775798261166,0.0006281656678766012
1782812280013890800,3.998890869140625,-0.0005352069856598973,0.00005947612226009369,-0.0013810631353408098
1782812280033972700,4.01897265625,0.00020408653654158115,0.0007297936826944351,-0.0005171336233615875
1782812280054056000,4.039055908203125,-0.0014869929291307926,-0.0007067644037306309,-0.0008508386090397835
1782812280074137900,4.059137939453125,0.0011307845124974847,0.0014971345663070679,0.00023241667076945305
1782812280094220800,4.079220703125,0.00013417351874522865,-0.0008099270053207874,-0.00025428319349884987
1782812280114303700,4.0993037109375,0.00030554732074961066,-0.0004722937010228634,-0.00007675052620470524
1782812280134386000,4.119385986328125,0.0007617411902174354,-0.00012442190200090408,0.001288814004510641
1782812280154468900,4.13946875,-0.000703867175616324,0.0002736779861152172,-0.00011166371405124664
1782812280174550800,4.15955078125,-0.00030363118276000023,-0.00019705668091773987,0.0007196814985945821
1782812280194634000,4.179634033203125,0.00010877317981794477,0.0002349293790757656,-0.001235665287822485
1782812280214717000,4.199717041015625,-0.00019245248404331505,-0.0012487317435443401,0.0005242667393758893
1782812280234798800,4.219798828125,0.00015345789142884314,0.0015647434629499912,-0.00020073889754712582
1782812280254881800,4.2398818359375,-0.000811192556284368,0.00016582012176513672,-0.0006072779651731253
1782812280274964000,4.2599638671875,-0.0006602159701287746,0.00047073792666196823,-0.0013672285713255405
1782812280295047000,4.280046875,0.0009331311448477209,-0.002121757948771119,0.0010762398596853018
1782812280315129900,4.3001298828125,0.0008037528023123741,0.0004647322930395603,0.00044031336437910795
1782812280335211800,4.320211669921875,-0.0019126043189316988,-0.0008891131728887558,0.000012160278856754303
1782812280355295000,4.340294921875,0.0014821271179243922,-0.0004899052437394857,0.00020231003873050213
1782812280375377000,4.360376953125,0.0006016681436449289,0.0006336048245429993,0.0007319662254303694
1782812280395459800,4.3804599609375,-0.0028798228595405817,0.0006119818426668644,0.001354866661131382
1782812280415542800,4.400542724609375,-0.000011841533705592155,0.0009211888536810875,0.0016290569910779595
1782812280435625000,4.420625,0.0009050318622030318,0.00014198245480656624,0.0005796313052996993
1782812280455708000,4.4407080078125,-0.0005714066792279482,-0.0006406430620700121,-0.0003894465044140816
1782812280475789800,4.460789794921875,0.00040516856824979186,0.0001698196865618229,0.0020866564009338617
1782812280495872800,4.480872802734375,0.0006544870557263494,0.0008620033040642738,0.000988404848612845
1782812280515956000,4.5009560546875,0.0003085194039158523,0.00035838549956679344,-0.0010669080074876547
1782812280536038000,4.521037841796875,0.000184557749889791,-0.00037108943797647953,-0.0012544074561446905
1782812280556120800,4.541120849609375,0.00019230545149184763,0.00003312714397907257,0.001091141952201724
1782812280576202800,4.56120263671875,-0.0013863076455891132,0.001126929186284542,0.00034833524841815233
1782812280596285700,4.58128564453125,0.0005009255837649107,-0.00027562398463487625,-0.0001977591309696436
1782812280616369000,4.601368896484375,-0.0005704878713004291,0.00028362544253468513,0.0004263345617800951
1782812280636450800,4.621450927734375,-0.00019094624440185726,0.00013617752119898796,-0.0008134355302900076
1782812280656534000,4.641533935546875,-0.002140802564099431,0.001282750628888607,0.00004344061017036438
1782812280676617000,4.661616943359375,-0.0007390067912638187,-0.0006966665387153625,-0.0007100000511854887
1782812280696699000,4.681698974609375,0.0017689147498458624,0.001076213549822569,-0.0011247701477259398
1782812280716781800,4.70178173828125,0.0004960651276633143,0.0014160256832838058,0.00044723262544721365
1782812280736863700,4.72186376953125,-0.0007040475611574948,-0.00015233736485242844,0.0005574225215241313
1782812280756946700,4.74194677734375,0.00013539657811634243,0.0010320465080440044,-0.0015560155734419823
1782812280777030100,4.762030029296875,-0.0002215375134255737,0.0005311276763677597,-0.0012191503774374723
1782812280797112300,4.7821123046875,0.000996256130747497,0.001519917044788599,-0.0006092065013945103
1782812280817195300,4.8021953125,-5.651090759783983e-7,-0.00023217685520648956,0.00025711976923048496
1782812280837277200,4.822277099609375,-0.00012356176739558578,-0.0003700372762978077,0.000747338985092938
1782812280857360100,4.842360107421875,0.00011559011181816459,-0.00015884870663285255,0.000005382345989346504
1782812280877443000,4.862443115234375,0.0002891987969633192,0.00006117764860391617,-0.0012020841240882874
1782812280897525000,4.88252490234375,-0.0005259481840766966,-0.00002002064138650894,0.0015905427280813456
1782812280917608000,4.90260791015625,-0.000634287775028497,0.0006717205978929996,0.0011981679126620293
1782812280937690400,4.9226904296875,0.0019076635362580419,-0.0010581575334072113,-0.00035428302362561226
1782812280957773300,4.942773193359375,0.000990042695775628,0.00029226159676909447,-0.0005553374066948891
1782812280977856300,4.962856201171875,-0.0016809338703751564,-0.00035707326605916023,0.001248084125109017
1782812280997938200,4.982938232421875,0.0003345993463881314,-0.000679350458085537,0.00016165454871952534
1782812281018021000,5.003021240234375,0.00003421181463636458,0.0012102392502129078,0.0016570657026022673
1782812281038103000,5.02310302734375,-0.0002746870741248131,-0.000860684085637331,-0.0004399181343615055
1782812281058186000,5.04318603515625,0.0011668428778648376,-0.0008080443367362022,-0.00033545331098139286
1782812281078269200,5.063269287109375,-0.0006920901942066848,-0.0006032756064087152,-0.00014507328160107136
1782812281098351400,5.083351318359375,0.0005670160171575844,0.00008446536958217621,0.0001573681365698576
1782812281118434300,5.103434326171875,-0.0009295104537159204,0.00008230609819293022,-0.0002570857759565115
1782812281138516200,5.12351611328125,-0.00020383609808050096,0.0007123192772269249,0.0000684212427586317
1782812281158599200,5.14359912109375,-0.0012295341584831476,0.0007553924806416035,-0.0015789656899869442
1782812281178682000,5.16368212890625,-0.0004331445088610053,0.0006808247417211533,-0.0007382852490991354
1782812281198764000,5.183763916015625,0.0007085449178703129,-0.0005587171763181686,0.000333146657794714
1782812281218847000,5.203846923828125,-0.0005970944184809923,-0.0006293607875704765,0.00045353651512414217
1782812281238929200,5.22392919921875,-0.000002887449227273464,0.0004938622005283833,-0.000626131659373641
1782812281259012000,5.24401220703125,-0.0007344417390413582,-0.0005944943986833096,0.0017755539156496525
1782812281279095300,5.26409521484375,-0.0005960941780358553,-0.0002640807069838047,-0.00036919722333550453
1782812281299177200,5.28417724609375,0.0007041087374091148,-0.0001221061684191227,-0.0003920639865100384
1782812281319260200,5.30426025390625,0.0003379414265509695,0.0006881048902869225,-0.0005914878565818071
1782812281339342000,5.324342041015625,-0.00048738953773863614,0.0003300989046692848,-0.00034758937545120716
1782812281359424000,5.344424072265625,0.00006541036418639123,-0.0011019252706319094,-0.0016942708753049374
1782812281379507000,5.3645068359375,-0.0003110152028966695,-0.0007575571071356535,-0.00025435443967580795
1782812281399590100,5.384590087890625,0.0004892316646873951,0.00007692305371165276,0.0010947100818157196
1782812281419672300,5.40467236328125,0.00039864415884949267,0.000009187962859869003,0.0004689359338954091
1782812281439755300,5.42475537109375,-0.0007658323738723993,-0.0001437733881175518,0.0013514584861695766
1782812281459837200,5.444837158203125,-0.00018841125711333007,-0.0009780887048691511,0.00017598457634449005
1782812281479920000,5.464920166015625,0.0004819294554181397,0.00015190476551651955,-0.0007703516166657209
1782812281500003000,5.485003173828125,-0.0016169847222045064,-0.0009000231511890888,0.00044295890256762505
1782812281520085000,5.5050849609375,-0.0014429752482101321,0.00016357377171516418,0.0023095831274986267
1782812281540168000,5.52516796875,0.002376302145421505,0.0012307935394346714,0.00014063576236367226
1782812281560250000,5.54525,-0.0013968807179480791,0.0005595996044576168,-0.000606427900493145
1782812281580333300,5.565333251953125,-0.0005061004776507616,-0.002020684303715825,0.0002683147322386503
1782812281600416300,5.585416259765625,0.00024999151355586946,-0.0007589217275381088,0.0003842397127300501
1782812281620498200,5.605498291015625,0.0008905385038815439,0.0004623057320713997,-0.0010562860406935215
1782812281640581000,5.6255810546875,0.00018711131997406483,-0.0014552893117070198,-0.00029192608781158924
1782812281660663000,5.6456630859375,-0.0029113420750945807,-0.0003515917342156172,-0.0005805057007819414
1782812281680746000,5.66574609375,0.0014269208768382668,-0.0009012189693748951,0.0005931606283411384
1782812281700829000,5.685828857421875,-0.0015563698252663016,0.000250757671892643,0.0005769676063209772
1782812281720912100,5.705912109375,0.00036602161708287895,-0.0010404386557638645,-0.0008362282533198595
1782812281740994300,5.725994384765625,-0.0017058304511010647,-0.00032605952583253384,-0.0003909808583557606
1782812281761077200,5.7460771484375,-0.0011511165648698807,-0.0007186236325651407,-0.0003053776454180479
1782812281781159200,5.7661591796875,-0.00023339125618804246,0.0002718060277402401,0.001428872812539339
1782812281801242400,5.786242431640625,0.00016551284352317452,0.00008357129991054535,0.0003742595436051488
1782812281821325300,5.8063251953125,0.00018332124454900622,-0.000672920374199748,0.0012617981992661953
1782812281841407200,5.8264072265625,0.0008794047171249986,-0.0003678281791508198,0.0006033816607668996
1782812281861490200,5.846490234375,-0.001974432496353984,-0.000949525274336338,-0.0014447516296058893
1782812281881572400,5.866572265625,0.000006866786861792207,-0.000883905217051506,0.00006776675581932068
1782812281901655300,5.8866552734375,-0.0012113424018025398,-0.0017131287604570389,0.0007246402092278004
1782812281921738200,5.90673828125,-0.00001825223444029689,0.001125597395002842,-0.0011585857719182968
1782812281941820400,5.9268203125,0.001349055441096425,-0.00046847970224916935,0.00012871809303760529
1782812281961903400,5.9469033203125,-0.0013777439016848803,0.0006113061681389809,-0.00008492567576467991
1782812281981985300,5.9669853515625,0.000591408577747643,-0.0013172151520848274,-0.0001872486900538206
1782812282002068200,5.987068115234375,-0.00032205035677179694,0.000916698481887579,-0.000019965926185250282
1782812282022151200,6.007151123046875,-0.0005080517148599029,-0.0004767382051795721,0.0012903532478958368
1782812282042233300,6.0272333984375,-0.0009519770392216742,0.0010159779340028763,0.0006942225154489279
1782812282062316300,6.04731640625,0.0008522727293893695,-0.00045410916209220886,0.00027366215363144875
1782812282082399500,6.0673994140625,0.00032743802876211703,0.0012697339989244938,-0.00028957147151231766
1782812282102481400,6.0874814453125,0.0008078611572273076,0.0004016696475446224,0.00005323486402630806
1782812282122564400,6.107564453125,-0.0006433704984374344,-0.000990609871223569,0.0003823768347501755
1782812282142646300,6.127646240234375,-0.0014456342905759811,0.0006775767542421818,-0.0003215379547327757
1782812282162729200,6.147729248046875,0.0013981368392705917,-0.00008166208863258362,-0.0005390818696469069
1782812282182812200,6.167812255859375,-0.00041773554403334856,0.0008453694172203541,0.000327051617205143
1782812282202894300,6.187894287109375,0.0006571637350134552,0.0004376671276986599,0.0006639771163463593
1782812282222977300,6.207977294921875,0.0005744572845287621,0.001275679562240839,-0.0016410977113991976
1782812282243059200,6.22805908203125,-0.0010429867543280125,-0.0006871111690998077,-0.0003009436186403036
1782812282263142400,6.248142333984375,-0.0010786338243633509,-0.0006830254569649696,-0.0003132629208266735
1782812282283225300,6.268225341796875,0.00014711718540638685,-0.001227112952619791,-0.0011193174868822098
1782812282303307300,6.288307373046875,-0.0004272162914276123,0.0005618794821202755,-0.00019715563394129276
1782812282323390200,6.30839013671875,0.0014810035936534405,-0.0009035526309162378,0.0004958822391927242
1782812282343472000,6.32847216796875,-0.000994421890936792,-0.0005108139012008905,0.0007134154438972473
1782812282363555000,6.34855517578125,-0.0009051772067323327,0.00017809728160500526,0.0015887859044596553
1782812282383638300,6.36863818359375,-0.00044162195990793407,0.00038156937807798386,-0.000011151423677802086
1782812282403720400,6.388720458984375,0.00033813007757999003,-0.000746188685297966,-0.0010244366712868214
1782812282423803400,6.408803466796875,-0.0004154038615524769,-0.0005380676593631506,-0.0005326997488737106
1782812282443885300,6.42888525390625,0.0003954550775233656,0.00043851928785443306,0.0014415901387110353
1782812282463968300,6.44896826171875,0.0019038754981011152,-0.00024118274450302124,0.0006866883486509323
1782812282484051200,6.46905126953125,-0.000049529262469150126,0.00008773198351264,0.00012944010086357594
1782812282504133000,6.489133056640625,0.00044208436156623065,0.00026090024039149284,-0.000056020915508270264
1782812282524216000,6.509216064453125,0.000315080804284662,0.0003207721747457981,-0.0014797577168792486
1782812282544299300,6.52929931640625,-0.00185806630179286,-0.000759318470954895,0.001995570957660675
1782812282564381400,6.54938134765625,0.0019227259326726198,0.0002558203414082527,-0.00014085648581385612
1782812282584464400,6.56946435546875,-0.00011804825044237077,-0.0006116339936852455,-0.0013796547427773476
1782812282604546300,6.58954638671875,0.0017134075751528144,-0.00016875006258487701,0.0011977525427937508
1782812282624629200,6.609629150390625,-0.00009406749450135976,-0.00007167086005210876,-0.00023881439119577408
1782812282644712200,6.629712158203125,0.0006524526979774237,-0.000007068272680044174,0.00009737047366797924
1782812282664794000,6.649794189453125,-0.000002835993655025959,-0.00024553993716835976,0.0005968131590634584
1782812282684877000,6.669876953125,-0.000011142052244395018,-0.002034940756857395,0.00037935294676572084
1782812282704959200,6.689959228515625,-0.0007235194789245725,0.0011010360904037952,-0.001736822072416544
1782812282725042400,6.71004248046875,0.00034580775536596775,-0.00002117827534675598,-0.00005511566996574402
1782812282745125400,6.73012548828125,0.000026466907002031803,-0.0009668176062405109,-0.0006444621831178665
1782812282765206300,6.750206298828125,0.001829670392908156,-0.0012350119650363922,-0.0007018712349236012
1782812282785289200,6.770289306640625,-0.00046221748925745487,-0.0011594274546951056,0.0002139788120985031
1782812282805371400,6.790371337890625,0.0004561791429296136,-0.0009238047059625387,-0.0001738972496241331
1782812282825454300,6.810454345703125,-0.00042687513632699847,-0.0014401036314666271,-0.0005043665878474712
1782812282845537500,6.83053759765625,0.001782997976988554,0.00025572068989276886,0.00015951297245919704
1782812282865619500,6.850619384765625,0.0004205721488688141,0.0009359195828437805,0.00012732436880469322
1782812282885702400,6.870702392578125,-0.000465212797280401,-0.0007022672798484564,0.0014615217223763466
1782812282905784300,6.890784423828125,-0.0003474951663520187,-0.0003736964426934719,-0.002842841437086463
1782812282925867300,6.9108671875,-0.00103571021463722,0.000026256777346134186,0.0002760926727205515
1782812282945950200,6.9309501953125,0.0011963802389800549,-0.00012935558333992958,0.0005344916135072708
1782812282966032400,6.951032470703125,0.0005558964912779629,0.0007161297835409641,-0.0002145250327885151
1782812282986115300,6.971115234375,0.0004604615387506783,0.00018823519349098206,-0.0014505700673907995
1782812283006197500,6.991197509765625,0.0003864617901854217,0.0002999762073159218,0.0006520894821733236
1782812283026280400,7.011280517578125,-0.001609021332114935,0.00035431841388344765,-0.0005307355895638466
1782812283046363400,7.03136328125,0.0015407719183713198,0.0003521665930747986,-0.00003882497549057007
1782812283066445300,7.0514453125,0.0005537893157452345,-0.00164582091383636,-0.0012581702321767807
1782812283086528300,7.0715283203125,-0.0004953739116899669,0.0005134609527885914,0.00002465536817908287
1782812283106610200,7.091610107421875,0.000580549065489322,-0.0013699897099286318,0.0005973397055640817
1782812283126693400,7.111693359375,0.0005388592835515738,-0.00044166785664856434,0.00057326874230057
1782812283146776300,7.1317763671875,0.00040985216037370265,-0.00027955183759331703,0.0010422958293929696
1782812283166858500,7.1518583984375,-0.0010799318552017212,-0.000638685654848814,0.00016723922453820705
1782812283186941400,7.17194140625,-0.000029400878702290356,-0.0003297482617199421,0.0021331054158508778
1782812283207023400,7.1920234375,-0.0011404432589188218,-0.0004107900895178318,0.0007062598597258329
1782812283227106300,7.212106201171875,0.00004672459908761084,-0.00207187095656991,0.0011394198518246412
1782812283247189200,7.232189208984375,-0.001269966596737504,0.00020724860951304436,0.00009850505739450455
1782812283267271200,7.252271240234375,-0.0005071372725069523,0.001399804838001728,-0.00031144567765295506
1782812283287354000,7.27235400390625,0.001423608511686325,-0.0006303505506366491,0.0013005302753299475
1782812283307436500,7.2924365234375,-0.0009449307690374553,0.00020975805819034576,0.001204488449729979
1782812283327519500,7.31251953125,-0.000817377120256424,-0.0004412583075463772,0.0007046711398288608
1782812283347602400,7.3326025390625,0.0016202374827116728,0.0001265411265194416,-0.00022462173365056515
1782812283367684400,7.352684326171875,0.0011309604160487652,0.0011521526612341404,0.0005102184368297458
1782812283387767300,7.372767333984375,0.0015772952465340495,0.0001586531288921833,0.00004395702853798866
1782812283407849200,7.39284912109375,0.00037963257636874914,-0.001009500352665782,-0.0002478563692420721
1782812283427932200,7.41293212890625,0.001272635068744421,-0.0004121256060898304,-0.0011317245662212372
1782812283448015400,7.433015380859375,-0.0005488470196723938,0.0006701620295643806,-0.00017745909281075
1782812283468097500,7.45309765625,-0.0012300406815484166,-0.0006405545864254236,-0.00012692715972661972
1782812283488180500,7.473180419921875,-0.00009088721708394587,0.0004904973320662975,0.002029228024184704
1782812283508262400,7.493262451171875,-0.00002224816125817597,-0.00140201929025352,-0.00029358617030084133
1782812283528345300,7.513345458984375,0.0016719981795176864,-0.00039391499012708664,0.0002800808288156986
1782812283548428300,7.53342822265625,-0.0009198318002745509,-0.00010558543726801872,0.0012460780562832952
1782812283568510200,7.55351025390625,-0.0009885135805234313,0.0017925542779266834,-0.00022392603568732738
1782812283588593200,7.57359326171875,-0.00048182933824136853,-0.0009384960867464542,0.00019147340208292007
1782812283608675300,7.59367529296875,-0.0012173558352515101,-0.00007527461275458336,-0.001505295280367136
1782812283628758500,7.613758544921875,0.0005632945685647428,0.0007669008336961269,-0.00007428647950291634
1782812283648841500,7.633841552734375,-0.00011849090515170246,-0.0001684785820543766,0.0000018333084881305695
1782812283668923400,7.65392333984375,0.0003148163086734712,-0.0006359892431646585,0.0007194970967248082
1782812283689006300,7.67400634765625,0.0014526793966069818,-0.000966368243098259,0.00006469455547630787
1782812283709089300,7.69408935546875,-0.00012159479956608266,0.0006955075077712536,-0.0015840104315429926
1782812283729171200,7.714171142578125,0.0000721310789231211,-0.0006256168708205223,-0.00013609370216727257
1782812283749254400,7.73425439453125,-0.001738346996717155,-0.0016054983716458082,0.0005016513168811798
1782812283769336800,7.7543369140625,0.0005733486614190042,-0.000043575651943683624,0.00091286760289222
1782812283789419800,7.774419677734375,-0.00044151529436931014,0.0007860059849917889,-0.0004443482030183077
1782812283809502700,7.794502685546875,0.0020414411555975676,0.0000635324977338314,-0.00007135537452995777
1782812283829585000,7.8145849609375,0.0006139809265732765,-0.000702862162142992,0.0002121669240295887
1782812283849667800,7.834667724609375,-0.0002983706071972847,-0.0002919086255133152,-0.002786783268675208
1782812283869749800,7.854749755859375,-0.0005774933379143476,0.00027080345898866653,0.00031085475347936153
1782812283889832700,7.874832763671875,-0.0010011903941631317,-0.00002972688525915146,0.0014998987317085266
1782812283909916000,7.894916015625,0.0015787412412464619,-0.00004915660247206688,0.0012957776198163629
1782812283929997800,7.914997802734375,0.0007647160673514009,0.0013573612086474895,0.0014183006715029478
1782812283950080800,7.935080810546875,0.0007284830790013075,-0.0007084466051310301,0.0007646057056263089
1782812283970163000,7.955162841796875,-0.00045347452396526933,-0.0002237795852124691,-0.0007294637616723776
1782812283990246000,7.975245849609375,0.0001657044340390712,0.000804264098405838,0.0011061488185077906
1782812284010328800,7.995328857421875,0.000644643499981612,0.0011123218573629856,-0.0009625812526792288
1782812284030410800,8.01541064453125,-0.00033910595811903477,0.0013128267601132393,0.0001424849033355713
1782812284050494000,8.035493896484375,-0.0016282731667160988,0.0014559924602508545,-0.0002244866918772459
1782812284070575900,8.055575927734376,0.002076927572488785,0.0006833965890109539,-0.0001534873154014349
1782812284090658800,8.075658935546874,-0.0011374347377568483,-0.0014370330609381199,-0.0003486727364361286
1782812284110741800,8.09574169921875,-0.0003413998638279736,-0.001354397740215063,0.0011685772333294153
1782812284130824000,8.115823974609375,-0.0000022199528757482767,-0.0006895395927131176,0.0010395621648058295
1782812284150907000,8.135906982421876,0.0006234364118427038,-0.0009562063496559858,-0.0004026766400784254
1782812284170988800,8.15598876953125,-0.00004204732249490917,0.00012084562331438065,-0.00016723526641726494
1782812284191071700,8.17607177734375,-0.0017759508918970823,0.00046524032950401306,-0.00028028711676597595
1782812284211155000,8.196155029296875,0.00003868615021929145,0.0008525755256414413,0.0006638882914558053
1782812284231236900,8.21623681640625,0.00017889158334583044,0.0001902896910905838,-0.0015551059041172266
1782812284251319800,8.23631982421875,-0.0011070581385865808,0.00004573585465550423,-0.00004795193672180176
1782812284271402000,8.256402099609375,-0.00015024011372588575,-0.00040850089862942696,-0.000005052424967288971
1782812284291485000,8.27648486328125,-0.003002266399562359,0.0005416865460574627,-0.00016301381401717663
1782812284311566800,8.29656689453125,0.00020114207291044295,0.00048016710206866264,0.000003623310476541519
1782812284331649800,8.31664990234375,0.000017040263628587127,0.0013480368070304394,0.00004955357871949673
1782812284351732700,8.336732666015624,-0.00017472369654569775,-0.0010840389877557755,-0.00017739413306117058
1782812284371815000,8.35681494140625,0.00011215213453397155,-0.0005493746139109135,-0.00024479441344738007
1782812284391897900,8.37689794921875,-0.0004995504859834909,0.00015897629782557487,0.0011552176438272
1782812284411980000,8.39697998046875,0.0005225082277320325,0.0009461655281484127,-0.0002838743384927511
1782812284432063000,8.41706298828125,0.00007788566290400922,0.0003291158936917782,0.0005864165723323822
1782812284452146000,8.43714599609375,-0.0019757586997002363,0.0006256746128201485,0.0008077531820163131
1782812284472227800,8.457227783203125,-0.0011533356737345457,-0.00005121063441038132,-0.0009433445520699024
1782812284492310800,8.477310791015626,-0.0006382587598636746,-0.001157206716015935,0.0005769389681518078
1782812284512392700,8.497392822265626,0.00026604393497109413,-0.0004856910090893507,-0.00013131345622241497
1782812284532476000,8.517475830078125,0.0005840546218678355,-0.0011685746721923351,-0.0009145603980869055
1782812284552558800,8.537558837890625,-0.0011802648659795523,0.0011356868781149387,-0.00014744861982762814
1782812284572640800,8.557640869140625,-0.0004730350919999182,-0.00043808273039758205,-0.0015832583885639906
1782812284592724000,8.577723876953126,-0.0006898391293361783,0.0005553956143558025,0.001189607079140842
1782812284612806000,8.597805908203124,-0.001017135800793767,0.001007803250104189,0.0018051676452159882
1782812284632888800,8.617888916015625,0.0010894304141402245,-0.0007411576807498932,-0.0007758636493235826
1782812284652971800,8.6379716796875,-0.0012200804194435477,0.00032296497374773026,-0.0006608613766729832
1782812284673053700,8.6580537109375,-0.0005240955506451428,0.001025702804327011,0.0006363774882629514
1782812284693137000,8.678136962890624,0.0003884868638124317,0.0006631691940128803,-0.0002551083452999592
1782812284713218800,8.69821875,0.0006341806147247553,0.0010636178776621819,0.0008941902779042721
1782812284733301800,8.7183017578125,0.0002464418939780444,0.00004263874143362045,0.000548025593161583
1782812284753384700,8.738384765625,-0.000611237483099103,-0.00021154619753360748,0.0003866393817588687
1782812284773467100,8.758467041015624,0.0007271879003383219,0.001446153037250042,-0.00024369615130126476
1782812284793550000,8.778550048828125,0.0005742712528444827,-0.0003035091795027256,-0.0011077660601586103
1782812284813632000,8.798632080078125,-0.0011374871246516705,-0.00035576452501118183,-0.00032020220533013344
1782812284833715200,8.818715087890626,0.000766695651691407,0.0001478525809943676,0.0001268268097192049
1782812284853798100,8.838798095703124,-0.0003237192868255079,0.0006363149732351303,-0.0016889392863959074
1782812284873880000,8.858880126953125,-0.0012765112332999706,-0.0009460793808102608,-0.00035675568506121635
1782812284893963000,8.878962890625,0.0012827549362555146,-0.0016604934353381395,-0.001206130487844348
1782812284914045200,8.899045166015625,0.0006569226970896125,-0.0018110875971615314,-0.00028766412287950516
1782812284934128000,8.919128173828126,0.00013822352048009634,-0.000583504093810916,0.000561876455321908
1782812284954211000,8.939211181640625,0.0010502536315470934,-0.0012422206345945597,-0.0017630376387387514
1782812284974293000,8.95929296875,-0.0006150270346552134,0.0007052025757730007,-0.0009438893757760525
1782812284994376200,8.979376220703125,-0.0005926956655457616,0.0007671327330172062,0.00043272797483950853
1782812285014458000,8.9994580078125,-0.001025459379889071,-0.00009093806147575378,-0.0005217487923800945
1782812285034541000,9.019541015625,0.0005378470523282886,-0.0005062371492385864,0.00014333496801555157
1782812285054624000,9.0396240234375,0.00047091118176467717,0.00048180297017097473,-0.00005071749910712242
1782812285074706200,9.0597060546875,0.0011824872344732285,-0.000946784159168601,-0.0010743672028183937
1782812285094789000,9.0797890625,-0.00038051584851928055,0.00064089335501194,0.00023711984977126122
1782812285114871000,9.09987109375,-0.00003121225745417178,0.0008435812778770924,-0.0007005324587225914
1782812285134954200,9.119954345703125,0.0006410692003555596,-0.0006281170062720776,-0.0006327179726213217
1782812285155037200,9.140037109375,-0.00004085965338163078,0.0006948718801140785,0.00001604226417839527
1782812285175119000,9.160119140625,-0.0006405594758689404,0.0015236749313771725,-0.00015436415560543537
1782812285195202000,9.1802021484375,0.000850628362968564,-0.000436282018199563,0.000612167059443891
1782812285215284200,9.2002841796875,0.0007818457088433206,0.0003377217799425125,0.000995362177491188
1782812285235367200,9.2203671875,0.000026570516638457775,0.000008069444447755814,0.0012467744527384639
1782812285255450000,9.2404501953125,-0.000020246152416802943,-0.00004742899909615517,0.000683936639688909
1782812285275532000,9.260531982421876,0.0005094940424896777,0.0002656280994415283,0.0014567436883226037
1782812285295615200,9.280615234375,-0.0007843024795874953,0.0005115503445267677,-0.0002610886003822088
1782812285315697200,9.300697265625,-0.0011208970099687576,-0.0002327091060578823,0.0003910635132342577
1782812285335780000,9.320780029296875,0.0016671813791617751,0.00035565998405218124,-0.0006395331583917141
1782812285355862000,9.340862060546876,-0.0005874864873476326,0.0005688886158168316,0.0003509660018607974
1782812285375945200,9.3609453125,-0.0014271760592237115,-0.00014676572754979134,-0.0013474940788000822
1782812285396027100,9.381027099609375,-0.0005305998492985964,0.0010707229375839233,0.00009225867688655853
1782812285416110000,9.401110107421875,-0.0005686695221811533,0.001678836066275835,-0.0005569867789745331
1782812285436193000,9.421193115234376,0.001838320167735219,0.0008579916320741177,-0.0002232505939900875
1782812285456275000,9.44127490234375,0.0011778390035033226,-0.0002811197191476822,-0.00031757354736328125
1782812285476358100,9.461358154296875,-0.0004082888481207192,-0.00012828921899199486,0.0001100038643926382
1782812285496440000,9.481440185546875,0.00020292302360758185,0.0005828519351780415,0.0008344299858435988
1782812285516523000,9.50152294921875,-0.0009675362380221486,-0.000041925814002752304,-0.0002851630561053753
1782812285536606000,9.52160595703125,-0.0014573780354112387,-0.0007925587706267834,0.0004730267683044076
1782812285556688100,9.541688232421874,0.0007425053627230227,0.0006438931450247765,-0.0013396646827459335
1782812285576771000,9.56177099609375,0.001887861406430602,-0.00004647299647331238,0.0008439862867817283
1782812285596853000,9.58185302734375,-0.0007665546145290136,-0.0005157501436769962,0.0000050549861043691635
1782812285616936200,9.601936279296876,-0.0011326593812555075,0.0010524378158152103,0.00034910126123577356
1782812285637019100,9.62201904296875,0.00011740261106751859,0.00016059447079896927,0.00040690344758331776
1782812285657101000,9.64210107421875,0.00017604237655177712,-0.0004759901203215122,0.0009400269482284784
1782812285677184000,9.66218408203125,-0.00025326997274532914,0.00030857231467962265,0.0005288062384352088
1782812285697267000,9.682266845703126,0.00028723731520585716,0.0003780508413910866,0.0005184434121474624
1782812285717349000,9.70234912109375,0.0006157123716548085,-0.00006663566455245018,0.0004187487065792084
1782812285737432000,9.72243212890625,0.0005486722220666707,0.0026552965864539146,-0.0000453130342066288
1782812285757514000,9.742513916015625,-0.0018530486850067973,-0.0007330984808504581,0.00210511963814497
1782812285777597700,9.76259765625,-0.0004911638679914176,-0.0008477824740111828,-0.00024882564321160316
1782812285797680600,9.7826806640625,0.00007531556184403598,-0.0006544245406985283,-0.000482107512652874
1782812285817762600,9.802762451171875,0.0012008188059553504,-0.000916715245693922,0.0007220725528895855
1782812285837845800,9.822845703125,-0.0008910503820516169,-0.0017422670498490334,-0.000895229633897543
1782812285857927700,9.842927734375,0.0004399309982545674,0.0006220457144081593,-0.0005116541869938374
1782812285878010600,9.8630107421875,0.0006714524934068322,-0.00024402188137173653,0.0005242240149527788
1782812285898093800,9.88309375,-0.0003587509854696691,-0.00023229653015732765,-0.00022376654669642448
1782812285918175700,9.90317578125,-0.0014461665414273739,0.00010962504893541336,0.00003612181171774864
1782812285938258700,9.9232587890625,-0.0007658246322534978,-0.001777363708242774,-0.0011048002634197474
1782812285958340600,9.943340576171876,0.00021096481941640377,-0.0008711176924407482,-0.0002138551790267229
1782812285978423800,9.963423828125,0.0007795497076585889,0.0007278444245457649,-0.00009348033927381039
1782812285998506800,9.9835068359375,0.0011431523598730564,-0.00041216425597667694,0.0012037053238600492
1782812286018588700,10.003588623046875,0.0003587254323065281,-0.00006340863183140755,-0.0014405425172299147
1782812286038671600,10.023671630859376,-0.0009648599661886692,0.02722087875008583,0.008450276218354702
1782812286058753800,10.04375390625,-0.0002880258543882519,0.013600584119558334,0.0044393655844032764
1782812286078836700,10.063836669921875,0.0009210175485350192,-0.016824111342430115,-0.0063325148075819016
1782812286098919700,10.083919677734375,0.0014980826526880264,-0.022537363693118095,-0.007311443332582712
1782812286119001600,10.104001708984375,0.0007027761312201619,-0.0031892869155853987,-0.0017218049615621567
