time,seconds_elapsed,z,y,x
1782811935648554500,0.064554443359375,-0.005111069418489933,-0.0015728892758488655,0.00044126168359071016
1782811935668637400,0.084637451171875,0.0054320949129760265,-0.00016708439216017723,-0.0006605358794331551
1782811935688720400,0.104720458984375,-0.0045641446486115456,-0.0003631226718425751,0.0007309261709451675
1782811935708802600,0.124802490234375,0.0035295540001243353,-0.00042581791058182716,-0.0014225095510482788
1782811935728885500,0.144885498046875,-0.0003953295527026057,0.000776384025812149,-0.00044210953637957573
1782811935748968400,0.164968505859375,-0.00357646681368351,0.0003914949484169483,0.00140330009162426
1782811935769050400,0.18505029296875,0.0042686364613473415,-0.0001841769553720951,-0.0011320244520902634
1782811935789133600,0.205133544921875,-0.005926838610321283,-0.0005983426235616207,-0.0012837497051805258
1782811935809216500,0.225216552734375,0.0035927132703363895,0.00031843967735767365,0.0003127013333141804
1782811935829298400,0.24529833984375,-0.00281340628862381,0.00040458887815475464,0.00037329562474042177
1782811935849381400,0.26538134765625,-0.0005469908937811852,-0.000611643772572279,0.00031953887082636356
1782811935869464300,0.28546435546875,0.004163957666605711,-0.0006824205629527569,0.0002424104604870081
1782811935889546500,0.30554638671875,-0.003335487563163042,0.0015507801435887814,-0.0006990737747400999
1782811935909629400,0.32562939453125,0.003095206804573536,-0.0006063319742679596,0.001224003965035081
1782811935929712600,0.345712646484375,-0.004046874586492777,-0.0001143207773566246,-0.0003280302044004202
1782811935949794600,0.365794677734375,0.002255754079669714,-0.0005459561944007874,-0.000050633447244763374
1782811935969877500,0.38587744140625,-0.0013700908748432994,-0.0016765787731856108,0.0005571960937231779
1782811935989960400,0.40596044921875,-0.002544014248996973,0.0007703001610934734,0.001898992108181119
1782811936010043400,0.42604345703125,0.0026429288554936647,0.0008211224339902401,-0.00009058043360710144
1782811936030125300,0.446125244140625,-0.0023456881754100323,0.0006534839048981667,-0.00011487235315144062
1782811936050208500,0.46620849609375,0.0031277905218303204,-0.00014325277879834175,-0.0011088999453932047
1782811936070291500,0.48629150390625,-0.003366962308064103,-0.002112586284056306,0.0006785789737477899
1782811936090374400,0.50637451171875,0.00018745323177427053,-0.00123372464440763,-0.0015419949777424335
1782811936110457300,0.526457275390625,0.0013119213981553912,-0.00022182008251547813,-0.00049618910998106
1782811936130540300,0.546540283203125,-0.003672717371955514,-0.0000239470973610878,-0.0008338778279721737
1782811936150622500,0.56662255859375,0.0035580152180045843,-0.00022515607997775078,-0.0010972076561301947
1782811936170705700,0.58670556640625,-0.0054511758498847485,0.0012176185846328735,0.0006734713679179549
1782811936190788600,0.60678857421875,0.003033921355381608,-0.0004921306390315294,-0.0006261512171477079
1782811936210870500,0.62687060546875,-0.0010601164540275931,0.0007425546646118164,-0.00020379223860800266
1782811936230953500,0.646953369140625,-0.0006252619787119329,-0.0003149365074932575,-0.0000056533608585596085
1782811936251036400,0.667036376953125,0.002133150352165103,-0.00018348358571529388,-0.0004227920435369015
1782811936271118300,0.687118408203125,-0.003680181922391057,-0.0003292541950941086,0.0011836093617603183
1782811936291201300,0.707201171875,0.0033334121108055115,-0.00005839252844452858,-0.0014689296949654818
1782811936311284500,0.727284423828125,-0.003185173962265253,0.0003237859345972538,0.0005730688571929932
1782811936331367400,0.747367431640625,0.0026154983788728714,-0.00002034241333603859,0.0015373912174254656
1782811936351449600,0.76744970703125,0.00024461280554533005,-0.0003917943686246872,0.00022106850519776344
1782811936371532500,0.787532470703125,-0.003271152963861823,-0.0007218187674880028,-0.00025092344731092453
1782811936391615500,0.807615478515625,0.002111966721713543,0.00006404751911759377,-0.00021802657283842564
1782811936411697400,0.827697509765625,-0.003036569571122527,0.000976793933659792,0.0013741423608735204
1782811936431780600,0.847780517578125,0.0017876537749543786,-0.0010449192486703396,0.00009493809193372726
1782811936451863600,0.867863525390625,-0.0006469088257290423,-0.0019391733221709728,0.0000579336192458868
1782811936471945500,0.887945556640625,-0.0011373015586286783,-0.0021103331819176674,-0.0007877661846578121
1782811936492028400,0.9080283203125,0.0012838238617405295,0.00026882393285632133,0.0008134219096973538
1782811936512111400,0.928111328125,-0.0032298497390002012,0.0005025132559239864,0.0009613679721951485
1782811936532193500,0.948193603515625,0.0036737127229571342,-0.00000155717134475708,0.00011232984252274036
1782811936552276500,0.9682763671875,-0.0009597630705684423,-0.00036600674502551556,-0.001520060934126377
1782811936572359700,0.988359619140625,0.0002905092260334641,-0.000046331435441970825,-0.0012518633157014847
1782811936592441600,1.008441650390625,-0.00041064349352382123,-0.00039325165562331676,0.0001118658110499382
1782811936612524500,1.028524658203125,-0.0012054938124492764,-0.0007338882423937321,0.000514299375936389
1782811936632607500,1.048607421875,0.00149326934479177,0.00047948164865374565,-0.0012013786472380161
1782811936652689400,1.068689453125,-0.002270718105137348,-0.0005675507709383965,0.0004660007543861866
1782811936672772400,1.0887724609375,0.0009813931537792087,-0.0008130355272442102,0.00011294311843812466
1782811936692855300,1.108855224609375,-0.0019911767449229956,0.0008414201438426971,6.58910721540451e-7
1782811936712938500,1.1289384765625,0.0011238326551392674,0.0010388637892901897,-0.0013851861003786325
1782811936733020700,1.149020751953125,-0.0007467601681128144,-0.0017777930479496717,-0.0021936811972409487
1782811936753103600,1.169103515625,-0.0015143821947276592,0.0007825815118849277,0.0013973943423479795
1782811936773186600,1.1891865234375,0.0015379904070869088,-0.0004637113306671381,0.000009599607437849045
1782811936793268500,1.2092685546875,-0.0020522582344710827,0.0008996087126433849,-0.00017841090448200703
1782811936813351400,1.229351318359375,0.0009932578541338444,0.0009953049011528492,-0.00035592634230852127
1782811936833434400,1.249434326171875,-0.0017880285158753395,0.00023363810032606125,0.0006979388417676091
1782811936853516500,1.2695166015625,0.00039677132735960186,-0.00044023385271430016,0.00006177462637424469
1782811936873599500,1.289599609375,-0.000010892923455685377,-0.0001525823026895523,0.0007385235512629151
1782811936893682400,1.309682373046875,-0.0026895692571997643,-0.0005383249372243881,0.00007359171286225319
1782811936913764400,1.329764404296875,0.0011567439651116729,-0.001088365213945508,0.0018832364585250616
1782811936933847600,1.34984765625,-0.0025831330567598343,0.00023442693054676056,0.00021183653734624386
1782811936953930500,1.369930419921875,0.0011740869376808405,0.0007609487511217594,-0.00016564689576625824
1782811936974012400,1.390012451171875,-0.00018311681924387813,0.00002742186188697815,-0.0014556169044226408
1782811936994095600,1.410095703125,-0.001005647238343954,0.0008581834845244884,-0.0018838797695934772
1782811937014178600,1.430178466796875,0.0014735201839357615,0.0007748426869511604,0.0009530722163617611
1782811937034260500,1.450260498046875,0.0005500016268342733,-0.0007471800781786442,-0.0011334705632179976
1782811937054343400,1.470343505859375,0.0015027527697384357,0.0010517812334001064,0.0009117542067542672
1782811937074426000,1.490426025390625,-0.00023716261785011739,0.00042756926268339157,0.0011382456868886948
1782811937094508300,1.51050830078125,-0.0007085016695782542,-0.0007245622109621763,-0.0003605904057621956
1782811937114591200,1.53059130859375,-0.0013992240419611335,0.0006930199451744556,0.00042746891267597675
1782811937134674200,1.550674072265625,-0.0008611658704467118,0.0007806271314620972,-0.00032654148526489735
1782811937154756000,1.570756103515625,0.001999440137296915,-0.0005629558581858873,-0.0015124164056032896
1782811937174839000,1.590839111328125,-0.0012588079553097486,-0.0005216817371547222,0.00018792739138007164
1782811937194922000,1.610921875,0.0006549717509187758,-0.0016415177378803492,0.00004710000939667225
1782811937215005200,1.631005126953125,-0.000744438439141959,0.0007187454029917717,-0.0006163106299936771
1782811937235087000,1.651087158203125,-0.0003892454842571169,0.00048468681052327156,0.0006706508575007319
1782811937255170000,1.671170166015625,0.0003937199362553656,-0.0007635450456291437,0.000682466896250844
1782811937275253000,1.6912529296875,-0.0014400961808860302,-0.00008015474304556847,0.0003403055015951395
1782811937295335200,1.711335205078125,0.0018302816897630692,-0.0007183738052845001,-0.0005684220232069492
1782811937315418000,1.731418212890625,0.0001517468481324613,-0.00015981635078787804,0.0009463188471272588
1782811937335501300,1.751501220703125,0.0019688294269144535,-0.0010754745453596115,0.0006220501381903887
1782811937355583200,1.771583251953125,0.00013442846830002964,-0.00023671844974160194,-0.0005656625144183636
1782811937375666200,1.791666259765625,-0.0013338120188564062,-0.00039273244328796864,0.00020453240722417831
1782811937395749000,1.8117490234375,0.0021700274664908648,-0.0007721362635493279,0.0011174813844263554
1782811937415831000,1.8318310546875,-0.000886400870513171,-0.0006039210129529238,0.00044022221118211746
1782811937435914000,1.8519140625,0.0005464115529321134,0.0023050648160278797,0.0000025508925318717957
1782811937455997000,1.871996826171875,-0.001222357270307839,-0.0002604327164590359,0.00016823457553982735
1782811937476079000,1.8920791015625,0.0009780940599739552,-0.0003806075546890497,-0.00017236149869859219
1782811937496162300,1.912162353515625,0.00045290286652743816,-0.00006516370922327042,-0.00007110484875738621
1782811937516245200,1.932245361328125,-0.0016277695540338755,-0.0024049244821071625,0.0003469455987215042
1782811937536327200,1.9523271484375,0.0008499880786985159,0.0008359868079423904,-0.0004350540693849325
1782811937556410000,1.97241015625,-0.00008249329403042793,-0.00015657301992177963,-0.00028805178590118885
1782811937576493000,1.9924931640625,0.0007015013252384961,0.00021551921963691711,0.00008426723070442677
1782811937596575000,2.012574951171875,-0.0022747297771275043,-0.0007340426091104746,0.0007079527713358402
1782811937616658000,2.032657958984375,-0.0005286948871798813,-0.0004317997954785824,0.0007093282183632255
1782811937636741000,2.0527412109375,0.0007148090517148376,-0.00048136734403669834,-0.00016058213077485561
1782811937656823000,2.072822998046875,0.00009941679309122264,0.0003871675580739975,0.0005481286207213998
1782811937676906000,2.092906005859375,-0.0005275563453324139,-0.0010131518356502056,0.0004652646603062749
1782811937696989200,2.1129892578125,-0.00030076998518779874,0.0005252263508737087,0.0002046676818281412
1782811937717071000,2.133071044921875,0.0015828685136511922,-0.0009678818751126528,-0.00003069918602705002
1782811937737154000,2.153154052734375,0.00013813431723974645,0.002287846989929676,0.00010101380757987499
1782811937757237200,2.1732373046875,0.00046973564894869924,0.0003157281316816807,-0.0003251016605645418
1782811937777319200,2.193319091796875,-0.0006254559848457575,0.0004779337905347347,0.0009510560194030404
1782811937797402000,2.213402099609375,-0.0004645141016226262,-0.0004583203699439764,0.0005221756873652339
1782811937817485000,2.233485107421875,0.00035932648461312056,0.00017903326079249382,0.00009162025526165962
1782811937837567000,2.25356689453125,-0.0015171519480645657,0.00041777826845645905,0.0011100702686235309
1782811937857650000,2.27364990234375,0.0012995877768844366,0.0005697379820048809,-0.000527860363945365
1782811937877733000,2.293733154296875,-0.00038877828046679497,-0.0008761885110288858,0.0004503007512539625
1782811937897815000,2.31381494140625,0.00028412489336915314,0.0005949335172772408,-0.00028714793734252453
1782811937917898200,2.333898193359375,0.00032840954372659326,0.0002037500962615013,0.0008787760743871331
1782811937937981200,2.353981201171875,0.0006827979814261198,0.00005602417513728142,0.0007298245327547193
1782811937958063000,2.37406298828125,0.000701274024322629,0.0002504237927496433,-0.0006462999153882265
1782811937978146000,2.39414599609375,-0.0006983791245147586,-0.0011112689971923828,0.00013057515025138855
1782811937998229000,2.41422900390625,-0.00006801668496336788,0.000756735447794199,0.00021542515605688095
1782811938018311000,2.434310791015625,0.00048638961743563414,-0.000463021919131279,0.00042577541898936033
1782811938038393900,2.454393798828125,-0.00039165461203083396,-0.000697646290063858,0.00016451929695904255
1782811938058477000,2.47447705078125,0.003032105276361108,-0.00006141699850559235,0.0007466863607987761
1782811938078560000,2.49456005859375,0.0007465737871825695,-0.00008671870455145836,0.0005044153658673167
1782811938098642200,2.51464208984375,-0.0000887329806573689,0.0009735524654388428,0.0006825604941695929
1782811938118725000,2.53472509765625,0.0006196678732521832,-0.00009064655750989914,0.0010809693485498428
1782811938138808000,2.55480810546875,-0.000513022649101913,-0.00025945995002985,0.0024907824117690325
1782811938158890000,2.574889892578125,0.0013038420584052801,-0.000173183623701334,0.0011530823539942503
1782811938178973200,2.59497314453125,-0.0010139612713828683,-0.0001586289145052433,0.00033369369339197874
1782811938199056100,2.61505615234375,0.00007008200918789953,-0.0008457840885967016,0.0004989970475435257
1782811938219138000,2.635137939453125,-0.0011149399215355515,-0.00019915401935577393,0.0009413922671228647
1782811938239221000,2.655220947265625,0.0002463427954353392,0.0012711104936897755,-0.0011627504136413336
1782811938259304000,2.675303955078125,0.0013030236586928368,-0.0007936679758131504,-0.000534549355506897
1782811938279386000,2.69538623046875,-0.0007018514443188906,-0.0004492106381803751,0.0014419532380998135
1782811938299469000,2.715468994140625,-0.00007488814298994839,-0.000700254226103425,0.0005697020096704364
1782811938319552300,2.73555224609375,0.0008477936498820782,0.0010739630088210106,0.000612016418017447
1782811938339634200,2.75563427734375,0.00126967066898942,-0.0008480260148644447,0.0011240282328799367
1782811938359717000,2.775717041015625,-0.00036231440026313066,-0.0004504160024225712,-0.000031517352908849716
1782811938379800000,2.795800048828125,-0.0014571319334208965,0.0007769721560180187,0.00016433000564575195
1782811938399882000,2.815882080078125,0.0008108486072160304,0.00015555275604128838,0.0008888363372534513
1782811938419965000,2.83596484375,-0.0004948867717757821,-0.0005101719871163368,0.00008742231875658035
1782811938440047900,2.8560478515625,-0.00029908010037615895,-0.0012265327386558056,0.00021795602515339851
1782811938460130000,2.876130126953125,-0.0002436315844533965,0.0010574865154922009,0.0005569104105234146
1782811938480213200,2.896213134765625,0.0009376918314956129,-0.00037139165215194225,-0.0007338577415794134
1782811938500296200,2.916296142578125,-0.0017401156947016716,0.0004164166748523712,-0.0005414134357124567
1782811938520378000,2.936378173828125,-0.0011656044516712427,0.0011256206780672073,0.0005089758196845651
1782811938540461000,2.9564609375,0.001249311026185751,-0.0015279047656804323,0.0006911455420777202
1782811938560544000,2.9765439453125,-0.001989406766369939,-0.0012454991228878498,0.0016910661943256855
1782811938580626000,2.9966259765625,-0.0014828495914116502,-0.0007530027069151402,0.00030627078376710415
1782811938600709000,3.016709228515625,0.00034236046485602856,0.0009345123544335365,-0.000028363429009914398
1782811938620792000,3.0367919921875,0.000874955381732434,0.0008586607873439789,-0.00033088913187384605
1782811938640874200,3.056874267578125,0.0014878783840686083,-0.00007991818711161613,-0.0006654271855950356
1782811938660957200,3.076957275390625,-0.001394691877067089,-0.00032861577346920967,0.0007708240300416946
1782811938681040100,3.0970400390625,0.0010904907248914242,0.0008115805685520172,0.0005505983717739582
1782811938701122000,3.1171220703125,0.0003204972017556429,0.00042784400284290314,-0.0007687772158533335
1782811938721205000,3.137205078125,-0.0008398568024858832,0.00011478178203105927,0.0005285060033202171
1782811938741288200,3.1572880859375,0.0003026849590241909,-0.0007784138433635235,0.000651606940664351
1782811938761370000,3.1773701171875,-0.00026657761191017926,0.0005438984371721745,0.0016504998784512281
1782811938781453000,3.197453125,-0.0018850576598197222,-0.000343929510563612,-0.0005632091779261827
1782811938801536000,3.217535888671875,-0.002192160114645958,-0.002266683615744114,-0.0003019445575773716
1782811938821618200,3.2376181640625,-0.000016505757230333984,-0.0014772005379199982,0.001052512670867145
1782811938841701000,3.257701171875,-0.0013670569751411676,-0.0005421943496912718,-0.000060461461544036865
1782811938861784000,3.2777841796875,0.0005582617595791817,0.00030608847737312317,-0.000021867454051971436
1782811938881866000,3.297865966796875,-0.001341876108199358,0.00024015503004193306,0.0010211816988885403
1782811938901949200,3.31794921875,0.000055869517382234335,-0.00015470106154680252,0.0016871490515768528
1782811938922032000,3.3380322265625,0.0003075636923313141,-0.0010741231963038445,0.0018574303248897195
1782811938942114000,3.358114013671875,0.00006020802538841963,-0.00025510136038064957,0.0003658946370705962
1782811938962197000,3.378197021484375,0.0009968122467398643,0.00007271161302924156,0.001803681836463511
1782811938982280000,3.398280029296875,-0.00013423225027509034,0.001302293036133051,0.0014609331265091896
1782811939002362000,3.418362060546875,0.0005088528851047158,0.0005864687263965607,-0.00018424494192004204
1782811939022445300,3.4384453125,-0.0002962362195830792,-0.0011681627947837114,0.0014419383369386196
1782811939042528300,3.4585283203125,-0.0014695636928081512,0.001176247838884592,0.000701352022588253
1782811939062610200,3.478610107421875,0.0010351617820560932,0.0005643311887979507,-0.00022458168677985668
1782811939082692400,3.4986923828125,-0.0008772994624450803,0.00042462628334760666,0.0007628231542184949
1782811939102775600,3.518775634765625,0.00046465208288282156,-0.0006823244038969278,0.0009759330423548818
1782811939122858500,3.5388583984375,0.00015022291336208582,-0.00012514693662524223,-0.00010671769268810749
1782811939142940400,3.5589404296875,0.0001279064454138279,-0.0003260769881308079,-0.0003931520041078329
1782811939163023400,3.5790234375,-0.002269606338813901,-0.0007857109885662794,0.0015281537780538201
1782811939183105500,3.59910546875,-0.000449853774625808,0.0007498133927583694,-0.000008915085345506668
1782811939203188500,3.6191884765625,-0.0001108939468394965,0.0011548502370715141,0.0010914645390585065
1782811939223271700,3.639271728515625,0.0003574293223209679,-0.0002644066698849201,-0.000007966067641973495
1782811939243354600,3.659354736328125,0.000464584183646366,0.00000248616561293602,-0.00018807081505656242
1782811939263436500,3.6794365234375,0.0006806981982663274,-0.00043252226896584034,-0.00040575023740530014
1782811939283519500,3.69951953125,0.0004597686929628253,0.00003285333514213562,0.0015886633191257715
1782811939303602400,3.7196025390625,-0.0008416947675868869,0.0016183960251510143,0.00008263695053756237
1782811939323684400,3.739684326171875,-0.0010749661596491933,-0.00017779693007469177,0.0006758876843377948
1782811939343767300,3.759767333984375,0.0007711818325333297,-0.00022398121654987335,-0.0006654513999819756
1782811939363850500,3.7798505859375,0.0009471339290030301,0.00009016459807753563,0.0006652440642938018
1782811939383932700,3.7999326171875,-0.0007085921242833138,-0.0012767876032739878,-0.0011057488154619932
1782811939404015600,3.820015625,-0.00023115139629226178,0.00001893145963549614,-0.00025136559270322323
1782811939424098600,3.8400986328125,-0.00004374803393147886,-0.0006200894713401794,0.00037567398976534605
1782811939444180500,3.860180419921875,0.0010156139032915235,-0.00010149925947189331,0.00008427142165601254
1782811939464263400,3.880263427734375,-0.0011944104917347431,0.0004116878844797611,0.0011278802994638681
1782811939484346400,3.900346435546875,-0.00008760832133702934,-0.0001376592554152012,0.001109399599954486
1782811939504428300,3.92042822265625,0.000033762247767299414,0.0001529250293970108,0.00006023747846484184
1782811939524511500,3.940511474609375,0.00028290643240325153,-0.0004321301821619272,-0.00010349485091865063
1782811939544594400,3.960594482421875,-0.0007584043778479099,-0.0005760812200605869,0.00037539831828325987
1782811939564676600,3.980676513671875,0.0002812960301525891,0.0005855187773704529,-0.0007800580933690071
1782811939584759600,4.000759521484375,-0.00006966701766941696,0.0007649888284504414,0.00026225391775369644
1782811939604842500,4.020842529296875,0.0002967624750453979,-0.0006790328770875931,0.0012520748423412442
1782811939624924400,4.04092431640625,0.00024271151050925255,0.0013934336602687836,0.0011044555576518178
1782811939645007600,4.061007568359375,-0.0002087517932523042,0.0009501189924776554,0.0019280596170574427
1782811939665090600,4.081090576171875,-0.0011650958331301808,0.00011470215395092964,-0.0016204256098717451
1782811939685172500,4.10117236328125,-0.0008102169958874583,0.0016393503174185753,-0.0005453717894852161
1782811939705255400,4.12125537109375,-0.0008750738343223929,-0.0007188138552010059,0.0005460258107632399
1782811939725338400,4.14133837890625,0.00017672538524493575,0.0012683188542723656,0.0008643968030810356
1782811939745420500,4.161420654296875,-0.0013826815411448479,-0.0005168418865650892,-0.0002664327621459961
1782811939765503500,4.18150341796875,-0.0009477860876359046,-0.00010073743760585785,0.0003871009685099125
1782811939785586700,4.201586669921875,-0.00014453745097853243,0.0005067614838480949,0.00010750791989266872
1782811939805668600,4.221668701171875,0.00042432761983945966,0.000055437441915273666,0.0005898878443986177
1782811939825751600,4.24175146484375,-0.0009075634879991412,-0.00010038819164037704,0.00040965492371469736
1782811939845834500,4.26183447265625,-0.0013966344995424151,0.00012568524107336998,-0.0007909408304840326
1782811939865916400,4.28191650390625,0.0002931643684860319,0.00027907127514481544,-0.00042749219574034214
1782811939885999400,4.301999267578125,-0.0012434935197234154,0.0009311391040682793,0.00033027364406734705
1782811939906082300,4.322082275390625,0.000489449652377516,0.0013218047097325325,0.0007602089317515492
1782811939926164500,4.34216455078125,-0.0006648364942520857,0.0003780052065849304,0.0004685581661760807
1782811939946247700,4.36224755859375,0.00022036192240193486,-0.0008971928618848324,0.0004037752514705062
1782811939966330600,4.38233056640625,0.0007914184243418276,0.0008621928282082081,-0.0010999892838299274
1782811939986412500,4.40241259765625,-0.000978938420303166,0.0007593017071485519,-0.0007233105134218931
1782811940006495500,4.42249560546875,-0.0019438243471086025,-0.0008699717000126839,0.0012803305871784687
1782811940026578400,4.442578369140625,-0.0006098392186686397,0.0006849858909845352,-0.0004002857021987438
1782811940046660400,4.462660400390625,-0.00017279904568567872,0.0003189411945641041,0.00021245097741484642
1782811940066743600,4.48274365234375,-0.0007936051115393639,-0.0005911386106163263,-0.00032528932206332684
1782811940086826800,4.50282666015625,-0.0005285973893478513,0.0009463820606470108,-0.00015879375860095024
1782811940106908700,4.52290869140625,0.00032645725877955556,-0.0002827737480401993,-0.0009868573397397995
1782811940126992000,4.542991943359375,-0.001963487360626459,0.0002638944424688816,-0.00005243951454758644
1782811940147074800,4.56307470703125,-0.0018348668236285448,0.00018387241289019585,-0.000359394121915102
1782811940167157000,4.583156982421875,-0.0003200608480256051,-0.00004835519939661026,-0.0019165442790836096
1782811940187240000,4.603239990234375,-0.00027320446679368615,-0.00033238809555768967,0.00009766174480319023
1782811940207323000,4.623322998046875,-0.0006145247025415301,0.0007485691457986832,0.0006087507354095578
1782811940227404800,4.64340478515625,-0.0004451695713214576,-0.0006398141849786043,-0.001027009915560484
1782811940247487700,4.66348779296875,-0.00005120693822391331,0.0006068558432161808,0.00014650914818048477
1782811940267570700,4.68357080078125,-0.00004575727507472038,-0.0009078052826225758,0.0008799652568995953
1782811940287652600,4.703652587890625,0.00011694413842633367,-0.0013391589745879173,0.0012921913294121623
1782811940307735800,4.72373583984375,-0.00004112275200895965,0.0009336415678262711,-0.0004864560905843973
1782811940327818800,4.74381884765625,0.0005774362944066525,0.00041281385347247124,0.0010039628250524402
1782811940347901000,4.76390087890625,0.00028753391234204173,-0.0005155731923878193,0.0021477241534739733
1782811940367983900,4.78398388671875,-0.0024731908924877644,-0.0006807332392781973,-0.0013992644380778074
1782811940388066800,4.80406689453125,-0.00011395025649107993,-0.00021942099556326866,-0.00046839448623359203
1782811940408148700,4.824148681640625,0.000010288698831573129,-0.0009481841698288918,-0.0006932087708264589
1782811940428231700,4.844231689453125,-0.0015454536769539118,0.000056630466133356094,-0.001004637684673071
1782811940448315000,4.86431494140625,0.00019112619338557124,-0.0009902238380163908,0.0007441173074766994
1782811940468396800,4.884396728515625,0.00037282018456608057,0.0009221662767231464,0.000907679321244359
1782811940488479700,4.904479736328125,0.0005375256878323853,0.0003576981835067272,0.0001838060561567545
1782811940508562700,4.924562744140625,0.0010233952198177576,-0.0007276756223291159,-0.00017945002764463425
1782811940528644900,4.944644775390625,0.00022590663866139948,0.0001122327521443367,-0.0005807105917483568
1782811940548727800,4.964727783203125,-0.001497976714745164,0.0004682452417910099,-0.0005466041620820761
1782811940568811000,4.98481103515625,0.0008134247036650777,0.00010200683027505875,0.0007176290964707732
1782811940588893000,5.004892822265625,-0.00020788190886378288,-0.00005125114694237709,0.00041929795406758785
1782811940608976000,5.024975830078125,0.00018318346701562405,0.0012482274323701859,0.00010714773088693619
1782811940629058800,5.045058837890625,0.000411341548897326,0.0005748104304075241,-0.0003564900252968073
1782811940649140700,5.065140625,-0.0022507314570248127,0.0005224240012466908,-0.00017081969417631626
1782811940669223700,5.0852236328125,0.00020632336963899434,-0.002032801741734147,0.0001253711525350809
1782811940689306600,5.105306640625,-0.0022227021399885416,0.0003928006626665592,0.0007497293408960104
1782811940709388800,5.125388916015625,0.0008094387012533844,0.0005995379760861397,0.0009124274365603924
1782811940729472000,5.145471923828125,-0.00024629966355860233,0.00016358820721507072,0.0010668900795280933
1782811940749555000,5.165554931640625,-0.0003744654532056302,0.001042465679347515,0.0004656712990254164
1782811940769636900,5.185636962890625,0.002153070643544197,-0.0005769692361354828,-0.001573122339323163
1782811940789719800,5.2057197265625,-0.0005199521547183394,0.0005200495943427086,-0.0003074263222515583
1782811940809802800,5.225802734375,-0.0003889166400767863,0.001090702135115862,-0.000669245608150959
1782811940829884700,5.245884765625,-0.00012647136463783681,0.00008671404793858528,-0.0005007483996450901
1782811940849967600,5.265967529296875,-0.00011300182086415589,0.0002619395963847637,0.0004082084633409977
1782811940870050800,5.28605078125,0.0012700168881565332,0.00110222352668643,-0.0010782096069306135
1782811940890133000,5.306133056640625,0.0011484629940241575,-0.00003258511424064636,-0.0004633439239114523
1782811940910216000,5.3262158203125,-0.0002954882220365107,0.0013846238143742085,0.0011334300506860018
1782811940930299000,5.346298828125,0.0008045908762142062,0.0004444364458322525,-0.0003437497653067112
1782811940950380800,5.366380859375,0.0024690665304660797,-0.0013177769724279642,-0.00032430863939225674
1782811940970463700,5.386463623046875,0.00015028854249976575,-0.00019961316138505936,-0.00002763792872428894
1782811940990547000,5.406546875,0.0012158192694187164,0.0014254474081099033,0.0006882199086248875
1782811941010628900,5.42662890625,0.0004951757728122175,-0.00003400072455406189,0.001570879016071558
1782811941030711800,5.4467119140625,0.0008243424817919731,0.00006187288090586662,-0.0006709699518978596
1782811941050794800,5.466794677734375,0.0011102984426543117,-0.0005056129302829504,0.0012255904730409384
1782811941070877000,5.486876953125,-0.00035843480145558715,-0.00003236951306462288,0.0006729845190420747
1782811941090959600,5.506959716796875,0.0011798195773735642,-0.0002442901022732258,0.000254826620221138
1782811941111042600,5.52704248046875,-0.0006396519602276385,-0.00039955228567123413,-0.001063704490661621
1782811941131124500,5.54712451171875,-0.0009682955569587648,-0.0007125725969672203,-0.000039783772081136703
1782811941151207400,5.56720751953125,0.0006242747767828405,0.001289858017116785,0.0011256154393777251
1782811941171290400,5.587290283203125,0.0007368765654973686,0.00019414164125919342,-0.0008501172997057438
1782811941191372300,5.607372314453125,0.00015257902850862592,0.0005448800511658192,0.00024790409952402115
1782811941211455200,5.627455322265625,0.00009527316433377564,-0.0005737838800996542,0.0008392424788326025
1782811941231538400,5.647538330078125,0.00015359639655798674,0.00015538930892944336,0.0008688034722581506
1782811941251620600,5.66762060546875,-0.0005097185494378209,-0.0008707253728061914,-0.0007657941896468401
1782811941271703600,5.68770361328125,0.00031898627639748156,-0.0003069620579481125,0.00008829310536384583
1782811941291786500,5.707786376953125,0.0003298395895399153,-0.00019726622849702835,0.0009867137996479869
1782811941311868400,5.727868408203125,0.0011232108809053898,0.0002713249996304512,-0.0007449307013303041
1782811941331951400,5.747951416015625,-0.0005562042351812124,-0.0013576203491538763,0.00032766361255198717
1782811941352034600,5.76803466796875,-0.0015016528777778149,-0.0017372893635183573,-0.0001236940734088421
1782811941372116500,5.788116455078125,0.0012780972756445408,-0.00006735231727361679,-0.00018767639994621277
1782811941392199400,5.808199462890625,0.00018002287833951414,0.00012275949120521545,-0.0009448335040360689
1782811941412282400,5.828282470703125,0.0016081882640719414,-0.00024609407410025597,0.0007173394551500678
1782811941432364500,5.848364501953125,0.0014473224291577935,0.0011810781434178352,0.002052882919088006
1782811941452447500,5.868447509765625,0.00022608047584071755,-0.0004061083309352398,0.0013929727720096707
1782811941472530400,5.888530517578125,-0.0007937749614939094,-0.0011660740710794926,0.0004903583321720362
1782811941492612400,5.9086123046875,0.0011005314299836755,-0.000010262243449687958,0.00014734314754605293
1782811941512695600,5.928695556640625,-0.000014823410310782492,0.0005127051845192909,-0.001811992609873414
1782811941532778500,5.948778564453125,0.00042343794484622777,-0.0002392856404185295,0.0005274368450045586
1782811941552860400,5.9688603515625,0.00018197414465248585,0.0008253739215433598,0.0014839139766991138
1782811941572943400,5.988943359375,0.0001604854187462479,0.0007524946704506874,-0.0001845343504101038
1782811941593026300,6.0090263671875,0.001041252864524722,-0.0009694844484329224,0.0005345320096239448
1782811941613108500,6.0291083984375,0.001358207780867815,-0.000017718877643346786,-0.00035097822546958923
1782811941633191400,6.04919140625,-0.0006222373922355473,0.00008841929957270622,0.0008043277775868773
1782811941653274600,6.069274658203125,-0.0001631212653592229,-0.00041970936581492424,-0.001216593198478222
1782811941673356500,6.0893564453125,-0.0023498283699154854,0.0004811035469174385,0.0004465226083993912
1782811941693439500,6.109439453125,0.00038193812360987067,-0.0002847439609467983,0.0005917161470279098
1782811941713522400,6.1295224609375,0.0006494596600532532,0.0009636390022933483,0.00018661539070308208
1782811941733604400,6.149604248046875,0.0002401011879555881,0.00038792379200458527,-0.00008119246922433376
1782811941753687300,6.169687255859375,-0.0013343971222639084,-0.0009840885177254677,0.0015508020296692848
1782811941773770500,6.1897705078125,-0.001211655791848898,-0.0008189876098185778,0.0014379980275407434
1782811941793852700,6.209852783203125,0.00019261444685980678,-0.00007367739453911781,-0.0011870074085891247
1782811941813935600,6.229935546875,-0.00014595073298551142,0.000047540292143821716,0.0003756468649953604
1782811941834018600,6.2500185546875,-0.000049356574891135097,-0.0008237012661993504,-0.0002496128436177969
1782811941854100500,6.2701005859375,0.001006723497994244,-0.0001470707356929779,0.00046044308692216873
1782811941874183400,6.290183349609375,-0.0017929815221577883,-0.0003077555447816849,0.00011234940029680729
1782811941894266400,6.310266357421875,-0.0002489032631274313,0.0009616962634027004,0.00021430081687867641
1782811941914348300,6.330348388671875,-0.0015345187857747078,-0.00015949737280607224,0.001584786456078291
1782811941934431500,6.350431396484375,0.0002143751480616629,0.000983483623713255,0.00018777698278427124
1782811941954514400,6.370514404296875,-0.0008278111345134676,0.00015468895435333252,0.0012141442857682705
1782811941974597400,6.390597412109375,0.00003747877781279385,0.00044880202040076256,0.0010480182245373726
1782811941994679600,6.410679443359375,-0.0015287448186427355,0.0003340989351272583,0.000771059887483716
1782811942014762500,6.430762451171875,-0.00025582118541933596,-0.00012402702122926712,-0.0015255101025104523
1782811942034844400,6.450844482421875,0.0004897287581115961,0.00015072571113705635,-0.0004847885575145483
1782811942054927400,6.47092724609375,-0.0011334525188431144,-0.0006838401313871145,-0.0013206098228693008
1782811942075010600,6.491010498046875,0.0004620962426997721,-0.0008718983735889196,-0.0001910033170133829
1782811942095092500,6.511092529296875,-0.0008593018283136189,0.000721499789506197,-0.0008937723468989134
1782811942115175400,6.531175537109375,0.000569070631172508,-0.0004885818343609571,-0.0008079418912529945
1782811942135258600,6.551258544921875,-0.0007974097970873117,-0.00016780337318778038,-0.00047881645150482655
1782811942155341600,6.571341552734375,-0.000290131225483492,-0.0012989479582756758,-0.0006456321571022272
1782811942175423700,6.591423828125,0.0004459210904315114,0.00031610438600182533,0.00035349081736057997
1782811942195506700,6.611506591796875,-0.00163080426864326,0.00025345711037516594,-0.0007039457559585571
1782811942215589600,6.631589599609375,0.0016994165489450097,-0.00045204348862171173,-0.0002605682238936424
1782811942235671600,6.651671630859375,-0.0003205443499609828,0.00036064162850379944,0.0007267611799761653
1782811942255754500,6.67175439453125,-0.0008305319934152067,-0.001157422550022602,0.00035455613397061825
1782811942275837700,6.691837646484375,0.0004554541374091059,-0.0008544472511857748,0.0005485001020133495
1782811942295919600,6.711919677734375,-0.000935993215534836,-0.0007656714878976345,-0.001410586992278695
1782811942316002600,6.73200244140625,-0.0005130007630214095,0.0004669460467994213,0.0006089737871661782
1782811942336085500,6.75208544921875,-0.00015345943393185735,-0.0007550385780632496,0.0004445994272828102
1782811942356167700,6.772167724609375,0.0010101668303832412,0.0005665374919772148,0.0025974884629249573
1782811942376250600,6.792250732421875,0.0006583068752661347,0.0009472770616412163,-0.00041927467100322247
1782811942396333600,6.81233349609375,-0.00033934079692699015,0.0019101896323263645,0.0013581681996583939
1782811942416415700,6.832415771484375,0.0008382123778574169,-0.0004940924700349569,-0.0005175245460122824
1782811942436498700,6.852498779296875,-0.0014100130647420883,-0.000003930181264877319,-0.001614537788555026
1782811942456581600,6.87258154296875,-0.0007838389719836414,0.00023893825709819794,-0.00048362184315919876
1782811942476663600,6.89266357421875,0.000739001203328371,-0.0015786245930939913,-0.0004039793275296688
1782811942496746500,6.91274658203125,0.0010426382068544626,-0.0012079942971467972,-0.0007108885329216719
1782811942516829400,6.932829345703125,-0.0006369345937855542,0.0004421905614435673,-0.0007485735695809126
1782811942536911400,6.952911376953125,-0.0002781051443889737,0.0002245916984975338,-0.0007256404496729374
1782811942556994600,6.97299462890625,0.00031126762041822076,-0.0008519836701452732,-0.00092090736143291
1782811942577077500,6.993077392578125,0.0007869409746490419,0.0010723210871219635,-0.0006673620082437992
1782811942597159700,7.01315966796875,-0.0010223434073850513,-0.000523989787325263,0.00030722515657544136
1782811942617242600,7.03324267578125,-0.0007372787804342806,0.001350628212094307,0.0009640534408390522
1782811942637325600,7.05332568359375,0.000055348093155771494,-0.0005792647134512663,-0.0006423317827284336
1782811942657407500,7.073407470703125,0.00015892970259301364,0.00039025163277983665,-0.0002052506897598505
1782811942677490400,7.093490478515625,-0.00007305492908926681,0.0006136130541563034,-0.0017171746585518122
1782811942697573600,7.11357373046875,0.0012161388294771314,0.00008281413465738297,-0.00025551673024892807
1782811942717655600,7.133655517578125,0.0002817858476191759,0.0020117750391364098,0.0013351649977266788
1782811942737738500,7.153738525390625,-0.00041982531547546387,-0.0006749490275979042,0.00019260728731751442
1782811942757821400,7.173821533203125,0.0011313259601593018,0.000799939502030611,0.00024370546452701092
1782811942777903600,7.193903564453125,0.001035466673783958,-0.0008723030332475901,0.0013212959747761488
1782811942797986600,7.213986572265625,0.001221895799972117,-0.00019698869436979294,0.001041768817231059
1782811942818069800,7.23406982421875,0.0004527860146481544,-0.0003415183164179325,0.0008140084100887179
1782811942838151700,7.254151611328125,0.00011666680802591145,0.0015159971080720425,0.0032315540593117476
1782811942858234600,7.274234619140625,-0.0006351519841700792,-0.0009206291288137436,0.0013880073092877865
1782811942878317600,7.294317626953125,0.00047602964332327247,-0.0011421262752264738,0.00045862537808716297
1782811942898399500,7.3143994140625,0.0008251666440628469,-0.0016978157218545675,-0.0001591613981872797
1782811942918482400,7.334482421875,-0.00020930852042511106,-0.0006022281013429165,-0.00037662312388420105
1782811942938565400,7.3545654296875,0.00039804205880500376,-0.0003922269679605961,-0.0000828492920845747
1782811942958647600,7.3746474609375,-0.000004456800525076687,0.0015071970410645008,0.0001428851392120123
1782811942978730800,7.394730712890625,0.000498586508911103,-0.00012989481911063194,0.000052446965128183365
1782811942998813700,7.414813720703125,6.310147000476718e-7,-0.00012174434959888458,-0.00041805487126111984
1782811943018895600,7.4348955078125,-0.00020322081400081515,-0.00042676436714828014,-0.000714483205229044
1782811943038978600,7.454978515625,-0.0009975065477192402,-0.0001320582814514637,-0.0007739933207631111
1782811943059061500,7.4750615234375,0.0002153046225430444,-0.0007672850042581558,0.0014016476925462484
1782811943079143400,7.495143310546875,0.00208773510530591,0.00018564239144325256,0.0006264104740694165
1782811943099226600,7.5152265625,-0.0003338379319757223,0.0011235447600483894,-0.0011654132977128029
1782811943119309600,7.5353095703125,0.00015644550148863345,-0.00067698466591537,-0.0003746342845261097
1782811943139391700,7.555391845703125,-0.00010356763959862292,-0.0012413656804710627,-0.00040514813736081123
1782811943159474700,7.575474609375,0.0001806855434551835,0.0008690385147929192,0.0015594554133713245
1782811943179558000,7.595557861328125,0.0006938130827620625,-0.000030872877687215805,0.0007407607045024633
1782811943199639800,7.615639892578125,0.0006453993264585733,0.0006765550933778286,0.00026105972938239574
1782811943219722800,7.63572265625,-0.0005632580723613501,-0.00035055307671427727,0.00037260865792632103
1782811943239805700,7.6558056640625,-0.000679353135637939,0.00006391992792487144,0.0003145957598462701
1782811943259887600,7.6758876953125,-0.0004040153871756047,-0.00037866877391934395,0.0014864567201584578
1782811943279970600,7.695970458984375,0.00026315939612686634,-0.00121266208589077,-0.0012455505784600973
1782811943300053500,7.716053466796875,-0.0002523873117752373,0.000030157621949911118,-0.0002798079513013363
1782811943320135700,7.7361357421875,0.00038136623334139585,0.0005845264531672001,0.0014942786656320095
1782811943340219000,7.756218994140625,-0.0004256810643710196,-0.0008937835227698088,0.00035131711047142744
1782811943360301800,7.7763017578125,0.0007861772319301963,0.00047779129818081856,0.0004031049320474267
1782811943380383700,7.7963837890625,0.0004290222132112831,0.0004568132571876049,-0.00040568457916378975
1782811943400466700,7.816466796875,-0.000957089476287365,-0.00004929862916469574,-0.00010725832544267178
1782811943420549600,7.836549560546875,0.0005601752200163901,0.0007522520609200001,-0.00006609177216887474
1782811943440631600,7.856631591796875,-0.000564389512874186,0.0008369674906134605,0.0004898844053968787
1782811943460714800,7.87671484375,0.00032014332828111947,-0.0012725575361400843,0.0017670013476163149
1782811943480797700,7.896797607421875,-0.0007638267707079649,-0.0010895824525505304,0.0005312487483024597
1782811943500880000,7.9168798828125,-0.0008990925271064043,0.00042143091559410095,0.001270989771001041
1782811943520962800,7.936962890625,0.0005956661771051586,-0.000759761780500412,-0.0005140313878655434
1782811943541045800,7.957045654296875,0.00032745706266723573,0.0006309822201728821,-0.000029292888939380646
1782811943561127700,7.977127685546875,-0.0003540316829457879,0.00037151575088500977,-0.0001318512950092554
1782811943581210600,7.997210693359375,0.0010902277426794171,0.001012805849313736,0.0007643729913979769
1782811943601293800,8.0172939453125,-0.001485303626395762,-0.00023672590032219887,0.00024323747493326664
1782811943621375700,8.037375732421875,-0.0015520614106208086,-0.0001679970882833004,0.0007450389675796032
1782811943641458700,8.057458740234376,0.0007967350538820028,-0.0012981761246919632,-0.00015481817536056042
1782811943661541600,8.077541748046874,0.00044825131772086024,-0.00022931024432182312,0.00024630199186503887
1782811943681623800,8.097623779296875,-0.0012100513558834791,0.00034775305539369583,0.00023115705698728561
1782811943701706800,8.117706787109375,0.002356866141781211,0.0005806861445307732,0.0009977734880521894
1782811943721789700,8.137789794921876,-0.0005010649329051375,-0.0016028080135583878,-0.0005516465753316879
1782811943741871600,8.15787158203125,0.0014583668671548367,0.00019538728520274162,0.0017811572179198265
1782811943761954800,8.177954833984375,-0.001969729783013463,-0.0001508491113781929,-0.0008113854564726353
1782811943782037800,8.198037841796875,-0.0009395424276590347,-0.0012446504551917315,-0.00008991127833724022
1782811943802119700,8.21811962890625,-0.00015100780001375824,0.0003779674880206585,0.00026092096231877804
1782811943822202600,8.23820263671875,0.0006965980865061283,0.00022227363660931587,0.00001359870657324791
1782811943842285600,8.25828564453125,-0.0009865364991128445,-0.0010140922386199236,-0.00046758633106946945
1782811943862367700,8.27836767578125,0.00020366822718642652,-0.001780365826562047,0.00013441802002489567
1782811943882451000,8.298450927734375,0.00005492352647706866,-0.00006480701267719269,-0.00016146712005138397
1782811943902534000,8.318533935546874,0.0003653850289992988,-0.0004768618382513523,0.0005235145799815655
1782811943922615800,8.33861572265625,0.0004638321988750249,0.0015018251724541187,0.000050429487600922585
1782811943942698800,8.35869873046875,0.0015799126122146845,0.0002453452907502651,0.0009764485293999314
1782811943962781700,8.37878173828125,0.0002621209714561701,0.0009165522642433643,-0.0012838710099458694
1782811943982863600,8.398863525390626,-0.0028747711330652237,-0.0011227927170693874,-0.00027427379973232746
1782811944002946600,8.418946533203124,0.00022668633027933538,-0.0007051264401525259,-0.0007582430262118578
1782811944023029800,8.43902978515625,-0.0003439736319705844,0.0004128827713429928,-0.000885051442310214
1782811944043111700,8.459111572265625,-0.00006405113526852801,-0.0005923924036324024,-0.00042189937084913254
1782811944063194600,8.479194580078126,0.00102646101731807,-0.0004347497597336769,-0.00023599970154464245
1782811944083277800,8.49927783203125,0.00041053941822610795,0.00003073364496231079,-0.0003236779011785984
1782811944103360000,8.519360107421875,0.0013823063345625997,0.0003992426209151745,-0.00008681416511535645
1782811944123443000,8.53944287109375,0.0022656917572021484,0.00026622507721185684,-0.0001270847860723734
1782811944143526100,8.559526123046876,0.0009800189873203635,-0.00022295396775007248,-0.0001398113090544939
1782811944163608000,8.579608154296874,8.100032573565841e-7,0.0008617532439529896,0.0001739019062370062
1782811944183691000,8.59969091796875,0.0012135906144976616,0.00045803189277648926,0.0006145258666947484
1782811944203774000,8.61977392578125,-0.0009400662966072559,-0.0011021383106708527,0.0008459249511361122
1782811944223855900,8.63985595703125,-0.00016457347373943776,-0.000318027101457119,0.00028155394829809666
1782811944243938800,8.659938720703124,-0.0007280602585524321,0.0008550616912543774,0.0004929137649014592
1782811944264021800,8.680021728515625,-0.0000926709981285967,-0.001005841651931405,-0.0010232615750283003
1782811944284104000,8.70010400390625,0.0007640462717972696,-0.0010525702964514494,0.0006696805357933044
1782811944304187100,8.720187255859376,0.0005512811476364732,0.000180728267878294,-0.0005616506095975637
1782811944324270000,8.74027001953125,-0.0005281991325318813,-0.00018420163542032242,-0.0002689321991056204
1782811944344352000,8.76035205078125,0.0014894152991473675,0.00031793396919965744,0.000654547824524343
1782811944364435000,8.78043505859375,0.0008351583383046091,-0.0007341927848756313,0.0010017363820225
1782811944384518000,8.800517822265626,-0.00018894337699748576,0.00030554551631212234,0.000455410685390234
1782811944404599800,8.820599853515626,0.0010502615477889776,0.0005961707793176174,0.0010763808386400342
1782811944424682800,8.840682861328125,-0.0005143115995451808,-0.0003902371972799301,0.000414577079936862
1782811944444766000,8.860765869140625,-0.0016500321216881275,0.0005286047235131264,-0.0002910748589783907
1782811944464848100,8.88084814453125,0.0004556877538561821,0.0003203512169420719,-0.0023705780040472746
1782811944484931000,8.90093115234375,-0.00027796649374067783,-0.0010801320895552635,-0.00028976844623684883
1782811944505014000,8.921013916015625,-0.0008404062245972455,0.0004710839129984379,-0.0007754960097372532
1782811944525096000,8.941095947265625,0.002500765258446336,-0.0005995908286422491,-0.0008687654044479132
1782811944545179000,8.961178955078125,0.0006130681722424924,0.0007469546981155872,0.0003574145957827568
1782811944565262000,8.981261962890626,0.00037767572212032974,-0.00023505743592977524,0.0020803529769182205
1782811944585344000,9.001343994140624,-0.0020574533846229315,0.00006694300100207329,-0.00026969448663294315
1782811944605427000,9.021427001953125,-0.00013716600369662046,0.0001982799731194973,-0.00021948874928057194
1782811944625510000,9.041510009765625,0.000012323260307312012,-0.0003916413988918066,-0.0010750615037977695
1782811944645592000,9.061592041015626,0.00000890259980224073,-0.0008697311859577894,0.00005501788109540939
1782811944665675000,9.081675048828124,-0.00059961446095258,-0.0015671055298298597,0.0013577498029917479
1782811944685758000,9.101758056640625,0.000027780988602899015,0.0005591707304120064,0.0008595996769145131
1782811944705839900,9.12183984375,0.00021712269517593086,-0.00010641897097229958,-0.0000669166911393404
1782811944725923000,9.141923095703126,-0.001345285796560347,-0.0004615914076566696,0.00011417362838983536
1782811944746006000,9.162006103515624,0.0005845369305461645,0.0008198339492082596,0.0007180316606536508
1782811944766088000,9.182087890625,-0.0016824861522763968,0.0007985825650393963,-0.0006174272857606411
1782811944786171000,9.2021708984375,0.0014351168647408485,-0.0016337414272129536,0.0004032735014334321
1782811944806253800,9.22225390625,0.0012516052229329944,0.0004589864984154701,-0.0013407168444246054
1782811944826336000,9.2423359375,-0.00012393812357913703,0.0004727467894554138,0.0004312967648729682
1782811944846419000,9.2624189453125,-0.000022370775695890188,0.0002218117006123066,0.001312148873694241
1782811944866502100,9.282502197265625,0.000027470741770230234,-0.0002732151187956333,0.0017040560487657785
1782811944886584000,9.302583984375,-0.0002219360030721873,-0.0019212737679481506,0.0016105874674394727
1782811944906667000,9.3226669921875,0.0005448849988169968,0.00019195768982172012,-0.00017184577882289886
1782811944926750000,9.34275,-0.00002702159690670669,-0.00013437820598483086,-0.0006885887123644352
1782811944946832000,9.362831787109375,0.00021637388272210956,0.00028850510716438293,-0.0006816431414335966
1782811944966914800,9.382914794921875,-0.0022374626714736223,-0.0008020594250410795,0.0016190616879612207
1782811944986997800,9.402997802734374,0.00016807820065878332,-0.00048173079267144203,0.000703745405189693
1782811945007080200,9.423080078125,-0.0010516495676711202,0.0012237573973834515,-0.001102676847949624
1782811945027163100,9.4431630859375,0.00003667709825094789,-0.0009466961491852999,-0.00017236731946468353
1782811945047246000,9.46324609375,-0.000439762428868562,-0.0008833128958940506,0.0013277914840728045
1782811945067328000,9.483327880859376,0.000366498832590878,0.00032855477184057236,0.000031742965802550316
1782811945087410400,9.503410400390624,0.00018806701700668782,0.0001722271554172039,-0.00015094969421625137
1782811945107493400,9.523493408203125,-0.001087711425498128,-0.0002990220673382282,-0.00131581025198102
1782811945127575300,9.5435751953125,0.0020193986129015684,0.0009007318876683712,0.0008019355591386557
1782811945147658200,9.563658203125,0.00023047545982990414,0.00034581031650304794,-0.001633189618587494
1782811945167741400,9.583741455078124,-0.0005628802464343607,-0.00025606388226151466,-0.0003175879828631878
1782811945187823600,9.60382373046875,-0.00003619998460635543,0.0009878319688141346,0.0008330391719937325
1782811945207906600,9.623906494140625,0.000738779897801578,-0.00006225286051630974,-0.001181908417493105
1782811945227989500,9.643989501953126,-0.0016668051248416305,0.00013931142166256905,-0.000337009085342288
1782811945248071400,9.664071533203124,0.0008861334645189345,0.0008797571063041687,0.00036681024357676506
1782811945268154400,9.684154296875,0.0003949546080548316,-0.0009383605793118477,-0.0004624985158443451
1782811945288237600,9.704237548828125,-0.00015128729864954948,-0.00010544387623667717,-0.00033464469015598297
1782811945308319500,9.724319580078125,-0.000603559659793973,-0.0000639175996184349,-0.0003470934461802244
1782811945328402400,9.74440234375,0.0008048620657064021,-0.0015256674960255623,-0.0002724146470427513
1782811945348485400,9.7644853515625,-0.0014616451226174831,-0.0003939287271350622,0.0004963089013472199
1782811945368567600,9.784567626953125,-0.00017822669178713113,0.0005622105672955513,0.0013216433580964804
1782811945388650500,9.804650390625,0.0011670576641336083,-0.0002649035304784775,-0.0008678624872118235
1782811945408733400,9.8247333984375,0.00021421875862870365,0.0005314303562045097,0.0008806140394881368
1782811945428815400,9.8448154296875,0.0006710845045745373,-0.0003724426496773958,-0.00024969782680273056
1782811945448898600,9.864898681640625,0.00048534752568230033,-0.00039480184204876423,-0.000071314861997962
1782811945468981500,9.8849814453125,0.0009803574066609144,-0.0002676011063158512,-0.0005745105445384979
1782811945489063400,9.9050634765625,0.00025316516985185444,-0.00013865763321518898,0.0010507761035114527
1782811945509146400,9.925146484375,0.0009014911483973265,0.0011328775435686111,0.00121476617641747
1782811945529229300,9.945229248046875,0.0008592206868343055,0.0004871808923780918,-0.0007260744459927082
1782811945549311500,9.9653115234375,0.00010762996680568904,0.0001280633732676506,0.0002783501986414194
1782811945569394400,9.98539453125,0.0006742609548382461,0.00035041337832808495,0.0005310458363965154
1782811945589477600,10.0054775390625,-0.00013777388085145503,0.0052626789547502995,0.0018193721771240234
1782811945609560600,10.025560546875,-0.00030706007964909077,0.00295456126332283,0.00034550391137599945
1782811945629642500,10.045642578125,0.002224637195467949,-0.04626965522766113,-0.01434812881052494
1782811945649725400,10.065725341796876,-0.0012631949502974749,-0.00017787795513868332,-0.0002990197390317917
