time,seconds_elapsed,z,y,x
1782811935648554500,0.064554443359375,-0.028285598763823507,0.2805408425636589,0.05393757022158242
1782811935668637400,0.084637451171875,-0.014521277305483818,-0.18968707087971268,0.08353859896552748
1782811935688720400,0.104720458984375,-0.02140226899087429,-0.02155033569205552,0.021382587042869997
1782811935708802600,0.124802490234375,-0.028885318222641943,-0.10638108422681689,-0.054863745155790816
1782811935728885500,0.144885498046875,-0.03412497244179249,0.23183044153898952,-0.08422389608225785
1782811935748968400,0.164968505859375,-0.016772271102666853,0.09154376324210316,-0.04756018980992958
1782811935769050400,0.18505029296875,-0.01737199056148529,-0.27879907693024725,0.02565241898233071
1782811935789133600,0.205133544921875,-0.026945874592661855,0.09415109619628638,0.07224625711129047
1782811935809216500,0.225216552734375,-0.018714637342095376,0.020192929733730852,0.07792053075488656
1782811935829298400,0.24529833984375,-0.021411621341109275,0.18351769806239754,-0.009516637418605386
1782811935849381400,0.26538134765625,-0.008244096732139586,-0.17768164885267615,-0.09302459465069696
1782811935869464300,0.28546435546875,-0.02170972750484943,-0.11566267078053205,-0.07008194608371704
1782811935889546500,0.30554638671875,-0.021555413725972174,0.24307974796909837,-0.008873672473104671
1782811935909629400,0.32562939453125,-0.021256138518452643,-0.017573285287246106,0.066479144951934
1782811935929712600,0.345712646484375,-0.024103344643115997,0.019802286448329685,0.08806050596991553
1782811935949794600,0.365794677734375,-0.0027057518273591995,-0.20942769026868044,0.03150142813832499
1782811935969877500,0.38587744140625,-0.02186053415238857,0.1466792654108256,-0.04772401120266877
1782811935989960400,0.40596044921875,-0.01199322013258934,0.168785810213536,-0.0810802003622055
1782811936010043400,0.42604345703125,-0.02112345204949379,-0.14953874649517238,-0.06527985216476954
1782811936030125300,0.446125244140625,-0.010801379999518393,-0.004577610113844275,0.029665006491402163
1782811936050208500,0.46620849609375,-0.0030149639070034023,-0.0707242991078645,0.07423214283203705
1782811936070291500,0.48629150390625,-0.042218262526392936,0.24670528152249752,0.07393110492569394
1782811936090374400,0.50637451171875,-0.015139701464772224,-0.07604158514048903,-0.01806453026975505
1782811936110457300,0.526457275390625,-0.02665945886671543,-0.1387185521973297,-0.08364684511297382
1782811936130540300,0.546540283203125,-0.03413374027013778,0.09797891085613518,-0.08376393215400166
1782811936150622500,0.56662255859375,-0.021706804895401,0.053049233946576714,-0.021022201898414642
1782811936170705700,0.58670556640625,-0.013477905732393264,0.13585048594772814,0.06526351295132189
1782811936190788600,0.60678857421875,-0.01841770022213459,-0.2241106609418988,0.06735765395266935
1782811936210870500,0.62687060546875,-0.024697803404927252,0.04610262967906892,0.03588700454509817
1782811936230953500,0.646953369140625,-0.02379939326047897,0.1454311285132542,-0.036085276196710765
1782811936251036400,0.667036376953125,-0.016769933015108106,-0.010662263789772987,-0.09223285975111647
1782811936271118300,0.687118408203125,-0.013032500052452087,-0.023111082202754915,-0.050090375007828696
1782811936291201300,0.707201171875,-0.016318682116270064,-0.14865034628808496,0.021063465490564703
1782811936311284500,0.727284423828125,-0.028435236367583272,0.21271544323507696,0.08473587332554161
1782811936331367400,0.747367431640625,-0.02350245614051819,0.022066651183739305,0.06517179781356826
1782811936351449600,0.76744970703125,-0.028144144466519354,-0.0643190717080608,-0.009827137273037806
1782811936371532500,0.787532470703125,-0.025751111850142477,-0.031212445995956656,-0.0825198229775764
1782811936391615500,0.807615478515625,-0.0047989247143268585,0.002954100565239787,-0.07067023083306849
1782811936411697400,0.827697509765625,-0.03831073369383812,0.2040637886153534,-0.0032532570417504758
1782811936431780600,0.847780517578125,-0.026494039171934127,-0.1640506349178031,0.058861208160966634
1782811936451863600,0.867863525390625,-0.02768997095823288,-0.029595183525048193,0.07138937542047351
1782811936471945500,0.887945556640625,-0.016464228066802023,0.04792933364957571,0.03022270430624485
1782811936492028400,0.9080283203125,-0.010475801306962967,0.09013524815104901,-0.03996275695087388
1782811936512111400,0.928111328125,-0.03143091105222702,0.015348631507717071,-0.09220974373701028
1782811936532193500,0.948193603515625,-0.01647124232947826,-0.19222250764146445,-0.051663022018875925
1782811936552276500,0.9682763671875,-0.025448329511284826,0.11272793250288814,0.0256579262745101
1782811936572359700,0.988359619140625,-0.02379939326047897,0.0586429257677868,0.09068249763711356
1782811936592441600,1.008441650390625,-0.011379472148418427,0.02572546595223248,0.06956794128012843
1782811936612524500,1.028524658203125,-0.01796761836707592,-0.07877316552884876,-0.013432596152788027
1782811936632607500,1.048607421875,-0.023351064971089363,-0.05795866983067244,-0.06991895580803975
1782811936652689400,1.068689453125,-0.02694002937376499,0.202458326180093,-0.07236726227561012
1782811936672772400,1.0887724609375,-0.013920973324775696,-0.05160137322582304,-0.006348967167921364
1782811936692855300,1.108855224609375,-0.021858196064829825,-0.01215882249046117,0.050718325047288085
1782811936712938500,1.1289384765625,-0.01527706410884857,-0.06964139924198388,0.07247190996017307
1782811936733020700,1.149020751953125,-0.025290508601069447,0.09196724935118109,0.03256081926445477
1782811936753103600,1.169103515625,-0.028133623072504995,0.10046261743064969,-0.045801518707489594
1782811936773186600,1.1891865234375,-0.020951602613925934,-0.11959657616335898,-0.08613854319769888
1782811936793268500,1.2092685546875,-0.019458733707666397,0.02823390510920435,-0.039538923781923946
1782811936813351400,1.229351318359375,-0.01706570109128952,0.005704714447632432,0.03505279134381562
1782811936833434400,1.249434326171875,-0.02020049198567867,0.1236715339846909,0.06665352427130565
1782811936853516500,1.2695166015625,-0.016761749708652494,-0.05464654960799962,0.05703402926642447
1782811936873599500,1.289599609375,-0.009579729250073433,-0.09152052849698811,-0.014247538398019968
1782811936893682400,1.309682373046875,-0.016165537381172178,0.10333915924765169,-0.06115791339655406
1782811936913764400,1.329764404296875,-0.010625438910722733,0.022130583265423772,-0.0800567755986005
1782811936933847600,1.34984765625,-0.02604337279498577,0.04311433458328247,-0.00814302011099644
1782811936953930500,1.369930419921875,-0.0214104522973299,-0.12093699445426463,0.06023334589754231
1782811936974012400,1.390012451171875,-0.01751402938067913,0.03685363022070378,0.07348913331185467
1782811936994095600,1.410095703125,-0.016314005941152572,0.10707860150430351,0.0361483314955607
1782811937014178600,1.430178466796875,-0.019454057532548905,-0.041444319011829794,-0.04525933812218718
1782811937034260500,1.450260498046875,-0.01512158128619194,-0.011271920120716095,-0.07555554605606012
1782811937054343400,1.470343505859375,-0.023648002091050148,-0.06048347560055554,-0.05326766247022897
1782811937074426000,1.490426025390625,-0.01899579237103462,0.132161531769298,0.029253758809389546
1782811937094508300,1.51050830078125,-0.02603109783530235,0.0005491583153605461,0.07205151085732504
1782811937114591200,1.53059130859375,-0.012564882540702819,-0.0687429160322994,0.05529637355254963
1782811937134674200,1.550674072265625,-0.018404256218671797,0.011103468218632041,-0.021731300015840678
1782811937154756000,1.570756103515625,-0.021688684716820717,0.039864575539715584,-0.06937718621469102
1782811937174839000,1.590839111328125,-0.024974866780638694,0.09854191503375768,-0.07011193023002706
1782811937194922000,1.610921875,-0.014209727138280868,-0.10386877261232584,-0.014970491510862483
1782811937215005200,1.631005126953125,-0.022591186514496802,-0.005336063798330724,0.05383255721083842
1782811937235087000,1.651087158203125,-0.020346622458100316,0.07427026461903005,0.07689176309588365
1782811937255170000,1.671170166015625,-0.01809562866091728,0.03514101761654019,0.02429057431090623
1782811937275253000,1.6912529296875,-0.029927520751953124,-0.003927000718005002,-0.04731221553138457
1782811937295335200,1.711335205078125,-0.020058453166484833,-0.08496445791702717,-0.07794993951246142
1782811937315418000,1.731418212890625,-0.024390929412841794,0.09220193488989024,-0.05417684060386382
1782811937335501300,1.751501220703125,-0.029179332733154296,0.03314732304867357,0.028392310541309414
1782811937355583200,1.771583251953125,-0.024692542707920075,-0.022013423159159717,0.06405178080769255
1782811937375666200,1.791666259765625,-0.02455108841061592,-0.03260558085478842,0.06114017681046389
1782811937395749000,1.8117490234375,-0.007939560827612876,0.0012182166833430528,-0.005054132451256737
1782811937415831000,1.8318310546875,-0.012273206117749213,0.11324724366925656,-0.0632317057296168
1782811937435914000,1.8519140625,-0.027989830687642096,-0.04707169390693307,-0.06798149407259188
1782811937455997000,1.871996826171875,-0.027843115693330762,-0.025810952278599142,-0.014597310816915706
1782811937476079000,1.8920791015625,-0.010787935996055603,0.006477781179361045,0.05437307556201704
1782811937496162300,1.912162353515625,-0.04100830221474171,0.07653820955101401,0.062773431434948
1782811937516245200,1.932245361328125,-0.014524784436821937,0.03164203305225819,0.02332229553433135
1782811937536327200,1.9523271484375,-0.020961539486050604,-0.08911679182350635,-0.0424264710501302
1782811937556410000,1.97241015625,-0.022904490247368813,0.03576316810287535,-0.06909898119466379
1782811937576493000,1.9924931640625,-0.02484510292112827,0.0262319176370278,-0.046783141022827476
1782811937596575000,2.012574951171875,-0.009875497326254845,0.04123363540321588,0.022318561851885167
1782811937616658000,2.032657958984375,-0.02170329776406288,-0.04912636141441762,0.06564298638873733
1782811937636741000,2.0527412109375,-0.01601823786497116,-0.03899593947902322,0.05362974638142623
1782811937656823000,2.072822998046875,-0.024397359153628347,0.10413429168071597,-0.005199705801252275
1782811937676906000,2.092906005859375,-0.024396190109848975,0.004734517708607017,-0.06236085031237453
1782811937696989200,2.1129892578125,-0.024846856486797332,0.0019877032184973356,-0.05633955332939513
1782811937717071000,2.133071044921875,-0.015866262173652647,-0.04154394346140325,-0.014810268581006675
1782811937737154000,2.153154052734375,-0.013464461728930472,0.06162113786097616,0.05668647620407864
1782811937757237200,2.1732373046875,-0.01824818887412548,0.04859937839824706,0.05164109331485815
1782811937777319200,2.193319091796875,-0.02393850947022438,-0.05788122068028897,0.016818694927124306
1782811937797402000,2.213402099609375,-0.01975567082762718,0.020071495311148463,-0.044352826869674025
1782811937817485000,2.233485107421875,-0.0152671272367239,-0.0036861411668360233,-0.06383802845915779
1782811937837567000,2.25356689453125,-0.018706454035639763,0.0874314690850675,-0.035877971855271605
1782811937857650000,2.27364990234375,-0.0046446109354496,-0.02877539157476276,0.020480350106675177
1782811937877733000,2.293733154296875,-0.03202712337970733,-0.058021944325231015,0.059626895303837954
1782811937897815000,2.31381494140625,-0.014818214425444603,0.04991038793157786,0.049368956264946605
1782811937917898200,2.333898193359375,-0.01496551394164562,0.02220353890378028,0.0053482200270053
1782811937937981200,2.353981201171875,-0.023196751192212102,0.03138403970319777,-0.06604945743093267
1782811937958063000,2.37406298828125,-0.03188450003862381,-0.06497680496443063,-0.06167977271303534
1782811937978146000,2.39414599609375,-0.028735096096992492,0.017014701556414366,-0.0018350242742802946
1782811937998229000,2.41422900390625,-0.030382863304018973,0.04994271929860115,0.04647304302719421
1782811938018311000,2.434310791015625,-0.019005144721269608,-0.004902531219273806,0.05968942087972536
1782811938038393900,2.454393798828125,-0.020954525223374366,-0.005142587052844465,0.013343209969438611
1782811938058477000,2.47447705078125,-0.017513444858789442,-0.01937105542421341,-0.03478053200738504
1782811938078560000,2.49456005859375,-0.02139993090331554,0.05626074333898723,-0.06227800346766598
1782811938098642200,2.51464208984375,-0.020948095482587813,0.0055555883005261415,-0.036065429851925
1782811938118725000,2.53472509765625,-0.022893384331464765,-0.036304471905343236,0.027119687656452878
1782811938138808000,2.55480810546875,-0.02125672304034233,0.005992043489031493,0.07196122962483205
1782811938158890000,2.574889892578125,-0.021257892084121703,0.02840414710957557,0.045080392225552345
1782811938178973200,2.59497314453125,-0.02020633720457554,0.05443721770625561,-0.0009423954166471958
1782811938199056100,2.61505615234375,-0.015721885266900062,-0.0579050764799118,-0.0697459647281561
1782811938219138000,2.635137939453125,-0.01661912636756897,0.006463898784480989,-0.060725723391212516
1782811938239221000,2.655220947265625,-0.03098375180661678,0.03118186819460243,-0.006239387579914182
1782811938259304000,2.675303955078125,-0.03337269276976585,0.03431833958942443,0.04550477338377386
1782811938279386000,2.69538623046875,-0.03098375180661678,-0.010011617861315608,0.0586619866612833
1782811938299469000,2.715468994140625,-0.015877368089556695,-0.051474860769324005,0.020309724513813854
1782811938319552300,2.73555224609375,-0.023656185397505757,0.06077168142478913,-0.04088783590653911
1782811938339634200,2.75563427734375,-0.021110592567920684,0.025021811194904146,-0.05842443331205286
1782811938359717000,2.775717041015625,-0.020216858598589897,-0.0032677696242928503,-0.03678788064126856
1782811938379800000,2.795800048828125,-0.023812837263941764,-0.028530915294401347,0.019545051151094957
1782811938399882000,2.815882080078125,-0.03099778033196926,0.010464366597495972,0.0504794017248787
1782811938419965000,2.83596484375,-0.027408231407403946,0.0701579339293763,0.04690845703608356
1782811938440047900,2.8560478515625,-0.02187456267774105,-0.013938874307647347,-0.0026608989054802802
1782811938460130000,2.876130126953125,-0.023223639199137686,-0.007134710718132555,-0.06522042272826656
1782811938480213200,2.896213134765625,-0.025460604470968245,0.0012366656554862855,-0.056442739709233865
1782811938500296200,2.916296142578125,-0.0206610952347517,0.042398222203180194,-0.0016861721218097954
1782811938520378000,2.936378173828125,-0.02499766313433647,0.02425082682240754,0.05668853116384707
1782811938540461000,2.9564609375,-0.03742226042151451,-0.03729618635643273,0.054123484715120865
1782811938560544000,2.9765439453125,-0.023657354441285132,0.014608188403956592,0.016171336934296413
1782811938580626000,2.9966259765625,-0.012435118681192398,0.023533253137581048,-0.04050934884981252
1782811938600709000,3.016709228515625,-0.01767009672522545,0.03995736838970333,-0.05376896305587142
1782811938620792000,3.0367919921875,-0.025601474246382712,-0.029698205508105455,-0.046906292478460815
1782811938640874200,3.056874267578125,-0.013179215046763419,-0.008624072493053973,0.027953526398399844
1782811938660957200,3.076957275390625,-0.03666939622759819,0.055330294088460505,0.04663469986231066
1782811938681040100,3.0970400390625,-0.01167991639971733,0.009158836956880986,0.04506694822208956
1782811938701122000,3.1171220703125,-0.019313772279024123,-0.007095766947232187,-0.021444418499013407
1782811938721205000,3.137205078125,-0.013031331008672714,-0.0397964787395671,-0.06019777226066216
1782811938741288200,3.1572880859375,-0.014526538002490997,0.04129552165828645,-0.05459654558696784
1782811938761370000,3.1773701171875,-0.019314941322803498,0.034612427165172995,0.010053310711728408
1782811938781453000,3.197453125,-0.006002455285191536,-0.03240666074920445,0.052559432002482934
1782811938801536000,3.217535888671875,-0.016181903994083403,0.009683664548583328,0.04336984371431172
1782811938821618200,3.2376181640625,-0.030252514922618864,0.005539404350705444,0.031224172966368494
1782811938841701000,3.257701171875,-0.017085574835538863,0.050752172517962754,-0.02681853101910092
1782811938861784000,3.2777841796875,-0.018881226080656052,-0.00606277063768357,-0.052530123709607864
1782811938881866000,3.297865966796875,-0.02740530879795551,-0.018121932145953177,-0.027025314770732074
1782811938901949200,3.31794921875,-0.015588029754161833,0.02706613997146487,0.028315354581270366
1782811938922032000,3.3380322265625,-0.023819851526618002,0.024488471503183243,0.06492474598363042
1782811938942114000,3.358114013671875,-0.016487608942389487,0.009455810609459877,0.03232821608497761
1782811938962197000,3.378197021484375,-0.015295768809318542,-0.030668584910221397,-0.01483136616796255
1782811938982280000,3.398280029296875,-0.02875906149446964,0.020706907137855887,-0.0478769641415216
1782811939002362000,3.418362060546875,-0.020225626426935196,0.03757182496003807,-0.05376325483429245
1782811939022445300,3.4384453125,-0.02007072812616825,0.00782853820119053,-0.0025704258767422286
1782811939042528300,3.4585283203125,-0.026065000104904174,-0.004011939055100083,0.045899252594076095
1782811939062610200,3.478610107421875,-0.03369651789665222,-0.003585384206101298,0.05120819092346355
1782811939082692400,3.4986923828125,-0.03280103036165237,0.04998027483001351,0.01441939696674235
1782811939102775600,3.518775634765625,-0.004824059155583382,0.0007641162402927875,-0.04240644204225391
1782811939122858500,3.5388583984375,-0.02158522434234619,-0.010078216824121774,-0.0633047618326731
1782811939142940400,3.5589404296875,-0.02487257544994354,-0.020755057128518817,-0.019869542998261748
1782811939163023400,3.5790234375,-0.011400514936447143,0.037002756367810065,0.022042612721025943
1782811939183105500,3.59910546875,-0.022771803778409958,0.020667196181975305,0.057204097736859694
1782811939203188500,3.6191884765625,-0.01304886666536331,-0.023230689994432032,0.03223757865945808
1782811939223271700,3.639271728515625,-0.005422025048732757,0.01354808489177376,-0.014369603008264675
1782811939243354600,3.659354736328125,-0.028612931022047997,0.020628727335110307,-0.047127296551689506
1782811939263436500,3.6794365234375,-0.02037701759636402,0.04179112315550446,-0.05094738456280902
1782811939283519500,3.69951953125,-0.018580781829357147,-0.0032365707684308288,-0.0036379363772459324
1782811939303602400,3.7196025390625,-0.03653554071485996,-0.02779522143099457,0.04788785999487154
1782811939323684400,3.739684326171875,-0.03518821775913238,0.03740596687383949,0.05872295960090123
1782811939343767300,3.759767333984375,-0.027406477841734885,0.01024319812748581,0.0026360475920140744
1782811939363850500,3.7798505859375,-0.018279753056168555,0.0113448757590726,-0.03764397688079625
1782811939383932700,3.7999326171875,-0.013195581659674644,-0.007278283907286822,-0.05718162104357034
1782811939404015600,3.820015625,-0.02201835506260395,0.013839688249491154,-0.026028686682507393
1782811939424098600,3.8400986328125,-0.018569675913453102,0.032519290810823435,0.02530773373050615
1782811939444180500,3.860180419921875,-0.014380992051959036,-0.01327164257057011,0.05590954614798538
1782811939464263400,3.880263427734375,-0.014533552265167235,0.0023762276120483875,0.0312636829928495
1782811939484346400,3.900346435546875,-0.018275076881051063,0.007907412123680114,-0.011613874559337272
1782811939504428300,3.92042822265625,-0.024407880547642705,0.042701442933455104,-0.053803669043071566
1782811939524511500,3.940511474609375,-0.031438509836792944,0.007806472499854862,-0.058754295454081146
1782811939544594400,3.960594482421875,-0.021115268743038176,-0.030672895759157836,-0.009863450695434584
1782811939564676600,3.980676513671875,-0.02440904959142208,0.018450141187012194,0.040594323719525705
1782811939584759600,4.000759521484375,-0.021712650114297866,0.016836970369331537,0.04036458835056983
1782811939604842500,4.020842529296875,-0.021264321824908256,0.01936418729200959,0.012508330047875642
1782811939624924400,4.04092431640625,-0.02516016021966934,-0.011765220062993466,-0.030841722120577467
1782811939645007600,4.061007568359375,-0.012442132943868636,0.01614522524550557,-0.05698521255548112
1782811939665090600,4.081090576171875,-0.0239636439114809,0.036691571526788175,-0.021700000695278866
1782811939685172500,4.10117236328125,-0.025306290692090987,0.015086509972810745,0.016428234304813667
1782811939705255400,4.12125537109375,-0.023065818288922308,-0.0015558511398732662,0.046524261757778004
1782811939725338400,4.14133837890625,-0.028008535388112068,-0.021522680500149726,0.03350538837187923
1782811939745420500,4.161420654296875,-0.033544542205333705,0.034265294227935374,-0.017927861745422706
1782811939765503500,4.18150341796875,-0.010197568887472152,0.019662731847167013,-0.05373814779249951
1782811939785586700,4.201586669921875,-0.024712416452169417,-0.0012341449048370121,-0.05418858584058471
1782811939805668600,4.221668701171875,-0.00840425572991371,-0.008012954857386649,-0.0019336714763194321
1782811939825751600,4.24175146484375,-0.025611411118507385,0.00797576465215534,0.03066604589326307
1782811939845834500,4.26183447265625,-0.034438276174664495,0.03260685949642211,0.05163798804231919
1782811939865916400,4.28191650390625,-0.019475684842467308,-0.01201334960516542,0.000010384396696463226
1782811939885999400,4.301999267578125,-0.01722936722040176,-0.0051950844250619405,-0.037199310986371706
1782811939906082300,4.322082275390625,-0.00795242030918598,0.01730670677293092,-0.04585968776866793
1782811939926164500,4.34216455078125,-0.013633973076939582,0.030693755884096025,-0.01998305897586979
1782811939946247700,4.36224755859375,-0.028296120157837865,0.00658745209891349,0.012023660936625673
1782811939966330600,4.38233056640625,-0.011983867782354354,-0.015305486485734581,0.04567239416879602
1782811939986412500,4.40241259765625,-0.02919043864905834,0.0340332390377298,0.03918984548277221
1782811940006495500,4.42249560546875,-0.015421441015601157,0.034241036569513376,-0.011312873185612261
1782811940026578400,4.442578369140625,-0.02709434315264225,0.013908917560800909,-0.0494097449330613
1782811940046660400,4.462660400390625,-0.013477321210503577,-0.01585121073499322,-0.03707167515186593
1782811940066743600,4.48274365234375,-0.009438859474658966,0.006720248165726661,-0.006001140110939741
1782811940086826800,4.50282666015625,-0.023347557839751242,0.037502193789929146,0.0356377972906921
1782811940106908700,4.52290869140625,-0.01691489444375038,0.008189480468071997,0.045915153416106476
1782811940126992000,4.542991943359375,-0.013323591953516005,0.0013884221510961651,0.01004015896921046
1782811940147074800,4.56307470703125,-0.03202946146726608,-0.004268215371109545,-0.050824178308248515
1782811940167157000,4.583156982421875,-0.029333646512031554,0.02889912755228579,-0.045522847896581516
1782811940187240000,4.603239990234375,-0.01795417436361313,0.02771791841108352,-0.02090467646596953
1782811940207323000,4.623322998046875,-0.021544892331957815,-0.005775624259375035,0.02431458537415601
1782811940227404800,4.64340478515625,-0.03172141843140125,0.00035228403639048336,0.04103976593208499
1782811940247487700,4.66348779296875,-0.017508184161782264,0.02148059492409229,0.03459215156212449
1782811940267570700,4.68357080078125,-0.020201661029458046,0.023834245378151535,-0.020383219008287413
1782811940287652600,4.703652587890625,-0.0206523274064064,-0.007425181564688682,-0.05378547579925507
1782811940307735800,4.72373583984375,-0.025737667846679687,-0.00566770690549165,-0.04312151324274018
1782811940327818800,4.74381884765625,-0.016910218268632888,0.02135905090365559,0.00688172233775258
1782811940347901000,4.76390087890625,-0.040409167277812956,0.015237060892023145,0.035829584402590986
1782811940367983900,4.78398388671875,-0.023646248525381088,0.010275091103091836,0.046331880990834906
1782811940388066800,4.80406689453125,-0.02350070257484913,-0.00252118904069066,0.010829263520287348
1782811940408148700,4.824148681640625,-0.020955694267153737,0.02246182451378554,-0.039499742549005894
1782811940428231700,4.844231689453125,-0.02215045700967312,0.01752740031890571,-0.055298337180772796
1782811940448315000,4.86431494140625,-0.017655483677983284,-0.0007208250878378748,-0.025475235784519462
1782811940468396800,4.884396728515625,-0.013471475991606712,0.0008521963825449347,0.02229484304958023
1782811940488479700,4.904479736328125,-0.020507950499653815,0.004693199317529797,0.039957085261913015
1782811940508562700,4.924562744140625,-0.028138299247622487,0.0312248670861125,0.03176608869018964
1782811940528644900,4.944644775390625,-0.016916063487529755,0.01069799269028008,-0.019255292690591886
1782811940548727800,4.964727783203125,-0.018714052820205686,0.012563823094777762,-0.010257929905736818
1782811940568811000,4.98481103515625,-0.01841419309079647,-0.02811955801453441,-0.026971776218898593
1782811940588893000,5.004892822265625,-0.01392681854367256,0.01279441698025912,-0.02597703869366087
1782811940608976000,5.024975830078125,-0.017517536512017248,0.009767324244044721,-0.02488299637925811
1782811940629058800,5.045058837890625,-0.04011281467974186,0.04627477137558162,-0.006159591208817437
1782811940649140700,5.065140625,-0.013333528825640678,0.029530593856237828,0.009740655432827771
1782811940669223700,5.0852236328125,-0.015282909327745437,-0.030112156603857874,0.02472830814104527
1782811940689306600,5.105306640625,-0.021267244434356687,0.027860468686930834,0.01934929111697711
1782811940709388800,5.125388916015625,-0.012737316498160362,0.010200528029538691,0.009722608319483697
1782811940729472000,5.145471923828125,-0.028747371056675908,0.019143055354617536,-0.02812244409136474
1782811940749555000,5.165554931640625,-0.022317045748233795,-0.02377170153595507,-0.041287292686058207
1782811940769636900,5.185636962890625,-0.018420622831583022,0.006294095175527036,-0.01843880694224499
1782811940789719800,5.2057197265625,-0.026497546303272244,0.05065273073147982,-0.0004437891115900129
1782811940809802800,5.225802734375,-0.029643443113565444,0.0021667495798319576,0.034776650416711345
1782811940829884700,5.245884765625,-0.016625556108355522,-0.00724255500677973,0.03225973569233902
1782811940849967600,5.265967529296875,-0.013332359781861305,-0.029436741560325025,0.010145509906671941
1782811940870050800,5.28605078125,-0.014225509229302406,0.033243148105964064,-0.04085046303821727
1782811940890133000,5.306133056640625,-0.01601823786497116,0.015385858245566486,-0.05456074362122453
1782811940910216000,5.3262158203125,-0.01886193685829639,-0.015377674939110875,-0.015937537311576305
1782811940930299000,5.346298828125,-0.013328852650523184,-0.006744286628440022,0.044810288313589984
1782811940950380800,5.366380859375,-0.025296938341856,-0.0008484335228800773,0.05441458574933931
1782811940970463700,5.386463623046875,-0.021253800430893897,0.027411665473505854,0.02006438971692696
1782811940990547000,5.406546875,-0.01347849025428295,0.0004985971719026565,-0.0333476861926727
1782811941010628900,5.42662890625,-0.02215513318479061,0.011835472287610173,-0.06293233005739748
1782811941030711800,5.4467119140625,-0.025893735191226005,0.02442179947514087,-0.05000988451698795
1782811941050794800,5.466794677734375,-0.018258710268139838,0.0010357362559065223,0.012535291120037435
1782811941070877000,5.486876953125,-0.0345686245560646,0.018965324167534707,0.05487294224239885
1782811941090959600,5.506959716796875,-0.019758593437075613,-0.005967164776101708,0.047439020248828456
1782811941111042600,5.52704248046875,-0.032328152152895924,0.010892455816455185,-0.006702913438435643
1782811941131124500,5.54712451171875,-0.018411855003237724,0.017419008040986953,-0.04862442150795832
1782811941151207400,5.56720751953125,-0.018255787658691406,0.004554338836111128,-0.05280401788069866
1782811941171290400,5.587290283203125,-0.020651742884516714,0.0016570830246433615,-0.01159572698129341
1782811941191372300,5.607372314453125,-0.020500936236977577,-0.007485021993145346,0.02556166282580234
1782811941211455200,5.627455322265625,-0.02349135022461414,0.03460168657545,0.048600109050609165
1782811941231538400,5.647538330078125,-0.011975684475898743,0.016407785171829163,0.009899188729096203
1782811941251620600,5.66762060546875,-0.03232873667478561,0.011221541640348732,-0.028619771754788234
1782811941271703600,5.68770361328125,-0.020949849048256874,-0.023385259501636026,-0.06295201200540178
1782811941291786500,5.707786376953125,-0.012116554251313208,0.01651394896004349,-0.030544858065852894
1782811941311868400,5.727868408203125,-0.032764205482602116,0.015413038513436913,0.02370086478944868
1782811941331951400,5.747951416015625,-0.028721067571640013,0.002280219891667366,0.04710355034992098
1782811941352034600,5.76803466796875,-0.02872691279053688,0.005196582262404262,0.033514101401297375
1782811941372116500,5.788116455078125,-0.015855740779638288,0.0037425475291907786,-0.021179684881912544
1782811941392199400,5.808199462890625,-0.03156710465252399,0.015229389042221009,-0.051358303451258684
1782811941412282400,5.828282470703125,-0.016748305705189703,0.002693549932911992,-0.02734133105049841
1782811941432364500,5.848364501953125,-0.02347790622115135,0.0018577932285144924,-0.0006692410310730338
1782811941452447500,5.868447509765625,-0.019589082089066505,0.006552453850768506,0.05230484532006085
1782811941472530400,5.888530517578125,-0.023934417816996574,0.022512495255097745,0.03246492114192806
1782811941492612400,5.9086123046875,-0.027978724771738052,0.006553367166221141,0.0036574721947778012
1782811941512695600,5.928695556640625,-0.02198737540245056,0.007890753249824047,-0.0432372394437436
1782811941532778500,5.948778564453125,-0.03290975143313408,0.005232311162911355,-0.05975991056635976
1782811941552860400,5.9688603515625,-0.01255611471235752,0.013271277244389056,-0.017863747000647707
1782811941572943400,5.988943359375,-0.02737491365969181,0.015417568558081983,0.04527491015065461
1782811941593026300,6.0090263671875,-0.020789105528593064,0.002908653988316655,0.06288978782361374
1782811941613108500,6.0291083984375,-0.018094459617137907,0.014287285886518656,0.01843196620950475
1782811941633191400,6.04919140625,-0.016452537629008293,0.009605119419656694,-0.034778951971651983
1782811941653274600,6.069274658203125,-0.0306692790299654,0.010376944042369723,-0.07110411047199741
1782811941673356500,6.0893564453125,-0.020792028138041495,0.02195515363328159,-0.033931093837507066
1782811941693439500,6.109439453125,-0.022291326785087585,0.003053907677903771,0.0221331222823821
1782811941713522400,6.1295224609375,-0.023942016601562498,-0.004451901374943554,0.05975899725090712
1782811941733604400,6.149604248046875,-0.02349485735595226,0.00752623078636825,0.04824743228857405
1782811941753687300,6.169687255859375,-0.02603869661986828,0.020803901238925754,-0.025262689012382177
1782811941773770500,6.1897705078125,-0.02050561241209507,0.014162782724015414,-0.055008615252887826
1782811941793852700,6.209852783203125,-0.025445406901836394,0.0019715923339128495,-0.055695976462541145
1782811941813935600,6.229935546875,-0.026792729857563972,0.015385164125822484,0.008168401147425175
1782811941834018600,6.2500185546875,-0.011975099954009055,0.008109802827984094,0.05224463956542313
1782811941854100500,6.2701005859375,-0.023497195443511008,0.00501165414955467,0.053264685061853376
1782811941874183400,6.290183349609375,-0.01273088675737381,-0.0017659502265974878,0.012022638023318722
1782811941894266400,6.310266357421875,-0.02709375863075256,0.0034223391314968463,-0.038885090382536874
1782811941914348300,6.330348388671875,-0.02185235084593296,0.027917971027828753,-0.04510036643450148
1782811941934431500,6.350431396484375,-0.011075520765781402,0.008167743560299277,-0.025165009924722835
1782811941954514400,6.370514404296875,-0.017059855872392653,0.006684665395691991,0.036353014621650796
1782811941974597400,6.390597412109375,-0.02784019308388233,-0.007824081221781671,0.03301349493539892
1782811941994679600,6.410679443359375,-0.024846856486797332,0.021030951460450885,0.01597952242293395
1782811942014762500,6.430762451171875,-0.028888825353980064,0.018068302262574432,-0.015506406752159817
1782811942034844400,6.450844482421875,-0.012274959683418274,0.006431238623894751,-0.03472341325897723
1782811942054927400,6.47092724609375,-0.023793548041582107,0.008922142124176025,-0.03037217751322314
1782811942075010600,6.491010498046875,-0.02124678616821766,0.005996354337967932,0.01614314288627356
1782811942095092500,6.511092529296875,-0.01930091279745102,0.023444113549403844,0.0148890877045691
1782811942115175400,6.531175537109375,-0.019448212313652038,0.0100419399343431,0.007612429498787969
1782811942135258600,6.551258544921875,-0.03231529267132282,0.008289397178590297,-0.007038447269424796
1782811942155341600,6.571341552734375,-0.02782791812419891,0.023743096495978534,-0.020808750943979246
1782811942175423700,6.591423828125,-0.014057751446962356,0.010629092172533274,-0.01187504624617286
1782811942195506700,6.611506591796875,-0.009122633132338524,0.002899045909754932,-0.011606905962433665
1782811942215589600,6.631589599609375,-0.022436288213729855,-0.0070980685021728275,-0.005914603471802548
1782811942235671600,6.651671630859375,-0.026321605214476584,0.04540898485910147,0.00815709430212155
1782811942255754500,6.67175439453125,-0.0296148015409708,0.01219257862959057,-0.007948255590721964
1782811942275837700,6.691837646484375,-0.03320902664065361,0.0022210735829547045,0.0010055420470423996
1782811942295919600,6.711919677734375,-0.024531214666366576,0.00010258359163999557,-0.0016599508351646363
1782811942316002600,6.73200244140625,-0.015702596044540405,0.017454919604584573,-0.009732791786780581
1782811942336085500,6.75208544921875,-0.026772856113314626,0.022869491999223827,-0.002148775531724095
1782811942356167700,6.772167724609375,-0.015104630151391029,-0.004658529862947762,-0.02082731864713132
1782811942376250600,6.792250732421875,-0.00867138223350048,0.009771488962508738,-0.010293878001952543
1782811942396333600,6.81233349609375,-0.025279402685165403,0.015405987718142567,-0.0025454101664945483
1782811942416415700,6.832415771484375,-0.020486323189735412,0.02156801747921854,0.02540049004787579
1782811942436498700,6.852498779296875,-0.022282558956742287,-0.0022784663259983063,0.019874511434324085
1782811942456581600,6.87258154296875,-0.01973696612715721,-0.00882328485958278,0.022001842319220304
1782811942476663600,6.89266357421875,-0.014798340681195258,0.00892561272289604,-0.003197389535512775
1782811942496746500,6.91274658203125,-0.02227788278162479,0.0070843322377651926,-0.02987601889357902
1782811942516829400,6.932829345703125,-0.017785832059383392,0.007042867716215551,-0.01643190583293326
1782811942536911400,6.952911376953125,-0.020776246047019956,-0.008845679354481398,-0.006803149809362367
1782811942556994600,6.97299462890625,-0.01224631811082363,0.011337824963778257,0.029693821593932804
1782811942577077500,6.993077392578125,-0.023914544072747228,0.016454583455622195,0.026115460783662274
1782811942597159700,7.01315966796875,-0.01044774425625801,-0.0031506095180287956,0.0048012810681946575
1782811942617242600,7.03324267578125,-0.013592472022771834,0.0033687092481181026,-0.025003343956451863
1782811942637325600,7.05332568359375,-0.02077273891568184,0.01186623275205493,-0.028567603176133705
1782811942657407500,7.073407470703125,-0.01748129615485668,0.012188779237307608,-0.01632955970331095
1782811942677490400,7.093490478515625,-0.022717443242669104,-0.0072702832639217375,0.012189619487524032
1782811942697573600,7.11357373046875,-0.01688449930548668,0.007437566122226417,0.022634103207616135
1782811942717655600,7.133655517578125,-0.020928806260228156,0.010255655750259756,0.02937724819174036
1782811942737738500,7.153738525390625,-0.004016834425926208,0.017637180836312473,-0.01071845095641911
1782811942757821400,7.173821533203125,-0.022280220869183538,0.005277794272452592,-0.018247476488072425
1782811942777903600,7.193903564453125,-0.0258721078813076,0.008457593352347612,-0.029397304599080232
1782811942797986600,7.213986572265625,-0.018091537007689475,0.006102518126182258,0.008116132104070856
1782811942818069800,7.23406982421875,-0.024081132811307904,0.027930392117984593,0.022939388030814006
1782811942838151700,7.254151611328125,-0.028127193331718443,-0.000927599706314504,0.02623223729743622
1782811942858234600,7.274234619140625,-0.016611527583003043,0.0008782076066359877,-0.00971651650541462
1782811942878317600,7.294317626953125,-0.026640169644355772,0.01593856022488326,-0.01766092703808099
1782811942898399500,7.3143994140625,-0.020502689802646634,0.02544047499839216,-0.032472492527030404
1782811942918482400,7.334482421875,-0.016761165186762808,0.0030085706988349555,-0.013073763644602148
1782811942938565400,7.3545654296875,-0.027685294783115384,0.0005824029978364706,0.01203253836282529
1782811942958647600,7.3746474609375,-0.02289806050658226,0.018836290960386394,0.018134663763362913
1782811942978730800,7.394730712890625,-0.025589199286699293,0.019953604552522302,0.01757267336589284
1782811942998813700,7.414813720703125,-0.014811200162768363,0.005454575611464679,0.0014318411677144466
1782811943018895600,7.4348955078125,-0.027979893815517423,0.014721366454847156,-0.020041565963765606
1782811943038978600,7.454978515625,-0.016604513320326805,0.010501849063672125,-0.028888368696253747
1782811943059061500,7.4750615234375,-0.02288578554689884,0.007119074757583439,0.0012759108204860238
1782811943079143400,7.495143310546875,-0.022138766571879385,0.007699760722368955,0.009024716582661494
1782811943099226600,7.5152265625,-0.012861819660663604,0.012629179948568343,0.0028326844089664517
1782811943119309600,7.5353095703125,-0.0159989486426115,0.005956095392815768,-0.0032491836548317224
1782811943139391700,7.555391845703125,-0.029312603724002836,0.02177574194576591,-0.010249719199817627
1782811943159474700,7.575474609375,-0.0357493587732315,-0.0019551891883835197,-0.02248892258326523
1782811943179558000,7.595557861328125,-0.02841711618900299,0.007052804588340222,-0.009727887282799929
1782811943199639800,7.615639892578125,-0.015997195076942444,0.011734605729021132,0.002742421442782506
1782811943219722800,7.63572265625,-0.021675825235247612,0.015080774351768194,0.01939746850710362
1782811943239805700,7.6558056640625,-0.019429507613182066,0.014085845030285418,0.002582426841789856
1782811943259887600,7.6758876953125,-0.0360457113713026,0.013939678025245665,-0.001041243548085913
1782811943279970600,7.695970458984375,-0.004167641073465347,-0.0017942264730110764,-0.0135929104141891
1782811943300053500,7.716053466796875,-0.02166939549446106,-0.0004105900948867202,-0.015252130596991627
1782811943320135700,7.7361357421875,-0.02211597021818161,0.02241484356690198,-0.009286143997823819
1782811943340219000,7.756218994140625,-0.027350363740324974,0.00926039763521403,0.013096569131454452
1782811943360301800,7.7763017578125,-0.03693009299039841,0.007526997971348464,0.012749436194216831
1782811943380383700,7.7963837890625,-0.018674889853596686,-0.006703918085433543,0.011484192898217588
1782811943400466700,7.816466796875,-0.032142858713865276,0.00227835672814399,-0.0031392935395706443
1782811943420549600,7.836549560546875,-0.018974749583005903,0.016640169155597687,-0.02393507540412247
1782811943440631600,7.856631591796875,-0.026304069557785987,0.005542509623244404,-0.022451714111724867
1782811943460714800,7.87671484375,-0.02555880414843559,0.015405147467926143,0.00826312109301798
1782811943480797700,7.896797607421875,-0.012695230922102927,0.0016113807193934918,0.02334437950197607
1782811943500880000,7.9168798828125,-0.02780629081428051,0.015317724912799894,0.02058361868490465
1782811943520962800,7.936962890625,-0.026315759995579717,0.014103928676247596,-0.0008078275178559125
1782811943541045800,7.957045654296875,-0.017782909449934957,0.008612674316205084,-0.0023010343508329243
1782811943561127700,7.977127685546875,-0.025861586487293243,-0.0038465924255549904,-0.01672758257756941
1782811943581210600,7.997210693359375,-0.01553074660897255,-0.006210435480065644,-0.00670602784412913
1782811943601293800,8.0172939453125,-0.02241173829436302,0.023965214814059436,0.0002673365661408752
1782811943621375700,8.037375732421875,-0.023904607200622558,-0.00264189281091094,0.019117783916043116
1782811943641458700,8.057458740234376,-0.027197219005227088,0.003628017771430313,0.02223354131639935
1782811943661541600,8.077541748046874,-0.021813772401213644,0.002811258028447628,0.0008806187594309449
1782811943681623800,8.097623779296875,-0.02735094826221466,0.023468553870916366,-0.016116894200164825
1782811943701706800,8.117706787109375,-0.030339608684182166,0.015109050598181782,-0.017794809950282795
1782811943721789700,8.137789794921876,-0.01776712735891342,-0.0027547786008566616,-0.007719250874128192
1782811943741871600,8.15787158203125,-0.03931260421276092,0.01841656771097332,0.02058393834531307
1782811943761954800,8.177954833984375,-0.03332826910614967,0.011569076436385512,0.025080035055009647
1782811943782037800,8.198037841796875,-0.01746609858572483,0.011230455599166453,0.015877112361229954
1782811943802119700,8.21811962890625,-0.016418050837516785,-0.001061455219052732,-0.013447729789838193
1782811943822202600,8.23820263671875,-0.03661737377941608,0.005628397808410227,-0.03833135635675862
1782811943842285600,8.25828564453125,-0.008331775015592575,0.037991146350651976,-0.020256523888697846
1782811943862367700,8.27836767578125,-0.008182137411832808,0.012684819125942885,0.021050514677446334
1782811943882451000,8.298450927734375,-0.00938157632946968,-0.017173326184228063,0.03781758901518769
1782811943902534000,8.318533935546874,-0.029735797572135923,0.005485920597799122,0.027500832461146638
1782811943922615800,8.33861572265625,-0.02868774982392788,0.02936751224901527,-0.01625283207213506
1782811943942698800,8.35869873046875,-0.02404606149792671,0.01656608100607991,-0.02985994454161264
1782811943962781700,8.37878173828125,-0.019104513442516326,-0.005044168179668486,-0.01877403937913477
1782811943982863600,8.398863525390626,-0.015815408769249917,-0.010154460398107766,0.0052268678028136485
1782811944002946600,8.418946533203124,-0.0282335763156414,0.02372607229594141,0.031204819811927152
1782811944023029800,8.43902978515625,-0.019552841731905937,0.038465047472715376,0.027499809547839683
1782811944043111700,8.459111572265625,-0.02090016468763351,-0.016004976524598896,-0.0005741557592991739
1782811944063194600,8.479194580078126,-0.010872107148170471,-0.01610635453984141,-0.018333437738474456
1782811944083277800,8.49927783203125,-0.015211597657203674,0.014589191442541777,-0.03153645378593355
1782811944103360000,8.519360107421875,-0.024632336953282354,0.015230740749090909,-0.025485318787116556
1782811944123443000,8.53944287109375,-0.022833763098716736,-0.001500102364644408,0.018860731281898916
1782811944143526100,8.559526123046876,-0.014309680381417274,-0.0019377265969291327,0.022611964441044255
1782811944163608000,8.579608154296874,-0.03570551963150501,0.014004194628819822,0.004492461714195087
1782811944183691000,8.59969091796875,-0.01401098969578743,0.02188241719063371,0.00045751624284312125
1782811944203774000,8.61977392578125,-0.01565758785903454,-0.009473273200914263,-0.018686863419180733
1782811944223855900,8.63985595703125,-0.016703297519683837,0.003485796289145946,-0.007926491283485666
1782811944243938800,8.659938720703124,-0.015200491741299628,0.006250877088308334,-0.0017160375371109693
1782811944264021800,8.680021728515625,-0.018041852647066117,0.032549393688142296,0.016197722617723048
1782811944284104000,8.70010400390625,-0.037349195185303684,0.0043293344411998985,0.007844895680947228
1782811944304187100,8.720187255859376,-0.015206336960196494,-0.010318309190310538,-0.0011695004370994866
1782811944324270000,8.74027001953125,-0.01714578059017658,0.0070568597089499235,-0.011045755815180018
1782811944344352000,8.76035205078125,-0.01564531289935112,0.016246639793366192,-0.014270663545280693
1782811944364435000,8.78043505859375,-0.01968202106952667,0.0022270283997058867,-0.002807924427045509
1782811944384518000,8.800517822265626,-0.014299158987402916,-0.013946546157449483,0.017558270381204784
1782811944404599800,8.820599853515626,-0.030308629024028776,0.001813990619406104,0.002855699958372861
1782811944424682800,8.840682861328125,-0.028657354685664174,0.01049520012717694,-0.0069058155993930994
1782811944444766000,8.860765869140625,-0.02581424021422863,0.015424254027195274,-0.013323811149224637
1782811944464848100,8.88084814453125,-0.0020177695631980893,-0.00946238648071885,-0.005158907999983057
1782811944484931000,8.90093115234375,-0.02266717436015606,0.006111907009035349,0.0010789634762797505
1782811944505014000,8.921013916015625,-0.021168460234999655,-0.0017015432208776474,0.004084666364593431
1782811944525096000,8.941095947265625,-0.021616788524389266,0.020141309144347905,0.0037645766979083417
1782811944545179000,8.961178955078125,-0.03224515004456043,0.001258987085148692,0.0052806438166648146
1782811944565262000,8.981261962890626,-0.02730652459859848,-0.0010097615644335746,0.010949291437072678
1782811944585344000,9.001343994140624,-0.01907762543559074,0.019543306718580424,0.00091336111840792
1782811944605427000,9.021427001953125,-0.02984744125306606,0.012987053475528955,-0.004495621785661205
1782811944625510000,9.041510009765625,-0.026554244926571845,-0.006339870546013117,-0.00633733152905479
1782811944645592000,9.061592041015626,-0.018921558091044424,-0.015795315829291938,0.011880005549080669
1782811944665675000,9.081675048828124,-0.018471476235985756,0.029779965507425368,0.005536847067438066
1782811944685758000,9.101758056640625,-0.008597147953510284,0.028752887482009826,0.0048573677701409905
1782811944705839900,9.12183984375,-0.017878771039843557,-0.013631269663199781,0.00864346218011342
1782811944725923000,9.141923095703126,-0.019077040913701056,-0.004916121353209018,-0.004638007664727046
1782811944746006000,9.162006103515624,-0.022066870379447937,0.027338088780641555,-0.012778808419173582
1782811944766088000,9.182087890625,-0.03284019332826137,0.014160809962637721,-0.0033932043685577806
1782811944786171000,9.2021708984375,-0.02476326985657215,0.004202712386846542,0.0019339911367278544
1782811944806253800,9.22225390625,-0.01833060646057129,-0.013983882493153214,0.0001432626619003713
1782811944826336000,9.2423359375,-0.03179740627706051,0.006663622607663273,0.0040974893135484304
1782811944846419000,9.2624189453125,-0.025657588347792623,0.01952891286704689,-0.007218635275075212
1782811944866502100,9.282502197265625,-0.012796353209018707,0.01074161263629794,-0.007576828462444245
1782811944886584000,9.302583984375,-0.016841829207539558,0.005675305690057576,0.005891286528296768
1782811944906667000,9.3226669921875,-0.030759295400977132,0.011088307182118297,-0.011139050988666712
1782811944926750000,9.34275,-0.01684299825131893,-0.00810194831509143,-0.0019472342107910662
1782811944946832000,9.362831787109375,-0.03150631437599659,0.01607270799856633,-0.005313103047851472
1782811944966914800,9.382914794921875,-0.026121114206314085,0.015505210308916866,-0.0032656507324427364
1782811944986997800,9.402997802734374,-0.006515665504336357,-0.005989741934090852,-0.0025260935446713116
1782811945007080200,9.423080078125,-0.025671032351255417,-0.004922003104723989,0.0031094829231966283
1782811945027163100,9.4431630859375,-0.023718144717812535,0.0033869024919345975,-0.008760494422214105
1782811945047246000,9.46324609375,-0.020872107636928556,0.013320705876685678,0.0027979784217663107
1782811945067328000,9.483327880859376,-0.026115268987417218,-0.0031452392231673,-0.004162910099420696
1782811945087410400,9.503410400390624,-0.012947159856557845,0.010012859970331191,-0.011168450613087043
1782811945107493400,9.523493408203125,-0.019230185648798942,-0.0004070098983123898,0.006920191184617578
1782811945127575300,9.5435751953125,-0.020875614768266677,0.008442286185361445,-0.007996186385676264
1782811945147658200,9.563658203125,-0.020426117435097695,-0.008175926866754888,-0.005637156503600999
1782811945167741400,9.583741455078124,-0.026859365352988242,0.02007876530215144,-0.005978014963679015
1782811945187823600,9.60382373046875,-0.002316460248827934,0.019284948043338954,-0.009049029040010646
1782811945207906600,9.623906494140625,-0.018328268373012543,0.004946881817653775,0.008012068941397592
1782811945227989500,9.643989501953126,-0.021320435926318167,-0.000040806934423744675,-0.001486895823199302
1782811945248071400,9.664071533203124,-0.017726795348525046,-0.0033837241541594264,0.002789082729257643
1782811945268154400,9.684154296875,-0.02281388935446739,0.01738130637910217,-0.015144085378944874
1782811945288237600,9.704237548828125,-0.029845687687397003,0.0005725757235661149,-0.008642868525069207
1782811945308319500,9.724319580078125,-0.024458149430155753,-0.0060106751242652535,-0.0037733536594081666
1782811945328402400,9.74440234375,-0.01682370902895927,0.020108575918525457,0.005132604514947161
1782811945348485400,9.7644853515625,-0.024307342782616613,0.0006434855353087186,0.007702363671408966
1782811945368567600,9.784567626953125,-0.03103869686424732,-0.0012124079970642924,0.002021020966209471
1782811945388650500,9.804650390625,-0.027893969097733496,-0.003382518577761948,-0.004577920641098171
1782811945408733400,9.8247333984375,-0.020856910067796705,0.024011793902143835,-0.008891947915311902
1782811945428815400,9.8448154296875,-0.02983399724960327,0.02130870895590633,0.0033096816704142836
1782811945448898600,9.864898681640625,-0.008436404433846472,0.002639408592879772,0.011647658097930252
1782811945468981500,9.8849814453125,-0.01876490622460842,0.005278707587905228,-0.0011806337524671107
1782811945489063400,9.9050634765625,-0.021011223846673963,0.01248199003022164,-0.0012453238859772681
1782811945509146400,9.925146484375,-0.013976502904295921,0.019616225824318826,-0.013995098006911575
1782811945529229300,9.945229248046875,-0.026997897040843963,-0.005529102152399719,-0.003823248082585633
1782811945549311500,9.9653115234375,-0.034628830310702324,-0.023294914337061344,-0.0014241053858306259
1782811945569394400,9.98539453125,-0.01876782883405685,0.0003054492199793458,-0.0015744005767162888
1782811945589477600,10.0054775390625,0.2716904505014419,-0.02892985148411244,0.11193871835395693
1782811945609560600,10.025560546875,0.10693944876193999,0.025577180055342614,0.08451331661604344
1782811945629642500,10.045642578125,0.014301497074961662,0.027815460501424968,0.01798717245091684
1782811945649725400,10.065725341796876,-0.16123042639791965,0.05297324610091746,-0.08884628605274483
