time,seconds_elapsed,z,y,x
1782812427000690700,0.074690673828125,-0.01717033050954342,-0.025415048296190797,0.06007736988454125
1782812427020772600,0.094772705078125,-0.013729834666848182,-0.03957859820518642,0.0030399065520148724
1782812427040855600,0.11485546875,-0.033332360759377476,0.05096049977270886,-0.023156985437404364
1782812427060937700,0.134937744140625,-0.0224082311630249,0.020135902316868303,-0.06218291819589212
1782812427081020700,0.155020751953125,-0.003555646654963493,-0.010027473017573356,-0.05138443340635858
1782812427101102600,0.1751025390625,-0.01702244647145271,-0.007023194901365787,0.009119756188662722
1782812427121185500,0.195185546875,-0.022704583761096,-0.022891813428886233,0.04520648455694318
1782812427141267500,0.215267333984375,-0.015668109253048897,0.039357393202558155,0.054616894255252554
1782812427161350400,0.235350341796875,-0.02285188327729702,-0.035756665296852584,-0.02710850867531262
1782812427181432600,0.2554326171875,-0.017617489755153655,-0.010086400130577385,-0.06208108352292329
1782812427201515800,0.275515869140625,-0.022406477597355843,0.023628274477273226,-0.05692427614848129
1782812427221597700,0.29559765625,-0.025843466308712957,0.00643920273464173,-0.005503291857708245
1782812427241680600,0.3156806640625,-0.027792846810817718,0.019881251702364534,0.038531536837667225
1782812427261762600,0.335762451171875,-0.021509236496686936,-0.06117312009884044,0.05434732006625272
1782812427281845500,0.355845458984375,-0.024199790754914283,0.0016928301914595067,0.0213614803227596
1782812427301927700,0.375927734375,-0.01806464900076389,0.03314580694502219,-0.029290264028031376
1782812427322010600,0.3960107421875,-0.01881108345389366,0.013484207609016448,-0.07102782123223877
1782812427342093800,0.41609375,-0.019713585251569746,0.0014077844386920333,-0.028554661496169864
1782812427362175700,0.43617578125,-0.01582651468515396,-0.024179021961521358,0.002762222121795639
1782812427382258700,0.4562587890625,-0.023913959550857542,0.03274453266775235,0.05638780378475785
1782812427402340600,0.476340576171875,-0.02316518701016903,-0.002465842124260962,0.03941147974366322
1782812427422423600,0.496423583984375,-0.02391279050707817,-0.025537779626715926,-0.010947373474622145
1782812427442505500,0.51650537109375,-0.015533084696531295,0.026077366396132853,-0.04592830515862442
1782812427462588700,0.536588623046875,-0.019121464577317237,0.01957810403732583,-0.055910843055928125
1782812427482670600,0.556670654296875,-0.033034254595637316,0.036269108331017194,0.00255612335675396
1782812427502753500,0.57675341796875,-0.01028524717092514,-0.03939103974383324,0.020653158523468298
1782812427522835500,0.59683544921875,-0.020457681617140767,-0.009428539010044187,0.046007864067703484
1782812427542918700,0.616918701171875,-0.027341011390089986,0.004162928365729749,0.02156006250162609
1782812427563000600,0.63700048828125,-0.0237502934217453,0.013037285825423895,-0.033608702615881336
1782812427583083500,0.65708349609375,-0.005348375290632247,0.021986845679488033,-0.045103060715086754
1782812427603165700,0.677165771484375,-0.01268295596241951,-0.028642558975331484,-0.04328283215113915
1782812427623248600,0.69724853515625,-0.026595161458849905,0.014358140899334102,0.015559351648949086
1782812427643330600,0.71733056640625,-0.023151743006706235,0.0012468582559376955,0.059353768317727366
1782812427663413500,0.73741357421875,-0.03048457011282444,-0.014887224541045725,0.033745736466394734
1782812427683495400,0.757495361328125,-0.026598668590188026,-0.012371807654015719,-0.022060084445634856
1782812427703578400,0.777578369140625,-0.011783376774191856,-0.007311181529890746,-0.06849472255804576
1782812427723661600,0.79766162109375,-0.02539630706310272,0.049749827075004575,-0.036642334690736605
1782812427743743700,0.81774365234375,-0.023751462465524672,-0.013478545053210108,-0.012802728150878101
1782812427763826700,0.83782666015625,-0.013727496579289436,-0.025830004038941114,0.04205930910501629
1782812427783908600,0.85790869140625,-0.02704991948902607,-0.02564925891086459,0.04376159211141057
1782812427803991600,0.877991455078125,-0.005800795233249664,0.0016728468493558465,0.013601239851117133
1782812427824073500,0.898073486328125,-0.015976152288913727,0.03368446213267744,-0.03994379652207717
1782812427844156400,0.918156494140625,-0.01836976942718029,-0.0251217461717315,-0.0644107411800418
1782812427864238600,0.938238525390625,-0.02570318105518818,0.003374371803924441,-0.027696236302237956
1782812427884321800,0.95832177734375,-0.023455109867453573,0.007147150074597448,0.013122890882799401
1782812427904403700,0.97840380859375,-0.02165712053477764,-0.002360536852572113,0.05832478146301582
1782812427924487400,0.9984873046875,-0.02046586492359638,-0.003687821667268872,0.03674191347453743
1782812427944569300,1.0185693359375,-0.01672843196094036,-0.035465682993642986,-0.027095977987302466
1782812427964652300,1.03865234375,-0.021364859589934348,0.04241405909312889,-0.042641675570234655
1782812427984734200,1.058734130859375,-0.015232640445232391,0.018892953051067887,-0.04708167644483037
1782812428004817200,1.078817138671875,-0.013588380369544028,0.0011718202583491802,-0.005710386136593297
1782812428024899300,1.0988994140625,-0.025860417443513868,-0.023736885950900614,0.04284750947379507
1782812428044982300,1.118982177734375,-0.02840133409798145,-0.024596096596121785,0.03810508245336823
1782812428065064200,1.139064208984375,-0.02092120747566223,0.02808505295673385,0.01165122002819553
1782812428085147400,1.1591474609375,-0.027210078486800193,-0.0077072681753896175,-0.05164272814951837
1782812428105229300,1.179229248046875,-0.01673895335495472,0.005019947053864598,-0.046951337196584786
1782812428125312300,1.199312255859375,-0.031104747837781905,0.002965407410543412,-0.03149283383991569
1782812428145394400,1.21939453125,-0.02422024902105331,0.00907994476808235,0.016475014322297647
1782812428165477400,1.239477294921875,-0.010600888991355896,0.008543463271204381,0.0614301909992937
1782812428185560300,1.259560302734375,-0.025115152034163472,-0.044293022973835465,0.01634629164240323
1782812428205642200,1.279642333984375,-0.023766660034656523,0.006971976170781999,-0.012648487437237054
1782812428225725400,1.299725341796875,-0.018231822261214257,0.013011548595968633,-0.05034241354013793
1782812428245807400,1.319807373046875,-0.03005260843634605,0.02871692111948505,-0.04305313331480138
1782812428265890300,1.339890380859375,-0.029008652341365813,-0.013794552199821918,-0.009631486836774275
1782812428285972500,1.359972412109375,-0.016589315751194954,-0.04100839354628697,0.033010654524341224
1782812428306055400,1.380055419921875,-0.018231822261214257,0.015588796939142047,0.05803056602310389
1782812428326137300,1.400137451171875,-0.027651392513513562,0.004726206537988036,-0.0014645013283006846
1782812428346220300,1.42022021484375,-0.01433598386645317,0.006023863399401307,-0.04220470892507583
1782812428366302200,1.44030224609375,-0.01583645155727863,-0.0023734876656904816,-0.050334303298918526
1782812428386385200,1.46038525390625,-0.016886837393045424,0.0055309105169959365,-0.029639123131474477
1782812428406467000,1.480467041015625,-0.02721241657435894,0.025469427098240703,0.03046929034530185
1782812428426550300,1.50055029296875,-0.014643442380428313,-0.02343107140474021,0.03959090969748795
1782812428446632400,1.520632568359375,-0.03738835815191269,-0.015068682055175303,0.029626555910846217
1782812428466715400,1.54071533203125,-0.008211948028206824,0.01809332710597664,-0.015093268507160246
1782812428486797300,1.56079736328125,-0.03095803284347057,0.023491222360450772,-0.04717890800791792
1782812428506880300,1.58088037109375,-0.014198036700487136,0.02840699665378779,-0.03653033481677994
1782812428526962200,1.600962158203125,-0.020185878938436506,-0.023314568885602054,-0.004617503732815385
1782812428547045000,1.621045166015625,-0.018242343655228612,-0.007253277330193668,0.02851242065648548
1782812428567127300,1.641127197265625,-0.024980127477645872,-0.0029686770798638463,0.04792197232702747
1782812428587210500,1.66121044921875,-0.014205050963163376,0.0053594994728453456,-0.0004676266449037939
1782812428607293400,1.68129345703125,-0.024681436792016027,0.00285717952940613,-0.03751620404897257
1782812428627375400,1.701375244140625,-0.025429624810814858,-0.005050049931183457,-0.06394094084436074
1782812428647458300,1.721458251953125,-0.02333060670495033,0.03539583262782544,-0.02785551851717755
1782812428667540200,1.741540283203125,-0.009714169284701347,-0.0025661058946512636,0.01637168181198649
1782812428687623200,1.761623046875,-0.011962824994325638,-0.020540427997149526,0.05357899344172328
1782812428707705300,1.781705322265625,-0.027823826470971105,-0.01387969146631658,0.01008123076511547
1782812428727788300,1.801788330078125,-0.027822657427191734,0.013001209865044801,-0.015305459086271001
1782812428747870200,1.8218701171875,-0.021088380736112595,0.0403746987526305,-0.036992435903195287
1782812428767953400,1.841953369140625,-0.024081717333197594,0.0046839930977672336,-0.04856529346555471
1782812428788035300,1.862035400390625,-0.01899462332725525,-0.005894647529162466,-0.01786212129914202
1782812428808118300,1.8821181640625,-0.013012041786313057,-0.0041457397689111525,0.030589208664232863
1782812428828200400,1.902200439453125,-0.02692833893597126,0.009170417796820401,0.04154585229069926
1782812428848283400,1.922283447265625,-0.030067221483588216,0.0005096482888795435,0.00823342007449828
1782812428868365300,1.942365234375,-0.01285889705121517,-0.01236303982567042,-0.0523661379200872
1782812428888448300,1.9624482421875,-0.029617724150419234,0.021756306592933834,-0.0481102066418156
1782812428908529700,1.98252978515625,-0.017494740158319474,0.016359799577947705,-0.023030025456333533
1782812428928612600,2.002612548828125,-0.027519875088334082,-0.0023938546002842485,0.017606475170794875
1782812428948694800,2.02269482421875,-0.029319617986679074,-0.019778631578106432,0.03713280335511081
1782812428968778000,2.042778076171875,-0.016751812836527824,-0.020832816806156187,0.016122209696099163
1782812428988861000,2.06286083984375,-0.012259762114286423,0.02556169022526592,-0.00423344545182772
1782812429008942800,2.08294287109375,-0.012106032857298851,-0.0005984225508756935,-0.04452345246253535
1782812429029025800,2.10302587890625,-0.02317337031662464,0.012092497522290795,-0.042211604456743226
1782812429049107700,2.123107666015625,-0.019731705430150032,-0.007064933417551219,-0.004319342770148068
1782812429069190700,2.143190673828125,-0.031100071662664413,0.00911971052289009,0.03723444623183459
1782812429089272800,2.16327294921875,-0.025260113462805746,0.00030672786161303517,0.04266942209368571
1782812429109355800,2.183355712890625,-0.03094634240567684,-0.009582523995358496,0.0012411957001313566
1782812429129437700,2.203437744140625,-0.0240682733297348,0.010472275909315794,-0.03697007794091478
1782812429149521000,2.22352099609375,-0.02032908680140972,0.0015612944999709724,-0.05393331417157314
1782812429169602800,2.243602783203125,-0.01614157198369503,0.017098269920330495,-0.022816273107798768
1782812429189685800,2.263685791015625,-0.03963526029586792,-0.014469419254083186,0.02584437962416559
1782812429209768000,2.283767822265625,-0.029310850158333776,-0.030929153808858245,0.04070881694466807
1782812429229851000,2.303850830078125,-0.01539689109623432,0.008761489936057477,0.030081752332439645
1782812429249932800,2.323932861328125,-0.027667174604535102,0.003075882047694176,-0.020792877521412446
1782812429270015700,2.344015625,-0.012854220876097678,0.01903062622239813,-0.026817891698284073
1782812429290097700,2.36409765625,-0.018540449818968772,-0.0018858320129103957,-0.03684542864793911
1782812429310180900,2.384180908203125,-0.014653379252552985,-0.008946801641397177,-0.00530016136788763
1782812429330262800,2.4042626953125,-0.011658289089798927,0.014926515371818095,0.03708155722506344
1782812429350345700,2.424345703125,-0.025128011515736577,-0.017663374723494052,0.036490103271091354
1782812429370428000,2.444427978515625,-0.021834230667352676,0.00006139306472614407,0.003634502311144024
1782812429390510800,2.4645107421875,-0.01719604947268963,0.0022904855573549865,-0.04367900099502876
1782812429410593800,2.48459375,-0.020631284618377686,0.020526180276088414,-0.024383823818620292
1782812429430675700,2.50467578125,-0.0171884506881237,0.016627620201278476,-0.008151495678396896
1782812429450758700,2.524758544921875,-0.020330255845189094,-0.021981329254154115,0.02111533267511986
1782812429470840600,2.544840576171875,-0.020025135418772697,-0.01872656524190679,0.03233364117876626
1782812429490923800,2.564923828125,-0.015085340929031372,-0.004301405254658311,0.022090534382825718
1782812429511006000,2.585005859375,-0.01837327655851841,0.009021656975895166,-0.018884851943003014
1782812429531089000,2.6050888671875,-0.016132219633460045,-0.002644705822505057,-0.05221548653617501
1782812429551170800,2.6251708984375,-0.0240682733297348,-0.004834872810542583,-0.04723758852574974
1782812429571253800,2.645253662109375,-0.015093524235486983,0.007117375990841538,-0.002863170878775418
1782812429591335700,2.665335693359375,-0.02002455089688301,-0.007011449664644897,0.027608841146575285
1782812429611418600,2.685418701171875,-0.02990121726691723,-0.008809968720283359,0.031145993163622914
1782812429631500800,2.705500732421875,-0.023021979147195816,-0.018131412360351533,-0.0003487129729706794
1782812429651584000,2.725583984375,-0.015841127732396126,0.004306099696084857,-0.03815421882472001
1782812429671666000,2.745666015625,-0.022875848674774168,0.03323341216323897,-0.04799303740239702
1782812429691748900,2.765748779296875,-0.022576573467254637,0.007086944319959729,-0.027468473694659767
1782812429711830800,2.785830810546875,-0.01674362953007221,-0.012993245754297823,0.012517134408839047
1782812429731913700,2.805913818359375,-0.02093523600101471,-0.0170044906896539,0.032276339767267924
1782812429751996700,2.82599658203125,-0.013005027523636817,0.008141732336208223,0.01642101911273785
1782812429772078800,2.846078857421875,-0.02647299638390541,0.009937018255144358,-0.013745361029542982
1782812429792161800,2.866161865234375,-0.021984452793002127,-0.002929203586000949,-0.04208849866688251
1782812429812243700,2.88624365234375,-0.015404489880800246,0.019485968774463982,-0.03757819990189746
1782812429832327000,2.906326904296875,-0.018697686207294464,-0.003341163654066622,-0.00970356569229625
1782812429852408800,2.926408935546875,-0.025278818163275717,0.012139350605010986,0.040230157449096436
1782812429872491800,2.94649169921875,-0.019143676409125326,-0.007054448556154966,0.033393616826785724
1782812429892574000,2.966573974609375,-0.002233458140492439,-0.022391097365133464,0.00927953159394674
1782812429912657000,2.986656982421875,-0.020037410378456116,0.019426749400515107,-0.028487213149992748
1782812429932739000,3.006739013671875,-0.013896423405408859,0.03093744671316817,-0.04402733950866386
1782812429952822000,3.026822021484375,-0.024969606083631513,0.009235902514774352,-0.014651698752120136
1782812429972904000,3.046904052734375,-0.02916121255457401,-0.022112152559589593,0.019081525292573495
1782812429992987100,3.066987060546875,-0.025571663630008696,-0.003649772945512086,0.023425956838205454
1782812430013069000,3.087069091796875,-0.02901274399459362,0.0025700331510975956,0.034021365936845537
1782812430033152000,3.107152099609375,-0.015101123020052908,0.0025450813729315995,-0.02542598981531337
1782812430053234200,3.127234130859375,-0.02617547474205494,0.017677585911937056,-0.04691031106645241
1782812430073317000,3.147317138671875,-0.026324527823925015,0.001985474728792906,-0.03776663514608517
1782812430093399000,3.16739892578125,-0.018098551270365713,0.013935239312145858,0.0017545611829031258
1782812430113482000,3.18748193359375,-0.03366320014894009,0.0006898088950663805,0.028701760082971303
1782812430133565000,3.20756494140625,-0.00867313579916954,-0.007866093732602894,0.03268276514369063
1782812430153646800,3.227646728515625,-0.013309563428163527,-0.006466656997147947,-0.004655588987190276
1782812430173730000,3.24772998046875,-0.024082886376976965,0.024180958190280943,-0.02488480474385433
1782812430193812200,3.267812255859375,-0.01450549521446228,0.020316026390437034,-0.03201736917067319
1782812430213895200,3.287895263671875,-0.025730653584003445,0.01261922481013462,-0.02685390372658148
1782812430233977000,3.30797705078125,-0.013460954597592353,-0.005595006995461881,0.0164996738395188
1782812430254060000,3.32806005859375,-0.01690261948406696,0.003539462705142796,0.01947522818474099
1782812430274142000,3.348141845703125,-0.020042671075463293,-0.016483133696671575,0.029766402772953733
1782812430294225000,3.368224853515625,-0.011513327661156654,0.009383713487628847,-0.015621959423227234
1782812430314307000,3.38830712890625,-0.012557283756136893,0.004019720502756536,-0.03327382637201808
1782812430334390300,3.408390380859375,-0.027219430837035177,0.017152685254998506,-0.03806187349930405
1782812430354472200,3.42847216796875,-0.02407178046107292,0.005654500364046544,0.0006783011203631758
1782812430374555100,3.44855517578125,-0.02048164701461792,-0.007043598368577659,0.029960856765974313
1782812430394637000,3.468636962890625,-0.028565000227093695,-0.010728022502362728,0.03006124840052798
1782812430414720000,3.488719970703125,-0.012550854015350341,-0.00003225830178707838,-0.0013767773790750652
1782812430434803000,3.508802978515625,-0.012852467310428618,0.028035076335165648,-0.0289807140216697
1782812430454885000,3.528885009765625,-0.0329044907361269,0.005139390448760241,-0.03386752708200365
1782812430474968000,3.548968017578125,-0.01868774933516979,-0.007878386958595366,-0.018112972521362826
1782812430495050000,3.569050048828125,-0.02182487831711769,0.0021534882394596932,0.01229242227487266
1782812430515133200,3.58913330078125,-0.025711948883533477,-0.007824044689163565,0.03518086556973867
1782812430535215000,3.609215087890625,-0.010898995155096054,-0.002287727344688028,0.01241026736772619
1782812430555298000,3.629298095703125,-0.02930851207077503,-0.010126586010493337,-0.023233137679845094
1782812430575380000,3.6493798828125,-0.01823825200200081,0.018103958097845315,-0.03971460000923834
1782812430595463000,3.669462890625,-0.02048106249272823,0.020912549245171247,-0.024522501636948434
1782812430615545000,3.689545166015625,-0.027216508227586745,-0.007433328338526189,-0.002931222013151273
1782812430635628000,3.7096279296875,-0.01973871969282627,-0.014771361342724412,0.03762630422678776
1782812430655710000,3.7297099609375,-0.018244097220897672,-0.009039083034731447,0.022375991127546874
1782812430675793000,3.74979296875,-0.023635142609477043,0.006158650493901223,-0.0018326496541034428
1782812430695876000,3.7698759765625,-0.03290858238935471,0.013370956492889672,-0.03506712126326747
1782812430715958000,3.7899580078125,-0.017796937975287436,0.01283303195759654,-0.041685562155488874
1782812430736041000,3.810041015625,-0.007920856127142906,-0.008875435171928256,-0.014153229444380848
1782812430756123100,3.830123046875,-0.01076104798913002,-0.009837265941407531,0.01971560367872007
1782812430776206000,3.8502060546875,-0.020483400580286977,0.007359824710898101,0.04599076680243015
1782812430796288000,3.8702880859375,-0.019285130706429482,-0.0037863136056810616,0.004668558066617697
1782812430816371000,3.890370849609375,-0.021082535517215728,0.003442852196563035,-0.012156073410948738
1782812430836452900,3.910452880859375,-0.035002924320101735,0.011047975171729922,-0.03309981237882748
1782812430856536000,3.9305361328125,-0.01899111619591713,0.012556918429955839,-0.02331125355050899
1782812430876618200,3.9506181640625,-0.016148586246371267,0.011561477651819587,0.0009265128609258681
1782812430896701200,3.970701171875,-0.02078969005048275,-0.019752236761525273,0.028683128447737544
1782812430916782800,3.990782958984375,-0.011509820529818535,-0.011760854415129869,0.025545241413963957
1782812430936865800,4.01086572265625,-0.025874445968866348,0.000024476854130625725,-0.012661008992092684
1782812430956949000,4.030948974609375,-0.04129004176557064,0.01204648468978703,-0.01281540496936068
1782812430977031000,4.051031005859375,-0.024380992540717124,0.0036974845447577532,-0.026259947288269175
1782812430997113900,4.07111376953125,-0.015102292063832281,-0.008117255482077599,-0.0032002756123431027
1782812431017196000,4.091196044921875,-0.02123918738365173,0.000035674101579934356,0.017064842574764042
1782812431037279000,4.111279052734375,-0.027076807495951653,0.007141542317718267,0.029118697720253838
1782812431057361000,4.13136083984375,-0.02303483862876892,0.006029599020443857,0.006001934695383533
1782812431077443800,4.15144384765625,-0.020042671075463293,-0.003079699706286192,-0.02158250266229734
1782812431097525800,4.17152587890625,-0.00822130037844181,0.012621380234602839,-0.03765920184939168
1782812431117609000,4.19160888671875,-0.009415478599071502,0.020359244477655736,-0.03545728049147874
1782812431137691100,4.211691162109375,-0.013301964643597602,-0.008495514209941029,-0.008450652154907584
1782812431157774000,4.231774169921875,-0.020184709894657135,-0.017781046286411584,0.025492853639600795
1782812431177856000,4.25185595703125,-0.02811784098148346,-0.0009628354164771735,0.024813392608612775
1782812431197939000,4.27193896484375,-0.015998364120721816,0.009091525608021766,-0.009404034756449981
1782812431218022000,4.29202197265625,-0.01853752720952034,0.02046336243925616,-0.03265544787850231
1782812431238103800,4.312103759765625,-0.03604746493697166,-0.003813676536642015,-0.04501098025115206
1782812431258186800,4.332186767578125,-0.028115502893924713,-0.0017435739980079233,-0.019797473275894296
1782812431278269000,4.35226904296875,-0.012701076140999794,0.006618358693830669,0.021810557530820368
1782812431298352000,4.37235205078125,-0.015842881298065183,-0.0010542034943588077,0.022787357540568334
1782812431318434000,4.39243408203125,-0.016296470284461975,-0.006916519656497985,0.021869256314961238
1782812431338517000,4.41251708984375,-0.013455109378695488,-0.0038676534798927605,-0.029772439788095652
1782812431358599000,4.432598876953125,-0.021084873604774474,0.0239038948145695,-0.03739003865234554
1782812431378681900,4.452681884765625,-0.029018004691600797,0.0027585779931396243,-0.032077136533893644
1782812431398763800,4.472763671875,-0.01629880837202072,-0.0013336962891742586,0.0176137634281069
1782812431418846700,4.4928466796875,-0.01690145044028759,-0.010197240093909203,0.019057642093487082
1782812431438929000,4.512928955078125,-0.01435819569826126,-0.006749218531884252,0.029559692086558786
1782812431459012000,4.53301220703125,-0.028722236615419387,0.006812620890606194,-0.003911282559065148
1782812431479095000,4.553094970703125,-0.023487843093276024,-0.0074185326281934975,-0.03486225547408685
1782812431499177000,4.573177001953125,-0.022591771036386488,0.004764602319616824,-0.04015175845064223
1782812431519260000,4.593260009765625,-0.014811200162768363,0.0037545302279293536,-0.007988240541238338
1782812431539341800,4.613341796875,-0.013909282886981964,0.003772376411873847,0.01876450436580926
1782812431559424800,4.6334248046875,-0.03081950115561485,-0.005940386367030441,0.031102793342713264
1782812431579507000,4.6535068359375,-0.02767418886721134,-0.005298964924644678,0.007195108269015327
1782812431599590000,4.67358984375,-0.011512743139266967,0.005623940829001367,-0.017707122533675283
1782812431619671800,4.693671875,-0.027823826470971105,0.01776915491921827,-0.046317350141983474
1782812431639755000,4.713755126953125,-0.017200141125917435,0.013463749342877416,-0.025719666399108245
1782812431659837000,4.7338369140625,-0.03755202428102493,-0.0026214893436990678,0.010845456603262573
1782812431679919900,4.753919921875,-0.015555881050229071,-0.01578554335394874,0.0218487615162041
1782812431700002800,4.7740029296875,-0.03081774758994579,-0.005214830305147916,0.031178790321527046
1782812431720085000,4.7940849609375,-0.023186814320087432,0.00658940659398213,-0.007933313749916852
1782812431740168000,4.81416796875,-0.0203431153267622,0.004184299947321415,-0.03490870669800788
1782812431760249900,4.834249755859375,-0.015106968238949775,0.0015855521583929657,-0.02863655849280767
1782812431780332800,4.854332763671875,-0.027077976539731024,0.006219586900901049,-0.004733987985644489
1782812431800415000,4.8744150390625,-0.023332944792509077,-0.0037484292807057496,0.01597168617635034
1782812431820498000,4.894497802734375,-0.014506079736351965,-0.006106609779410064,0.031007077883277088
1782812431840580000,4.914580078125,-0.026178981873393056,-0.015185732563585042,0.004889726536627859
1782812431860663000,4.9346630859375,-0.025280571728944778,0.0027766251064836977,-0.020644080167869106
1782812431880745000,4.954744873046875,-0.019890110862255096,0.018708098003454507,-0.02580725335101597
1782812431900828000,4.974827880859375,-0.014649872121214866,0.013983462368045001,-0.02828360773613676
1782812431920909600,4.99490966796875,-0.01135842936038971,-0.006312562413979321,0.012150036395806819
1782812431940992500,5.014992431640625,-0.01914133832156658,-0.0007240216919220983,0.02460727557726204
1782812431961075700,5.03507568359375,-0.021084873604774474,0.015049630294833331,0.000927517507923767
1782812431981158000,5.055157958984375,-0.01689443617761135,0.011425156187359243,-0.014571025598188861
1782812432001240800,5.07524072265625,-0.01779167727828026,-0.0008533288937062025,-0.03825678415005095
1782812432021322800,5.09532275390625,-0.016444938844442366,0.009770064190402626,-0.04037215060251765
1782812432041405700,5.11540576171875,-0.01570142700076103,0.0111241091478616,0.0031646837091539055
1782812432061487600,5.135487548828125,-0.010311550655961036,0.0016058642940595745,0.009305140959238633
1782812432081570600,5.155570556640625,-0.02168108593225479,-0.008645973797608167,0.021775760212074963
1782812432101652700,5.17565283203125,-0.017785832059383392,-0.024951723367068915,0.006490969454497099
1782812432121735700,5.195735595703125,-0.015540098959207533,0.011824019311834126,-0.029129694038303566
1782812432141817600,5.215817626953125,-0.024670915398001668,0.016823654230032115,-0.04591376517661847
1782812432161900800,5.23590087890625,-0.02572013218998909,-0.0049828847127966576,-0.019545206414721905
1782812432181982700,5.255982666015625,-0.008209025418758393,-0.004475008255895227,-0.0019268124772701411
1782812432202065700,5.276065673828125,-0.029456980630755424,-0.0075153988650999955,0.02880496472911909
1782812432222148600,5.296148681640625,-0.022723872983455656,0.008638795138150452,0.02171939951549284
1782812432242230500,5.31623046875,-0.021228081467747687,0.0007360591895878315,-0.013584507912024854
1782812432262939600,5.336939697265625,-0.031551907083392144,0.005458375003747642,-0.03419412868786603
1782812432283022600,5.357022705078125,-0.02182663188278675,0.009548238133266568,-0.02554844715120271
1782812432303105500,5.37710546875,-0.027208324921131132,0.008075991889927536,-0.015528709915513172
1782812432323187700,5.397187744140625,-0.03498948031663895,-0.01510262085739523,0.025561251833848653
1782812432343270700,5.417270751953125,-0.022570143726468084,-0.0080423270823434,0.017342755333846435
1782812432363352800,5.437352783203125,-0.02496492990851402,-0.001905742289777845,0.00603464965489693
1782812432383435800,5.457435791015625,-0.016736030745506284,0.024285697206389158,-0.032929479046911
1782812432403517700,5.477517578125,-0.01194528933763504,0.011188205626327543,-0.04250625828807242
1782812432423600600,5.4976005859375,-0.015835867035388945,0.002206332671549171,-0.0187040063502267
1782812432443682600,5.5176826171875,-0.017636194455623627,-0.009881561740860342,0.01293720471812412
1782812432463765500,5.537765625,-0.016886837393045424,-0.010389657393470406,0.03603837744821794
1782812432483847700,5.55784765625,-0.01988251207768917,0.011972031214088201,0.014756967491190879
1782812432503930600,5.5779306640625,-0.0279635272026062,-0.01012930769054219,-0.027510056947218253
1782812432524012500,5.598012451171875,-0.01344751059412956,0.010170790478400886,-0.03838648407747969
1782812432544095700,5.618095703125,-0.021675825235247612,0.0019033128706738352,-0.01810802235160954
1782812432564178700,5.6381787109375,-0.023469722914695738,0.004889160281047225,-0.0028992377059999853
1782812432584260600,5.658260498046875,-0.016734861701726913,-0.008927987343072891,0.0276778147295583
1782812432604971500,5.678971435546875,-0.028554478833079336,-0.002132262788340449,0.01460230665244162
1782812432625054700,5.6990546875,-0.030798458367586132,0.009495941690448671,-0.0029564751854166387
1782812432645136600,5.71913671875,-0.016584639576077462,0.00940128567693755,-0.029007437631813807
1782812432665219800,5.7392197265625,-0.02795826650559902,0.009893489640671759,-0.034261284773098304
1782812432685301800,5.7593017578125,-0.018534604600071905,-0.0040374936214648185,-0.021426444450905545
1782812432705384700,5.779384765625,-0.02107844386398792,-0.011091741248220205,0.011249406894808635
1782812432725467600,5.799467529296875,-0.03649287061691284,-0.00743097198465839,0.032021186829265205
1782812432745549600,5.819549560546875,-0.022873510587215422,-0.009340422335173935,0.008487769294902681
1782812432765632500,5.839632568359375,-0.017937807750701903,-0.0037529045264236625,-0.01641565795103088
1782812432785714700,5.859714599609375,-0.02662029590010643,0.008507113316189497,-0.03248332444829866
1782812432805797600,5.879797607421875,-0.01629354767501354,0.0086114322071895,-0.015067796139186247
1782812432825879600,5.899879638671875,-0.021979776617884635,0.008930325430631637,-0.003599841989716515
1782812432845962800,5.919962646484375,-0.016890344524383545,-0.010438812031131237,0.020257172342669216
1782812432866044700,5.940044677734375,-0.022277298259735106,-0.0011882051375694572,0.022569668802432715
1782812432886127600,5.960127685546875,-0.02781272055506706,0.0004049640716984868,-0.0029687318787910044
1782812432906209800,5.980209716796875,-0.021524434065818786,0.002362235619314015,-0.03098803525608964
1782812432926293000,6.00029296875,-0.029154782813787458,0.009954535645525902,-0.03174806897630915
1782812432946376000,6.0203759765625,-0.014637012639641761,-0.0023772687916643917,-0.0019257347650360314
1782812432966457900,6.040457763671875,-0.015084756407141684,0.0035535277631133792,0.0027254794411361214
1782812432986540800,6.060540771484375,-0.029145430463552474,-0.007125230503734201,0.025292517895065248
1782812433006622700,6.080622802734375,-0.029593174231052396,-0.010613328347820788,-0.0017452727647498249
1782812433026705700,6.10070556640625,-0.024806524476408957,0.005147336293198168,-0.029240789729962125
1782812433046787800,6.120787841796875,-0.022713351589441298,0.012852211582101881,-0.030939392075082284
1782812433066871000,6.14087109375,-0.0240595055013895,0.011054203983116894,-0.030676786482986062
1782812433086953000,6.160952880859375,-0.010147300004959106,0.011471680476516484,0.006765174152841791
1782812433107036000,6.181035888671875,-0.019576807129383086,-0.005206409536674618,0.019731166574032975
1782812433127117800,6.201117919921875,-0.017629764714837074,-0.00269495643870905,0.021770517781376838
1782812433147200800,6.22120068359375,-0.011193009665608405,0.0018275807533413172,0.00036373701216652987
1782812433167283700,6.24128369140625,-0.017329904985427854,0.0002535181033425033,-0.03036448739711195
1782812433187366000,6.261365966796875,-0.021970424267649648,-0.0007151625320315361,-0.03897192841577343
1782812433207448800,6.28144873046875,-0.02032733323574066,0.0049342232654802495,-0.014204146780865266
1782812433227531000,6.301531005859375,-0.026013562178611754,0.0021555157997645434,-0.0021409210188314317
1782812433247614000,6.321614013671875,-0.028110826718807217,0.0038767866344191133,0.02026230517551303
1782812433267695900,6.34169580078125,-0.0309568637996912,-0.01417922240216285,0.009808103779004887
1782812433287778800,6.36177880859375,-0.02512099725306034,0.014531195911299437,-0.015985815166402607
1782812433307860700,6.38186083984375,-0.032901568126678465,0.0031283611536026,-0.02297941864710301
1782812433327943700,6.401943603515625,-0.03410159156620502,0.014633322845213114,-0.027482082094904034
1782812433348027000,6.42202685546875,-0.02183130805790424,0.0009207315741106868,-0.00026459661978296933
1782812433368108800,6.44210888671875,-0.01105856963098049,-0.00979877882823348,0.012542049654386937
1782812433388192000,6.46219189453125,-0.025420856982469556,0.00177501031588763,0.02216272283620201
1782812433408274000,6.48227392578125,-0.017636194455623627,0.0021315138696692882,-0.017462737584859132
1782812433428356900,6.50235693359375,-0.01314297468960285,0.004253565791249275,-0.0312485036900267
1782812433448438800,6.522438720703125,-0.025864509096741675,0.0001521218217909336,-0.01651735562668182
1782812433468521700,6.542521728515625,-0.015842296776175498,0.005531129712704569,-0.007455759366042911
1782812433488604000,6.56260400390625,-0.027666005560755727,0.007856047262623905,0.004370744163822382
1782812433508686800,6.582686767578125,-0.016589315751194954,-0.008451528937742113,0.014033694717939943
1782812433528768800,6.602768798828125,-0.02736439226567745,-0.011241159656271338,-0.002636330719804391
1782812433548851700,6.622851806640625,-0.010906009417772292,-0.0023627653422765432,-0.018761134231789038
1782812433568935000,6.642934814453125,-0.03783785548508167,0.0084932857202366,-0.03819831369477324
1782812433589016800,6.663016845703125,-0.024669746354222297,-0.00030161329507827757,-0.014529113552067428
1782812433609099800,6.683099853515625,-0.027666005560755727,-0.0016774499592371284,0.0032498138424940405
1782812433629182000,6.703181884765625,-0.012552607581019401,-0.0025758601036854085,0.01824167693494819
1782812433649265000,6.723264892578125,-0.028719314005970952,-0.013904844173882156,0.01662671601898037
1782812433669346800,6.743346923828125,-0.03246200766563415,0.014431005206145346,-0.011099595761112867
1782812433689429800,6.7634296875,-0.030820670199394225,0.0003696187636815011,-0.034850994294555855
1782812433709511700,6.78351171875,-0.017057517784833907,0.006320763986743986,-0.01884864811846055
1782812433729595000,6.803594970703125,-0.019152444237470624,0.020274160010088235,-0.009101900871563703
1782812433749677800,6.823677734375,-0.02334463523030281,-0.010488679054845124,-0.0021661467916332185
1782812433769760000,6.843760009765625,-0.010626023432612418,-0.0040885296889580786,0.025414774301555008
1782812433789843000,6.863843017578125,-0.018406594306230543,-0.011577953862585127,0.007211447482462972
1782812433809924900,6.8839248046875,-0.018407763350009917,0.011529749072995036,-0.01676884616971947
1782812433830007800,6.9040078125,-0.02439385202229023,0.011387582389637827,-0.01854969257134944
1782812433850089700,6.92408984375,-0.016615034714341163,0.0013338241533376275,-0.025425871084304524
1782812433870172700,6.944172607421875,-0.011382394757866858,-0.010650664683524519,0.00992832349203527
1782812433890254800,6.9642548828125,-0.02904138556718826,0.0026017069309949873,0.014783152245217934
1782812433910338000,6.984338134765625,-0.02006371386349201,-0.0000589636456221342,0.01863000039909966
1782812433930421000,7.0044208984375,-0.02261047573685646,0.004207973083853721,-0.01429050989006646
1782812433950503200,7.024503173828125,-0.014237199667096138,0.00604967369409278,-0.024674778722366317
1782812433970586000,7.044586181640625,-0.03189268334507942,0.0076436648872680955,-0.020091907911514863
1782812433990668000,7.06466796875,-0.014682605347037315,0.007227357437647879,-0.015437104375613853
1782812434010751200,7.084751220703125,-0.018719898039102553,-0.010832377925980836,0.016313741079671307
1782812434030833200,7.104833251953125,-0.02320727258622646,-0.000736515847314149,0.018632795144384727
1782812434050916000,7.124916015625,-0.029940964755415914,0.01318016489483416,-0.004838252077717334
1782812434070999000,7.1449990234375,-0.018871873730421065,0.015976134022604675,-0.02254152955333702
1782812434091081200,7.165081298828125,-0.008550970724225044,-0.00455030198181048,-0.027017295861057937
1782812434111164200,7.1851640625,-0.027706922093033787,0.00856505404850468,-0.025007161615043877
1782812434131246000,7.20524609375,-0.040277649852633476,0.003799246152490377,0.01244678171952255
1782812434151329300,7.225329345703125,-0.017831424766778944,0.00242815872868523,0.015956150680501012
1782812434171411200,7.2454111328125,-0.011845336094498634,-0.0023883381749503314,0.021199704756634307
1782812434191494100,7.265494140625,-0.023367431584000585,0.005832669942546636,-0.007071582354046404
1782812434211576300,7.285576416015625,-0.007656067711114883,-0.002218187506124377,-0.03074790635728277
1782812434231659300,7.3056591796875,-0.024117373168468473,0.012058467388525604,-0.020034798296261577
1782812434251741200,7.3257412109375,-0.013793547552824019,-0.0010532171136699616,-0.008403890403732657
1782812434271824100,7.34582421875,-0.01379179398715496,-0.001119560348149389,0.012409874642081558
1782812434291907000,7.365906982421875,-0.014841010779142379,-0.006168806561734527,0.01055602693632245
1782812434311989000,7.385989013671875,-0.019932196438312528,-0.0027966997801326214,0.009444969555037095
1782812434332072200,7.406072265625,-0.01783726998567581,0.005009480458777397,-0.02369857236766256
1782812434352154400,7.426154296875,-0.004073533049225807,0.012768113495223223,-0.0410693664859049
1782812434372237300,7.4462373046875,-0.02951367925405502,0.009585939795151353,-0.021159792871354145
1782812434392319200,7.4663193359375,-0.026817279776930807,0.002010554371122271,0.007068139154789969
1782812434412402200,7.486402099609375,-0.036546646630764006,-0.0029787052835337814,0.026524644372751933
1782812434432484000,7.506484130859375,-0.018292028015851974,0.004231518356222659,0.0029370398325845597
1782812434452567000,7.526567138671875,-0.03145896810293197,0.001040156702697277,-0.008834071115078404
1782812434472650200,7.546650146484375,-0.020835867279767988,0.013502510450687259,-0.027258402007399124
1782812434492732200,7.566732177734375,-0.027115970462560653,0.024762648802064358,-0.027744221896119414
1782812434512815400,7.5868154296875,-0.008860182803869247,-0.0018370792340487241,0.0022352573719341307
1782812434532897300,7.606897216796875,-0.020530746853351593,0.009489475417044013,0.022615435039764268
1782812434552980200,7.626980224609375,-0.011402853024005889,-0.00024078648593276738,0.003936106473067775
1782812434573062100,7.647062255859375,-0.01633972490429878,0.0003135411948896944,0.0007909585814457386
1782812434593145000,7.66714501953125,-0.026515081959962845,0.00237449231268838,-0.02361571638979949
1782812434613227000,7.68722705078125,-0.017083236747980117,-0.0022968057002872226,-0.028589869806868954
1782812434633310000,7.70731005859375,-0.027259178325533866,0.018056100368127225,-0.014614581612125038
1782812434653393200,7.72739306640625,-0.011398176848888397,-0.009896485315356402,0.010812878641067072
1782812434673475300,7.747475341796875,-0.029957915890216825,0.004610434671211987,0.006361580054322257
1782812434693558300,7.767558349609375,-0.03205868756175041,0.00568613761132583,0.007449073896929621
1782812434713640200,7.78764013671875,-0.02741758375763893,-0.008934234420768915,-0.012791603968665003
1782812434733723100,7.80772314453125,-0.022931378254294393,0.015542473579384385,-0.01888801201446913
1782812434753805000,7.82780517578125,-0.012455576947331428,0.012528167259506881,-0.018358709177048876
1782812434773888000,7.847887939453125,-0.028320085555315015,-0.005045866946410387,-0.017605041265534235
1782812434793970200,7.86797021484375,-0.027573651102185247,0.0071557169735431666,0.0030020404933486134
1782812434814053000,7.88805322265625,-0.02517886492013931,-0.009638729428313671,0.018474727638997136
1782812434834136300,7.90813623046875,-0.03565758883655071,0.012197273071017116,-0.003848473855387419
1782812434854218200,7.92821826171875,-0.020696166548132895,0.01093907143715769,-0.010626078231539576
1782812434874301200,7.94830126953125,-0.006629062750935554,0.0067504606408998365,-0.03772217494985088
1782812434894383000,7.968383056640625,-0.018748539611697194,0.0010455635301768779,-0.024674404263030737
1782812434914465800,7.9884658203125,-0.015607903498411178,0.00039031449183821675,0.006794546377798542
1782812434934548000,8.0085478515625,-0.019646949756145476,0.007690481437370181,0.01278324713227339
1782812434954631000,8.028630859375,-0.029973113459348676,-0.004133757070172578,0.014861688240990042
1782812434974712800,8.048712890625,-0.009171732971072197,0.013609477956499904,-0.00888426693235524
1782812434994796000,8.068796142578124,-0.02592529937326908,0.023920389291644095,-0.023076622810726984
1782812435014879000,8.08887890625,-0.009911737683415413,0.007849544456601142,-0.024024863446271045
1782812435034961000,8.1089609375,-0.03415419853627682,0.0014206621865741908,-0.011672244549915193
1782812435055043800,8.1290439453125,-0.019943302354216576,0.0008505158821120858,0.0011503756115213036
1782812435075126000,8.1491259765625,-0.02353460484445095,0.014143621365819125,0.015566164982225746
1782812435095209000,8.169208984375,-0.025776830813288687,0.007440452199056744,0.010674593548383564
1782812435115291000,8.189290771484375,-0.025924714851379392,0.00692431937046349,-0.019213654639106244
1782812435135373800,8.209373779296875,-0.01994096426665783,-0.0031503537897020575,-0.03522512483657338
1782812435155455700,8.229455810546876,-0.01395779820382595,-0.00590142432982102,-0.013011712992750108
1782812435175539000,8.2495390625,-0.03625613925158977,0.018711550335865468,0.004320603145472705
1782812435195622000,8.269621826171875,-0.027128829944133757,-0.0015823738206177948,0.014381357378140091
1782812435215704000,8.2897041015625,-0.026978023296594617,-0.009108988199476153,-0.004262507149530574
1782812435235787000,8.309787109375,-0.024881927800178526,0.00748626410216093,-0.01080051234983839
1782812435255869000,8.329868896484374,-0.020693243938684464,0.01349118533907458,-0.018969936410570515
1782812435275951900,8.349951904296875,-0.01754851617217064,0.0061028286534361535,-0.023873591007851063
1782812435296033800,8.37003369140625,-0.020095278045535087,-0.005612707048933953,-0.00936827845647931
1782812435316116700,8.39011669921875,-0.0356581733584404,0.007109612809494137,0.012536186169181018
1782812435336199000,8.410198974609376,-0.022495909446477887,-0.005319167462456971,0.0062660015922039744
1782812435356282000,8.4302822265625,-0.01591243940293789,0.002778031612280756,0.004088420091103762
1782812435376365000,8.450364990234375,-0.016662380987405776,-0.004513458836451173,-0.023447721145441754
1782812435396447000,8.470447021484375,-0.013071663019061089,-0.00013133476208895443,-0.035341800885647534
1782812435416530000,8.490530029296876,-0.02878478045761585,0.014301716270670294,-0.023587988132657483
1782812435436611800,8.51061181640625,-0.01621346817612648,0.012163882258068769,0.002693166340421885
1782812435456694800,8.53069482421875,-0.02654430805444717,-0.011760543887875974,0.009032680693408474
1782812435476777000,8.55077685546875,-0.025797873601317405,-0.016799615767318754,0.012672343236859887
1782812435496860000,8.57085986328125,-0.012178513571619986,0.016347214091010392,-0.006092225061031058
1782812435516942000,8.590942138671876,-0.031335049462318416,0.011666983852908014,-0.011044696369254961
1782812435537025000,8.61102490234375,-0.011287117689847945,0.003225702314544469,-0.02545536204027012
1782812435557108000,8.63110791015625,-0.024606617990136144,-0.007352006730623543,-0.01615211164401844
1782812435577190000,8.65118994140625,-0.023708207845687865,0.00010356997232884168,0.006161372173950076
1782812435597272800,8.67127294921875,-0.01308159989118576,0.0021042422702535987,0.007105630754120648
1782812435617354800,8.691354736328124,-0.023850831186771393,-0.002389288023021072,0.0022351751735433935
1782812435637437700,8.711437744140625,-0.021904373294115067,0.007143295883387327,-0.014829950529010965
1782812435657519900,8.731519775390625,-0.026993220865726468,0.011199804732576013,-0.028086897853948176
1782812435677603000,8.75160302734375,-0.019060089778900145,0.0064982577118091285,-0.015665752899181096
1782812435697685000,8.77168505859375,-0.017860650861263275,0.013331172471772878,-0.004229956586798653
1782812435717768000,8.791767822265625,-0.011428571987152098,-0.005489939185790717,0.013883856184780597
1782812435737849900,8.811849853515625,-0.02474924133121967,-0.002128061537258327,0.010666218445682897
1782812435757932800,8.831932861328125,-0.02909282349348068,0.013862375005334614,-0.006719791508000343
1782812435778015700,8.852015625,-0.021758827343583104,0.013355813722684979,-0.032543813330726694
1782812435798098000,8.872097900390624,-0.01667231785953045,-0.006660334672033787,-0.021486248346744105
1782812435818181000,8.89218115234375,-0.026399931147694587,0.009079433311428874,0.0036863603625446554
1782812435838263000,8.912262939453125,-0.03073766809105873,0.010080573177989572,0.019970564820477738
1782812435858346000,8.932345947265626,-0.01173661502301693,-0.004673471703752875,0.015729812845028935
1782812435878428000,8.952427978515624,-0.01622691217958927,0.0013292941086925564,-0.005273867016006261
1782812435898510800,8.9725107421875,-0.024010405662655828,0.013318988843634723,-0.013020024163369089
1782812435918593300,8.99259326171875,-0.008002104669809341,0.019957294346950948,-0.033964475517300884
1782812435938676500,9.012676513671876,-0.021765841606259346,0.006412698320206254,-0.021003734659962355
1782812435958759400,9.032759521484374,-0.02505786888897419,-0.0031329825297929347,0.0025189605509862304
1782812435978841300,9.05284130859375,-0.015478724160790443,-0.0063119048268534235,0.012146940256422385
1782812435998924300,9.07292431640625,-0.021014730978012083,0.011017927093338221,0.01768837216743268
1782812436019006200,9.093006103515625,-0.024755086550116538,0.00035825711945071815,-0.005770025635650381
1782812436039089200,9.113089111328126,-0.014734043273329734,0.006203713478334248,-0.032975437080487606
1782812436059171000,9.133171142578124,-0.0361328051328659,0.006823818138055503,-0.017140282431151718
1782812436079254300,9.153254150390625,-0.009044891721010207,-0.0036061529994942244,-0.010448127848748117
1782812436099336400,9.17333642578125,-0.036276597517728805,-0.0033856238503009077,0.01379109073425643
1782812436119419400,9.19341943359375,-0.005895487779378891,-0.007151132129970938,0.017636504982877523
1782812436139502300,9.21350244140625,-0.032083237481117244,0.008287479216139763,0.0009067395813763141
1782812436159584300,9.233584228515625,-0.026546646142005918,0.00023050255393609404,-0.032212617748137565
1782812436179667200,9.253667236328125,-0.020561141991615295,0.010278031978849321,-0.028251696494221684
1782812436199749000,9.2737490234375,-0.022807459613680837,0.006729637048579752,-0.012395425991620867
1782812436219832000,9.29383203125,-0.013527005571126937,0.0018796214678324758,0.0042974505987484
1782812436239914200,9.313914306640624,-0.012929624199867248,-0.0024359219100326297,0.021197156606521456
1782812436259996400,9.333996337890625,-0.012333996394276618,0.0009530081422068178,0.002544533383660018
1782812436280079400,9.354079345703125,-0.017421674922108648,0.01816036446020007,-0.01437224248992279
1782812436300162300,9.374162353515626,-0.01772095012962818,0.002910462352912873,-0.024915830069780348
1782812436320244200,9.394244140625,-0.024752163940668103,0.008867598925344645,-0.022052074669115244
1782812436340327200,9.4143271484375,-0.023855507361888885,-0.004275485362112522,0.002825423551118001
1782812436360409300,9.434409423828125,-0.025650574085116385,-0.006359452029317617,0.012027104135882108
1782812436380492300,9.4544921875,-0.009642857614159584,0.003298877148609608,0.007776141293672844
1782812436400574200,9.47457421875,-0.019665654456615448,0.006970715795457363,-0.006351022127689793
1782812436420657400,9.494657470703125,-0.025354221487045286,0.0007438589035533368,-0.02920871409126557
1782812436440739300,9.5147392578125,-0.022216507983207703,-0.0023655235549435018,-0.01898329821564257
1782812436460822300,9.534822265625,-0.020271219134330748,0.0006456409597769379,-0.01427633523424156
1782812436480905200,9.5549052734375,-0.028051790007948874,0.0076315360580570995,0.003927448242576793
1782812436500987400,9.5749873046875,-0.020422610303759574,0.005607464618235826,0.013708563549956306
1782812436521070300,9.5950703125,-0.019074118304252624,-0.002072842484991997,0.006452409276086837
1782812436541152300,9.61515234375,-0.02969721912741661,0.016315887370985,-0.02174521894333884
1782812436561235200,9.635235107421876,-0.01577858389019966,0.020123024568986146,-0.02380215147314593
1782812436581317000,9.655317138671874,-0.019065350475907326,0.006947773311287164,-0.01723801631773822
1782812436601400300,9.675400390625,-0.029986557462811467,0.006787632579822093,-0.0028341274473816153
1782812436621483300,9.695483154296875,-0.021754735690355298,-0.004463975405227393,0.019355666058836502
1782812436641565400,9.7155654296875,-0.02101005480289459,0.014203224332258105,0.006497344396356493
1782812436661648400,9.7356484375,-0.013530512702465056,-0.0059592371979728335,-0.014652456803945824
1782812436681731300,9.7557314453125,-0.007694646155834197,0.013942892895638942,-0.03166051855701953
1782812436701813200,9.775813232421875,-0.014278116199374198,0.012862422448862343,-0.02133375206561759
1782812436721896400,9.795896484375,-0.029991233637928962,0.02058138106204569,-0.006528314923355355
1782812436741978400,9.815978271484376,-0.02131342166364193,-0.00870776872113347,0.003641726636374369
1782812436762061300,9.836061279296874,-0.01996960583925247,-0.0012755180948413908,0.0057448363954667
1782812436782143200,9.856143310546875,-0.022963526958227155,-0.001404441704135388,0.001422452284861356
1782812436802226400,9.876226318359375,-0.02325871051251888,0.01222187778931111,-0.026201047574728725
1782812436822309400,9.896309326171876,-0.02490355511009693,0.0004135309706442058,-0.024000103464350102
1782812436842391300,9.916391357421874,-0.017266776621341705,0.004442074100673199,-0.009354313863208516
1782812436862474200,9.93647412109375,-0.015770400583744047,-0.007981482006888837,-0.0011563304282724857
1782812436882556200,9.95655615234375,-0.023401918375492093,0.00491268728710711,0.019703730577835813
1782812436902639400,9.976639404296876,-0.017869418689608573,-0.004561042571533471,0.0081721183413174
1782812436922721300,9.99672119140625,-0.22109014407694338,0.0166875154286623,-0.08034792229859158
1782812436942804200,10.01680419921875,-0.08716974940896034,-0.01014488885216415,-0.03920322555415332
1782812436962886400,10.036886474609375,-0.015347206735610961,0.04007507648523897,-0.008839825002430007
1782812436982969300,10.05696923828125,-0.018329437416791914,0.047798747806157914,-0.0511658587522339
1782812437003052300,10.07705224609375,-0.04286591278016567,-0.03168800935214385,-0.04666082981741056
1782812437023134200,10.09713427734375,-0.04974398185610771,-0.0585352458759211,0.017713625339698044
