time,seconds_elapsed,z,y,x
1782812383706423800,0.062423828125,-0.025630700340867042,-0.0706071938005276,0.06671570278732106
1782812383726506800,0.0825068359375,-0.02129120983183384,-0.03980279888249934,-0.03745851904498413
1782812383746588700,0.102588623046875,-0.03849661165475845,0.06064566215863451,-0.082657103423262
1782812383766672000,0.122671875,-0.03326280265450477,0.06139319259030744,-0.0848471882129088
1782812383786753800,0.14275390625,-0.014113865548372267,-0.025648016801849007,0.0068889649292919785
1782812383806836700,0.162836669921875,-0.026986791124939916,-0.08655064939623698,0.0809176210784819
1782812383826919000,0.1829189453125,-0.019649872365593908,-0.00532483001826331,0.11899663750883191
1782812383847001900,0.203001953125,-0.025638299125432966,0.03902885536793619,0.03502718197852373
1782812383867084300,0.223084228515625,-0.004388005825877189,0.0012559914104640483,-0.07656421164195053
1782812383887167200,0.243167236328125,-0.00933013840317726,-0.02791627226108685,-0.12347612101044506
1782812383907249200,0.263249267578125,-0.023994039049744606,-0.002405910364259034,-0.05598831047262065
1782812383927332000,0.28333203125,-0.029229017093777655,0.04470105578545481,0.07088949047378264
1782812383947414300,0.303414306640625,-0.02189677450954914,-0.02908748973123729,0.11280997562999837
1782812383967497500,0.32349755859375,-0.029828736552596092,-0.06803347085500136,0.06742246281718835
1782812383987579400,0.343579345703125,-0.021148001968860623,-0.019635259318351743,-0.030350422339141366
1782812384007662300,0.363662353515625,-0.026532033094763756,0.07541240212516859,-0.09159775845166296
1782812384027744300,0.383744140625,-0.019497896674275397,0.04457620556307956,-0.07445471780784428
1782812384047827200,0.4038271484375,-0.015154314512014388,-0.05170569211682304,-0.01053722177115269
1782812384067909000,0.4239091796875,-0.021437340304255485,-0.05239307159278542,0.08998865188774652
1782812384087992000,0.443991943359375,-0.007518120545148849,0.007180084229819477,0.11467071886742487
1782812384108074200,0.46407421875,-0.023530513191223144,0.038992907271720466,0.032041042307205496
1782812384128157400,0.484157470703125,-0.020092355436086652,-0.015700312755908816,-0.07431814061505719
1782812384148239400,0.5042392578125,-0.01321136375069618,-0.026828111698199063,-0.10668182987221517
1782812384168322300,0.524322265625,-0.02398468669950962,0.03156188048813492,-0.03249442123104818
1782812384188404200,0.544404296875,-0.013654431343078612,0.03292191679496318,0.07406433938392437
1782812384208487200,0.564487060546875,-0.026976269730925557,-0.052906245279312134,0.100317162811663
1782812384228569300,0.5845693359375,-0.021444354566931723,-0.0724474879049696,0.0533342157672625
1782812384248651300,0.6046513671875,-0.015308628290891647,0.008628018015809357,-0.033234097149828445
1782812384268734200,0.624734130859375,-0.0087228201597929,0.07833207069784402,-0.0809428559844382
1782812384288816000,0.644816162109375,-0.004684942945837974,0.007240162120293826,-0.08382214688095263
1782812384308899000,0.664899169921875,-0.024441198295354842,-0.042057464207801966,0.013581904962984843
1782812384328981200,0.684981201171875,-0.017406477352976797,-0.03191779952002689,0.08561438232627697
1782812384349064400,0.705064453125,-0.015907763227820396,0.011820694843586534,0.1032275338330306
1782812384369146400,0.725146484375,-0.019649287843704222,0.015376688558422029,0.018870074498979372
1782812384389229300,0.745229248046875,-0.02084288154244423,-0.031156350160855797,-0.08369915982210077
1782812384409311200,0.765311279296875,-0.013060557103157042,0.009400555024575442,-0.09176151591232046
1782812384429394200,0.785394287109375,-0.012613397857546806,0.04231717458991333,-0.027747719894303007
1782812384449476400,0.805476318359375,-0.020838789889216423,-0.0021045162648893894,0.0650791054282803
1782812384469559300,0.825559326171875,-0.03550444410145283,-0.05867098281849175,0.09326590172643773
1782812384489641200,0.84564111328125,-0.008722235637903213,-0.06916240181969478,0.05961454727891832
1782812384509724400,0.865724365234375,-0.0362549702078104,0.027625801414530724,-0.02323353953864425
1782812384529806300,0.885806396484375,-0.02787292630970478,0.05585320371771231,-0.08303106956849805
1782812384549889300,0.90588916015625,-0.017095511707663536,-0.00954865825837478,-0.08140357796452008
1782812384569971200,0.92597119140625,-0.0277238732278347,-0.04257609952073544,0.0012841032600961625
1782812384590054400,0.946054443359375,-0.01320844114124775,-0.019403240660764275,0.0918077296742238
1782812384610136300,0.96613623046875,-0.0164957922488451,0.012712510850466787,0.10918035955652594
1782812384630219300,0.98621923828125,-0.011859364619851112,-0.011503135060705244,0.014778183809155597
1782812384650301200,1.00630126953125,-0.02937397852241993,-0.01368979491740465,-0.07067249585539102
1782812384670384000,1.026384033203125,-0.0051291795819997784,0.01902496366659179,-0.08075255757672711
1782812384690466000,1.046466064453125,-0.01350771634876728,0.02908230209946632,-0.02804912312682718
1782812384710549200,1.06654931640625,-0.02981704611480236,-0.006965509897377342,0.05870519561534747
1782812384730631400,1.08663134765625,-0.01530453663766384,-0.072625420021452,0.07925605367496609
1782812384750714400,1.10671435546875,-0.008870704197883605,-0.03406487628500909,0.04427103033773601
1782812384770796300,1.12679638671875,-0.020097031611204148,0.04160082474779338,-0.033592052875179794
1782812384790879200,1.146879150390625,-0.0046843584239482875,0.0318770473845303,-0.09959930599904619
1782812384810961200,1.166961181640625,-0.008279168045520782,-0.015790365659538657,-0.06494480239097028
1782812384831044000,1.187044189453125,-0.02922960161566734,-0.03202414597133174,0.005698485636245459
1782812384851126300,1.207126220703125,-0.02069382846057415,0.0051409978839568795,0.09233398203803225
1782812384871219000,1.227218994140625,-0.011714987713098526,0.006267846489418297,0.09319690074399113
1782812384891300900,1.24730078125,-0.023389058893918988,-0.03337159679122269,0.011457633684854954
1782812384911383000,1.267383056640625,-0.022048165678977966,-0.016736889262031762,-0.08219136734134518
1782812384931466000,1.287466064453125,-0.024586159723997116,0.02080441269557923,-0.08674160539107396
1782812384951548200,1.307548095703125,-0.01919979051053524,0.04048038761680946,-0.009584076631627976
1782812384971631000,1.327631103515625,-0.02174596786201,-0.02701017200052738,0.05577282282472588
1782812384991713000,1.347713134765625,-0.005737082347273826,-0.05585610806085169,0.09940283357887528
1782812385011796000,1.3677958984375,-0.02339607315659523,-0.010048935930710285,0.0569325964522548
1782812385031878000,1.3878779296875,-0.010976152044534683,0.043033524432033295,-0.028117000731267033
1782812385051960800,1.4079609375,-0.01830956367254257,0.01481063390718773,-0.0808159782017581
1782812385072043000,1.42804296875,-0.02684416778385639,-0.02849929631343111,-0.07413619904373772
1782812385092126200,1.448126220703125,-0.019510171633958816,-0.015168854494020343,0.022600584530504418
1782812385112208100,1.4682080078125,-0.020407412734627723,-0.005463179043028503,0.093955327029014
1782812385132291000,1.488291015625,-0.03252630507349968,-0.01182506049145013,0.08337254908308386
1782812385152373000,1.508373046875,-0.015321487772464752,-0.028647874471265822,-0.0007603807800915091
1782812385172456000,1.5284560546875,-0.027145196557044983,0.01346559424009174,-0.0695485881256871
1782812385192538000,1.5485380859375,-0.016821955463290215,0.0566453222097829,-0.0797705060031265
1782812385212621000,1.56862109375,-0.019815292060375213,0.028577494382485746,-0.030571554276533422
1782812385232703000,1.588702880859375,-0.03088789021670818,-0.03682961002429947,0.047552061302401125
1782812385252786000,1.608785888671875,-0.02924363014101982,-0.05114818609822541,0.07689685026295483
1782812385272867800,1.628867919921875,-0.01817103198468685,0.005987349047604948,0.0658212198993191
1782812385292951000,1.648950927734375,-0.02864624876976013,0.027792682414036242,-0.019877790236799045
1782812385313033200,1.669033203125,-0.023263386687636375,0.014322740792389958,-0.09203349212096072
1782812385333116200,1.6891162109375,-0.015480477726459503,-0.02247409947346896,-0.06593473587692715
1782812385353198000,1.709197998046875,-0.007995090407133101,0.011181337494123726,0.029048335897782815
1782812385373280000,1.729280029296875,-0.03582476209700108,0.009418583871610462,0.0981012220615521
1782812385393363000,1.749363037109375,-0.020861586242914197,-0.021739026664569974,0.08180002080304548
1782812385413445000,1.769445068359375,-0.021764088040590285,-0.04110757960444316,-0.005221935899369418
1782812385433528000,1.789528076171875,-0.022958266261219978,0.018803174142073838,-0.0716497525228653
1782812385453610000,1.80960986328125,-0.02385316927433014,0.05093653437523171,-0.08007044793092645
1782812385473693200,1.829693115234375,-0.020110475614666938,-0.0004084346704185009,-0.023343694515386596
1782812385493775000,1.849775146484375,-0.01487842018008232,-0.041513036866486074,0.056962900258973236
1782812385513858000,1.869858154296875,-0.026846505871415138,-0.036982060639653355,0.08241931261201389
1782812385533940000,1.88993994140625,-0.015318565163016318,0.014267814001068472,0.0554740864733234
1782812385554023000,1.91002294921875,-0.02609597976505756,0.008644494226574897,-0.03506784278247505
1782812385574105000,1.93010498046875,-0.01891045217514038,-0.006832823428418487,-0.08783982155709527
1782812385594188000,1.95018798828125,-0.013224223232269286,-0.01169564369181171,-0.06252430637893266
1782812385614270000,1.97027001953125,-0.024142507609724997,0.011510076258145272,0.026993357863044364
1782812385634353000,1.990352783203125,-0.028629882156848904,-0.002776552041247487,0.08495009146495722
1782812385654434800,2.010434814453125,-0.010370587366819381,-0.039414164891093964,0.06705259745833464
1782812385674518000,2.03051806640625,-0.027579496321082114,-0.008820270918589085,-0.006247799215232953
1782812385694600200,2.05060009765625,-0.01410685128569603,0.026745018258318303,-0.07484884082511999
1782812385714683100,2.07068310546875,-0.012608721682429313,0.044852319090720266,-0.07115531093627214
1782812385734765000,2.09076513671875,-0.011114099210500716,-0.0069552624979987735,-0.021243160305870697
1782812385754848000,2.110847900390625,-0.014707155266404152,-0.05431229441864416,0.04815310506862588
1782812385774930000,2.130929931640625,-0.03431085040271282,-0.017521847360953687,0.08663250986025668
1782812385795012900,2.151012939453125,-0.025032734447717666,0.013982275057956576,0.054176493543991816
1782812385815095000,2.171094970703125,-0.01979366475045681,0.008347776302322744,-0.03502387577658519
1782812385835178000,2.191177978515625,-0.027573066580295562,-0.013232388272415846,-0.07802693200511858
1782812385855260200,2.21126025390625,-0.015749357795715332,0.0011310498565435408,-0.05183902703975327
1782812385875332900,2.231332763671875,-0.039244215151667594,0.020841365438792853,0.033769683597562834
1782812385895414800,2.251414794921875,-0.024579729983210563,-0.010321651924867182,0.08567897199508734
1782812385915496700,2.27149658203125,-0.03491407699286937,-0.036113515910506246,0.06973573559508658
1782812385935580000,2.291579833984375,-0.014864976176619528,-0.03518251867070794,0.002507233580574393
1782812385955661800,2.311661865234375,-0.022643793484568596,0.05046676143901423,-0.06430462305760011
1782812385975744800,2.331744873046875,-0.014560440272092818,0.022174221477750687,-0.06759930808828211
1782812385995826700,2.35182666015625,-0.01530453663766384,-0.01737989987330511,-0.013547043712157755
1782812386015909600,2.37190966796875,-0.022485972574353218,-0.027008528032712635,0.05843781338343396
1782812386035991600,2.391991455078125,-0.022038813328742978,-0.00739127929508686,0.07788986162198706
1782812386056074800,2.41207470703125,-0.017249825486540794,0.019347108293045312,0.04152022465909831
1782812386076157000,2.432156982421875,-0.027127076378464697,-0.016730148993991313,-0.044972237409651276
1782812386096239900,2.452239990234375,-0.02099485723376274,-0.012401161612663417,-0.08759222173788585
1782812386116321800,2.47232177734375,-0.027279636591672894,0.02502224958632141,-0.046676429245341565
1782812386136404700,2.49240478515625,-0.031017654076218603,0.011512889269739389,0.02423492600037716
1782812386156486700,2.512486572265625,-0.024587328767776487,-0.03161879830714315,0.06695351186487823
1782812386176569600,2.532569580078125,-0.022943653213977813,-0.036969055027607826,0.05617532094470225
1782812386196651800,2.55265185546875,-0.02309796699285507,-0.0015669022568501531,0.001616047761356458
1782812386216735000,2.57273486328125,-0.009035539370775222,0.040451417250651864,-0.06269845736944116
1782812386236817000,2.59281689453125,-0.010385200414061546,0.012577614158112555,-0.0709700905624777
1782812386256899800,2.61289990234375,-0.025948095726966856,-0.010682484593894332,-0.017612530452245846
1782812386276981800,2.632981689453125,-0.021456629526615142,-0.01837700288556516,0.04907564500733278
1782812386297064700,2.653064697265625,-0.021750644037127495,0.0018665975894778966,0.10033411394646391
1782812386317147000,2.67314697265625,-0.023846155011653897,0.0028862046944908796,0.039887170964013785
1782812386337229800,2.693229736328125,-0.026692192092537877,-0.018745890996884555,-0.0465980119805783
1782812386357311700,2.713311767578125,-0.018016133683919907,-0.006513290884159505,-0.0928914241245482
1782812386377394700,2.733394775390625,-0.013225392276048659,0.020241317186411468,-0.03919423853009939
1782812386397476600,2.7534765625,-0.01935878046452999,0.009874876271747051,0.03348358753202483
1782812386417558800,2.773558837890625,-0.02145370691716671,-0.04833846243973821,0.08290245648645796
1782812386437642000,2.79364208984375,-0.026842998740077017,-0.03710278267618269,0.0571788719640579
1782812386457724000,2.813723876953125,-0.02519406248927116,0.008267094015236943,-0.008251814247714356
1782812386477806800,2.833806884765625,-0.017563129219412804,0.03538744839197024,-0.05303222801284864
1782812386497888800,2.853888671875,-0.025496260306239128,0.005400836130231619,-0.06360791863086633
1782812386517971700,2.8739716796875,-0.027743746972084045,-0.012246391176059841,-0.021447834298806263
1782812386538053600,2.8940537109375,-0.035225627160072326,-0.012495123506430535,0.06503789663505741
1782812386558136600,2.914136474609375,-0.011879822885990142,-0.009926405529584735,0.07911219735802151
1782812386578218800,2.93421875,-0.012930793243646621,-0.01690450091389939,0.039479731807438655
1782812386598301700,2.9543017578125,-0.01218494331240654,-0.01846490036472678,-0.04060750286150724
1782812386618384000,2.9743837890625,-0.023557985720038414,0.010446173353679478,-0.07580537436497398
1782812386638466800,2.994466796875,-0.01607844361960888,0.030030469669774174,-0.035290783084463324
1782812386658548700,3.014548828125,-0.020866846939921378,-0.004770228342805057,0.021542663842253385
1782812386678631700,3.034631591796875,-0.021173136410117147,-0.047061757034808395,0.0669455294878222
1782812386698713900,3.0547138671875,-0.01309679746031761,-0.017774780942406504,0.06767742395894602
1782812386718796800,3.074796875,-0.03270166164040565,0.016109258882980794,-0.0018543043634854255
1782812386738878700,3.094878662109375,-0.016239771661162375,0.029507139915414152,-0.06139539368054829
1782812386758961700,3.114961669921875,-0.019083470654487608,-0.010706614388152956,-0.07762476267870515
1782812386779043600,3.135043701171875,-0.024469255346059798,-0.016833846830483525,-0.006717700015613809
1782812386799126800,3.155126708984375,-0.028061726880073547,-0.006919606662727892,0.06692880668188445
1782812386819209000,3.175208984375,-0.02118015067279339,-0.006440700571984052,0.08285948499441147
1782812386839292000,3.1952919921875,-0.022975801917910574,-0.012774652833864092,0.026173310184432193
1782812386859373800,3.215373779296875,-0.03539806111752987,-0.020033647518791258,-0.039674879920203236
1782812386879457300,3.235457275390625,-0.04018412635028362,0.026744671198446302,-0.0695081830500625
1782812386899539200,3.255539306640625,-0.013251695761084556,0.026386140084359792,-0.035864409120799974
1782812386919622100,3.2756220703125,-0.014750409886240958,-0.016012611841782928,0.029452870711218562
1782812386939704000,3.2957041015625,-0.019686697244644166,-0.036142687206063416,0.06661872695256024
1782812386959786200,3.3157861328125,-0.01609539475440979,-0.013175013795681296,0.06027140375245362
1782812386979869200,3.335869140625,-0.022229951986670493,0.022546196595299987,-0.015637951576802877
1782812386999951000,3.355951171875,-0.03270166164040565,0.016898180770967153,-0.07019617444737813
1782812387020034000,3.376033935546875,-0.006961655706167221,0.0014380334464833139,-0.06086019995845854
1782812387040116000,3.396115966796875,-0.017588263660669325,-0.01441018161382526,-0.001477506940346211
1782812387060199200,3.41619921875,-0.026415713238716124,-0.0008321765078231692,0.06435002396875061
1782812387080281300,3.43628125,-0.0136941788315773,-0.023648769276030362,0.07423456311798654
1782812387100364300,3.4563642578125,-0.023573183289170265,-0.029119108712207523,0.016456939809489993
1782812387120446200,3.4764462890625,-0.025816578301787376,0.002980550180748105,-0.03747786306627095
1782812387140529200,3.496529052734375,-0.02686345700621605,0.030071313136816023,-0.060624546305369585
1782812387160611000,3.516611083984375,-0.016387071177363394,0.010761504646856337,-0.023061416108440605
1782812387180694000,3.536694091796875,-0.007860650372505187,-0.013938435916230082,0.028852548464201388
1782812387200776200,3.556776123046875,-0.028061726880073547,-0.029821320431120693,0.07154934262200258
1782812387220859400,3.576859375,-0.031951720055937764,-0.012952621482964605,0.05441299658045173
1782812387240941300,3.59694140625,-0.033148236364126206,0.02202816407056525,-0.010896711866464466
1782812387261024300,3.617024169921875,-0.015191139391064644,-0.00796166306156665,-0.07348409181055612
1782812387281106200,3.637106201171875,-0.016087795969843863,0.0007548004226759075,-0.0626387904709205
1782812387301189000,3.657189208984375,-0.02356909163594246,-0.011465086338948457,-0.003775116358231753
1782812387321271300,3.677271240234375,-0.014444704937934875,-0.00352139732548967,0.05476358185010031
1782812387341354200,3.697354248046875,-0.012048749712109565,-0.02459531114483252,0.06004196977759711
1782812387361436200,3.717436279296875,-0.018784195446968077,-0.025035711856093257,0.012455650012567638
1782812387381519000,3.73751904296875,-0.01160451307594776,0.007650606084708124,-0.03828441194249317
1782812387401601000,3.75760107421875,-0.018783026403188706,0.03250423937216401,-0.06474745318796485
1782812387421684200,3.777684326171875,-0.024912322938442227,0.006910217779874802,-0.03798345623454079
1782812387441766100,3.79776611328125,-0.018328268373012543,-0.022099822800979017,0.024355173112871123
1782812387461849000,3.81784912109375,-0.025958617120981214,-0.02810383072244003,0.06562354190275073
1782812387481931300,3.83793115234375,-0.026111177334189415,0.005140267231594771,0.0517607102396898
1782812387502014200,3.85801416015625,-0.023269816428422928,0.013401022837590426,-0.011732413771934807
1782812387522096000,3.87809619140625,-0.00710895522236824,0.017451503804791716,-0.06487388344607316
1782812387542179000,3.898178955078125,-0.022821488139033317,0.004945055186748504,-0.06263699123947881
1782812387562261000,3.918260986328125,-0.015187047737836837,0.012981610115431249,0.0024304785499349234
1782812387582344200,3.93834423828125,-0.024164719441533086,-0.016793222559150306,0.05501658849678933
1782812387602426400,3.95842626953125,-0.019528291812539098,-0.021380513816792516,0.06405680404268205
1782812387622508300,3.97850830078125,-0.013398995277285575,-0.016135142242908476,0.014802140073478222
1782812387642591200,3.99859130859375,-0.02477203768491745,0.008885499908216297,-0.044343885511392726
1782812387662673200,4.018673095703125,-0.006814356189966201,0.030085980982985344,-0.060314758836990216
1782812387682756000,4.038756103515625,-0.021622049221396444,-0.002830054060462862,-0.028623050557263194
1782812387702838300,4.05883837890625,-0.032846623069047926,-0.014740984470769762,0.022685139275109394
1782812387722921200,4.078921142578125,-0.012200725403428076,-0.011805533807072787,0.06857110312934965
1782812387743003100,4.099003173828125,-0.019084639698266983,-0.005845693820901215,0.048674270265363154
1782812387763086000,4.119086181640625,-0.024921675288677215,0.0015026596479117869,-0.023040236323093995
1782812387783168000,4.13916796875,-0.01789046147763729,0.0063518897773697965,-0.06496159826214425
1782812387803251200,4.159251220703125,-0.008913958817720412,0.01246874695615843,-0.057728167276736346
1782812387823333400,4.17933349609375,-0.021485271099209783,0.004036708170175552,0.0036302279948256908
1782812387843416300,4.199416259765625,-0.02971767739355564,-0.016697086974605917,0.053080451068747786
1782812387863498200,4.219498291015625,-0.02463525956273079,-0.010285996089596301,0.05817370082084089
1782812387883581400,4.23958154296875,-0.01760287670791149,-0.012129888656921684,0.006610705110337585
1782812387903663400,4.259663330078125,-0.015511457386612892,0.017264146272838114,-0.040222010675258935
1782812387923746300,4.279746337890625,-0.018659692284464836,0.020028514685947445,-0.06317588388915173
1782812387943828200,4.299828125,-0.019409633868932723,-0.004101991958729923,-0.03375686978176236
1782812387963911200,4.3199111328125,-0.0382592957675457,-0.017226024485845117,0.029258033125707877
1782812387983993300,4.339993408203125,-0.03571779459118843,-0.013121730972174554,0.07433272626283578
1782812388004076500,4.36007666015625,-0.024794834038615224,0.0071965056416578585,0.04322685504704714
1782812388024158500,4.380158447265625,-0.026440847679972648,-0.004770995527785271,-0.01530676512736827
1782812388044241400,4.400241455078125,-0.012524550530314444,0.007976422239281236,-0.05264521058979444
1782812388064323300,4.4203232421875,-0.04260053984224796,0.022952530640177427,-0.035478478543134406
1782812388084406300,4.44040625,-0.030026304951310156,0.007462335237301885,0.010942459837486967
1782812388104488400,4.460488525390625,-0.021797990310192108,-0.024026808808185158,0.05473875793609768
1782812388124571400,4.4805712890625,-0.006536123770475387,-0.03120535866804421,0.06623185565997847
1782812388144653300,4.5006533203125,-0.013117840248346328,-0.0006352839625440537,0.013503314168285577
1782812388164736500,4.520736572265625,-0.032416999480128286,0.015666885410342366,-0.05334272786728106
1782812388184818400,4.540818359375,-0.02702887670099735,0.014180080918688326,-0.05574469270878471
1782812388204901400,4.5609013671875,-0.032715105643868446,-0.009411259081680327,-0.0264255131135229
1782812388224983600,4.580983642578125,-0.005178279420733452,-0.020576266495510934,0.02928897625324316
1782812388245066500,4.60106640625,-0.017146365112066266,0.005785944723989815,0.06291619177334941
1782812388265148400,4.6211484375,-0.008915712383389472,0.00784008250851184,0.04430026556537486
1782812388285231400,4.6412314453125,-0.029714754784107206,-0.0038551593245007097,-0.023479358392721042
1782812388305313300,4.661313232421875,-0.0035299276918172836,0.0037093941782601176,-0.06514735749205575
1782812388325396200,4.681396240234375,-0.016097148320078847,0.021597791562974453,-0.03782659430555068
1782812388345478400,4.701478515625,-0.015490414598584175,0.020457389356195926,0.014582241111947223
1782812388365561600,4.7215615234375,-0.026563012754917143,-0.020842607547808437,0.055419954266445706
1782812388385643500,4.7416435546875,-0.012950082466006279,-0.017288312599714844,0.05654233675934374
1782812388405726500,4.7617265625,-0.014150690427422523,0.008204787635058164,-0.0002703961729072034
1782812388425808400,4.781808349609375,-0.02148059492409229,0.004713712382595986,-0.04484314027042128
1782812388445891300,4.801891357421875,-0.016692776125669478,0.017618001211807132,-0.05265385055397637
1782812388465973500,4.821973388671875,-0.00996200656592846,-0.004255465487390756,-0.022392312074685467
1782812388486056400,4.842056396484375,-0.020288754791021345,-0.0017821159101091325,0.03412626934973523
1782812388506138400,4.862138427734375,-0.03390753029882908,-0.003827193605341017,0.05720471879136748
1782812388526221300,4.88222119140625,-0.024784897166490554,-0.0012969079427421091,0.03190378012782894
1782812388546303500,4.902303466796875,-0.028979426246881483,-0.011820694843586534,-0.033051689787628125
1782812388566385400,4.922385498046875,-0.01281622695326805,0.009207370540034026,-0.05921530969510786
1782812388586468400,4.94246826171875,-0.01356090784072876,0.02048387550432235,-0.02994646291444078
1782812388606550500,4.962550537109375,-0.022837270230054853,-0.0013718728750944137,0.010480833675106986
1782812388626633500,4.982633544921875,-0.03346037105321884,-0.025968754922505468,0.053452480985224246
1782812388646715400,5.00271533203125,-0.014755670583248138,-0.021217687937896697,0.05720061800498515
1782812388666798300,5.02279833984375,-0.01684825894832611,0.007096661996375769,0.00612535101249814
1782812388686880300,5.04288037109375,-0.027169746476411818,0.021637849578727036,-0.032288231134461234
1782812388706963200,5.062963134765625,-0.028364509218931196,0.009473875989113003,-0.05411215047035366
1782812388727045400,5.08304541015625,-0.021782208219170568,-0.004497220087703317,-0.01769217155971564
1782812388747128600,5.103128662109375,-0.013549801924824714,-0.004532839390356093,0.0429405397858005
1782812388767210500,5.12321044921875,-0.02626782920062542,-0.012038356182258575,0.06203872395223006
1782812388787293400,5.14329345703125,-0.012500000610947607,-0.006021269583515823,0.024423215114092452
1782812388807375400,5.163375244140625,-0.010255436554551123,0.009059851828124374,-0.030655268770921975
1782812388827458300,5.183458251953125,-0.019383914905786514,0.005060406928416341,-0.05678417355804704
1782812388847540500,5.20354052734375,-0.009803601133823394,0.0060600672239437695,-0.0413051388700027
1782812388867623000,5.223622802734375,-0.02252104388773441,-0.012060458416212349,0.012582080270675942
1782812388887704800,5.243704833984375,-0.020577508604526517,-0.027610220252908765,0.04172574803540483
1782812388907787800,5.263787841796875,-0.019531214421987533,-0.015802183961495755,0.04239885239084251
1782812388927869700,5.28386962890625,-0.022225275811553,0.015887378026917576,0.003209993288759142
1782812388947953000,5.303952880859375,-0.01593991193175316,0.014649342398252337,-0.04599460272733122
1782812388968035000,5.32403515625,-0.019532383465766905,0.006901249022129923,-0.06617247188924812
1782812388988743700,5.34474365234375,-0.02536591192483902,0.011510240654926746,-0.019478844913933424
1782812389008827000,5.364826904296875,-0.002768295669555664,-0.002620923088118434,0.048853809817042196
1782812389028909000,5.384908935546875,-0.031048633736371994,-0.011944376022182405,0.06299112930623814
1782812389048992000,5.404991943359375,-0.030601474490761754,-0.021376805756054818,0.023692955477628855
1782812389069074000,5.425073974609375,-0.02282090361714363,0.004967084355466067,-0.03435319170709699
1782812389089156900,5.445156982421875,-0.020278233397006986,0.015062964700441807,-0.05243064539050683
1782812389109238800,5.46523876953125,-0.027761867150664327,0.013534421692602336,-0.03154036277607083
1782812389129321700,5.48532177734375,-0.016087795969843863,-0.0019058336213231086,0.01516104564690031
1782812389149404000,5.50540380859375,-0.031200024905800816,-0.018418905798532066,0.04006537707513198
1782812389169487000,5.525487060546875,-0.02311667169332504,-0.009999452499486505,0.04264505483740941
1782812389189569000,5.545569091796875,-0.004259411010146141,0.01782382598221302,0.004679992776084691
1782812389209652000,5.56565185546875,-0.011890928801894187,0.00586929389219731,-0.04548280814713798
1782812389229734000,5.58573388671875,-0.025059622454643247,-0.0033653482472524045,-0.0545603143629618
1782812389249816800,5.60581689453125,-0.020716624814271927,0.013437153596896678,-0.020904292873479426
1782812389269899000,5.62589892578125,-0.026548399707674978,0.005686283741798252,0.04488316175355576
1782812389289982000,5.64598193359375,-0.03103869686424732,-0.0017394640784710645,0.05964692431171424
1782812389310063900,5.66606396484375,-0.010838204878568649,-0.029438495125994085,0.022800107424287123
1782812389329519900,5.685519775390625,-0.032384850776195524,0.009687537006102502,-0.024373850413877515
1782812389349602000,5.70560205078125,-0.02789513814151287,0.02522854928076267,-0.054002178156701844
1782812389369685000,5.72568505859375,-0.016821955463290215,0.011249196832254529,-0.03392144922632724
1782812389389767000,5.745766845703125,-0.027447394374012946,-0.01490907104667276,0.003027786855958402
1782812389409849900,5.765849853515625,-0.02385258475244045,-0.023413572280667722,0.04845289173279889
1782812389429931800,5.785931884765625,-0.029537060129642485,-0.00689907533135265,0.033868796590482815
1782812389450014700,5.8060146484375,-0.023553894066810608,0.007368811734952032,0.0031216939507983624
1782812389470097000,5.826096923828125,-0.038220132800936696,0.007727214984875172,-0.037550051519647236
1782812389490179800,5.846179931640625,-0.0069482117027044295,0.01110770600233227,-0.05271705198329873
1782812389510261800,5.86626171875,-0.01428279237449169,0.010312518770340829,-0.012963453404232859
1782812389530345000,5.886344970703125,-0.019666238978505134,0.0009424502155743539,0.04094332895344123
1782812389550427000,5.906427001953125,-0.01876782883405685,-0.01823151173396036,0.03394925968185998
1782812389570509800,5.926509765625,-0.024156536135077476,-0.007422733879275619,0.0188586123900488
1782812389590592000,5.946592041015625,-0.025949849292635916,0.011955938595812766,-0.02809694432392716
1782812389610675000,5.966675048828125,-0.01487140591740608,0.02542187989577651,-0.05182570176729932
1782812389630756900,5.9867568359375,-0.022802783438563345,0.00497729522222653,-0.03458972214302048
1782812389650839800,6.00683984375,-0.029088147318363188,-0.01935708169778809,0.01150276973452419
1782812389670921700,6.026921630859375,-0.01517301921248436,-0.008849971937108785,0.049364791546482586
1782812389691005000,6.0470048828125,-0.02654489257633686,0.000530106555018574,0.048903229316184293
1782812389711087000,6.067087158203125,-0.022655483922362326,-0.0070980502358637745,-0.016531265421025454
1782812389731170000,6.087170166015625,-0.013230652973055838,-0.0017729827555827795,-0.053398412710428236
1782812389751252000,6.107251953125,-0.01831657793521881,-0.002582600371725857,-0.04665964250732213
1782812389771335000,6.1273349609375,-0.02444996612370014,0.004291651045624166,-0.005919042184902355
1782812389791416800,6.147416748046875,-0.028043022179603576,-0.014207571713812648,0.03161401253417134
1782812389811499800,6.167499755859375,-0.021608020696043968,-0.027367954195942727,0.04170603868793696
1782812389831582000,6.18758203125,-0.012034721186757087,-0.00376908847624436,0.023352992066694424
1782812389851665000,6.207664794921875,-0.01936754829287529,0.00025508900592103597,-0.03131957789855078
1782812389871746800,6.227746826171875,-0.015476970595121382,0.0035682869408279654,-0.04905457481984049
1782812389891829800,6.247829833984375,-0.016525602865219115,0.004415788881946355,-0.020082911754306404
1782812389911911700,6.26791162109375,-0.019821721801161766,0.003482088228408247,0.02786245971461758
1782812389931994600,6.28799462890625,-0.019522446593642235,-0.006087210959196091,0.051197906991466875
1782812389952076800,6.308076904296875,-0.02685468917787075,-0.011055628755223005,0.03352494245572015
1782812389972159700,6.32815966796875,-0.01278524729311466,-0.006115432406682521,-0.013674980940762907
1782812389992242000,6.348241943359375,-0.04211421763002872,0.023926745967194435,-0.04498037505033426
1782812390012324900,6.368324951171875,-0.007548515683412552,0.0031897176857106388,-0.04590475075310096
1782812390032406800,6.38840673828125,-0.019370470902323723,-0.0006663914868608117,-0.007464545460697263
1782812390052489700,6.40848974609375,-0.034931612649559976,-0.01201327653992921,0.049791465126490214
1782812390072571600,6.428571533203125,-0.028200843089818954,-0.010741923163551836,0.046683196912845594
1782812390092654600,6.448654541015625,-0.023415946900844573,-0.011529054953251034,0.01846718365335837
1782812390112736800,6.46873681640625,-0.030002339553833007,-0.003991864381451159,-0.03491794945038855
1782812390132819700,6.48881982421875,-0.01683423042297363,0.021496961537003517,-0.041331533686583856
1782812390152901600,6.508901611328125,-0.020576339560747146,0.011397263533435762,-0.021866890827938912
1782812390172984800,6.52898486328125,-0.02536415835916996,-0.005525613287370652,0.019694049434037877
1782812390193066800,6.549066650390625,-0.022224106767773626,-0.0202638212791644,0.052333605623664334
1782812390213149700,6.569149658203125,-0.02925882771015167,-0.012286449191812425,0.031280287067778405
1782812390233232000,6.58923193359375,-0.016838906598091126,0.007587039329204708,-0.002454535278957337
1782812390253314800,6.609314697265625,-0.03180558958351612,0.012362985026743262,-0.03968200378073379
1782812390273396700,6.629396728515625,-0.021781623697280882,-0.005095807035360485,-0.03743353073420003
1782812390293479700,6.649479736328125,-0.015350129345059393,-0.012942775942385196,0.0056760272092651574
1782812390313561600,6.6695615234375,-0.03719838853776455,0.008080777662899344,0.047211887828912585
1782812390333644800,6.689644775390625,-0.020287585747241973,-0.01731987678175792,0.0490163160355296
1782812390353727700,6.709727783203125,-0.006967500925064087,-0.007256766195222735,0.024461400833167134
1782812390373810000,6.729809814453125,-0.021486440142989158,0.00540739373518154,-0.02480191223337315
1782812390393892900,6.749892822265625,-0.021636077746748923,0.016200225102063266,-0.041314491220237684
1782812390413974800,6.769974853515625,-0.0225303962379694,0.005517429980915039,-0.02459761269977316
1782812390434056700,6.790056640625,-0.01400046830177307,-0.0016460501739755272,0.016677934749564156
1782812390454139600,6.8101396484375,-0.02073299142718315,-0.022752806816995142,0.05551383396182209
1782812390474222600,6.83022265625,-0.02552314831316471,0.004363291509728878,0.03602169117489829
1782812390494304800,6.8503046875,-0.009212649503350257,0.00430018141195178,-0.011547449126467107
1782812390514388000,6.870387939453125,-0.0337538010418415,0.005043510592542588,-0.0329885705566965
1782812390534470000,6.890469970703125,-0.020287585747241973,0.002906644694320857,-0.0462277356297709
1782812390554552800,6.910552734375,-0.003821604114770889,-0.005174589626304805,-0.005065905087441206
1782812390574634800,6.930634765625,-0.01205459493100643,0.0005808503615669906,0.037638277792371805
1782812390594717700,6.9507177734375,-0.02581716282367706,-0.010785744038969277,0.03541364227915182
1782812390614799600,6.970799560546875,-0.009957914912700653,-0.004030114032607526,0.020839210014324636
1782812390634882800,6.9908828125,-0.025225042149424552,0.005352923601586372,-0.019471931115956975
1782812390654964700,7.01096484375,-0.011012976923584937,0.027352007708139715,-0.04651930245487019
1782812390675048000,7.0310478515625,-0.023735095852613446,-0.001427530318778008,-0.023351686025597153
1782812390695129900,7.0511298828125,-0.0143085113376379,-0.01980926417838782,0.024793710660608485
1782812390715212800,7.071212890625,-0.03196691762506962,-0.0035963074589148163,0.04913464518557303
1782812390735294700,7.091294677734375,-0.01760287670791149,-0.0034171332334168255,0.02340866777668707
1782812390755377700,7.111377685546875,-0.02149462344944477,0.009164079387579113,-0.018506337486812845
1782812390775459800,7.1314599609375,-0.017300094369053838,-0.003548833321686834,-0.029791071423329412
1782812390795542800,7.151542724609375,-0.02358428920507431,0.013101765896379947,-0.032085867829620834
1782812390815624700,7.171624755859375,-0.02941606409847736,-0.001813369564898312,0.012719260251661762
1782812390835707600,7.191707763671875,-0.018642741149663924,-0.006580529167782515,0.03980062519172206
1782812390855789600,7.21178955078125,-0.018043606212735173,-0.024153759656101465,0.04037929272935725
1782812390875873300,7.231873291015625,-0.014003390911221504,-0.012339932944718747,0.0019319635764230042
1782812390895955200,7.251955078125,-0.016544892087578773,0.012527180878818035,-0.03173361119269393
1782812390916038400,7.272038330078125,-0.019986556974053382,0.005946523846872151,-0.03952819232535548
1782812390936120300,7.292120361328125,-0.0178898769557476,-0.0013841113021597266,-0.020998400897718966
1782812390956203300,7.312203369140625,-0.013248773151636122,-0.008486417588032782,0.03281401770738884
1782812390976285200,7.33228515625,-0.025816578301787376,-0.010912238229159266,0.04397790174321271
1782812390996368100,7.3523681640625,-0.021774609434604644,-0.004114906239230186,0.033311728963302444
1782812391016450000,7.372449951171875,-0.012945990812778472,0.003324577845446765,-0.021319696140801533
1782812391036533200,7.392533203125,-0.01907996352314949,-0.0009008578298613429,-0.04005336697692983
1782812391056615400,7.412615478515625,-0.014593758019804953,0.013574589306209235,-0.043844448089273645
1782812391076698400,7.432698486328125,-0.007855389675498009,0.007517353360168635,0.0012372319110669195
1782812391096780300,7.4527802734375,-0.027305355554819104,-0.014718991834670304,0.040730763914994896
1782812391116863200,7.47286328125,-0.016830138769745824,-0.015056114834547041,0.0358268170567695
1782812391136945200,7.492945068359375,-0.01443184545636177,-0.010895634154230355,0.012308743222011252
1782812391157028000,7.513028076171875,-0.007695230677723884,0.01922801195802167,-0.040181075876671815
1782812391177110300,7.5331103515625,-0.03776946642398834,0.00841019228035584,-0.03493402380235493
1782812391197193500,7.553193359375,-0.023555647632479665,-0.0036039427760988473,-0.02616459715501405
1782812391217275400,7.573275390625,-0.024904139631986618,-0.024158381032291797,0.029113300025928764
1782812391237358300,7.5933583984375,-0.017125906845927238,-0.012090579559840262,0.047483690507616846
1782812391257440300,7.613440185546875,-0.020714286726713178,-0.004254588704556227,0.025222877591801807
1782812391277523200,7.633523193359375,-0.00978898808658123,-0.00013917100867256522,-0.014274837396899238
1782812391297605400,7.65360546875,-0.026100655940175056,0.01098923072181642,-0.050196575328661126
1782812391317688300,7.673688232421875,-0.00874503199160099,0.015316647200565784,-0.03592262384775095
1782812391337770200,7.693770263671875,-0.02056348007917404,-0.009030424804240465,-0.005371856630919501
1782812391357853200,7.713853271484375,-0.028346389040350913,-0.008828015833627433,0.044813612781837577
1782812391377935000,7.73393505859375,-0.015329086557030677,-0.021859145912900564,0.03401627876977436
1782812391398018300,7.754018310546875,-0.023858429971337317,0.0047867410861887035,0.006454308972228318
1782812391418100500,7.7741005859375,-0.011588146463036537,-0.005857183329295366,-0.02310213171131909
1782812391438183400,7.794183349609375,-0.025205168405175206,0.009105042676720767,-0.039107701890962195
1782812391458265300,7.814265380859375,-0.028946693021059035,0.0001485964241437614,-0.012755591940367593
1782812391478348300,7.834348388671875,-0.0319371070086956,-0.005744315805658698,0.042074634538311506
1782812391498430200,7.85443017578125,-0.015476386073231697,-0.001603654070664197,0.04364660569592379
1782812391518513200,7.87451318359375,-0.023403671941161153,-0.017355843144282696,0.021314024451840666
1782812391538595000,7.894594970703125,-0.015326163947582244,0.014307470158021897,-0.011987932036118582
1782812391558678300,7.91467822265625,-0.018163433200120926,0.0071156772240996355,-0.04920899819657206
1782812391578760400,7.934760498046875,-0.024594927552342414,0.01555661170259118,-0.034468031992111355
1782812391598843400,7.954843505859375,-0.022200725892186163,0.0012168467101640998,0.005558227782184258
1782812391618925300,7.97492529296875,-0.016664719074964522,-0.017872925820946694,0.04114258698574267
1782812391639008300,7.99500830078125,-0.021005963149666785,-0.016177063422184435,0.029540759057225658
1782812391659090200,8.015090087890625,-0.022507015362381935,-0.0006534406737424433,0.006651402446907013
1782812391679173000,8.035173095703126,-0.011128127735853194,0.010480203487444668,-0.03789280967586674
1782812391699255300,8.05525537109375,-0.0169575645416975,-0.00031235388480126857,-0.044446761363977565
1782812391719338200,8.075338134765625,-0.0049801265001296995,-0.0006046878948807716,-0.006362338106147945
1782812391739420200,8.095420166015625,-0.01635375342965126,-0.005959365062136203,0.03209612436215393
1782812391759503400,8.11550341796875,-0.020544190856814384,-0.005492076343949884,0.051083349834242835
1782812391779585300,8.135585205078126,-0.021442016479372977,-0.006420735496189445,0.022931031194422392
1782812391799668200,8.155668212890625,-0.018749124133586884,0.005971165097784251,-0.017043945917207745
1782812391819750400,8.17575048828125,-0.008723989203572273,0.007616521152015775,-0.048374392269644885
1782812391839833300,8.195833251953125,-0.026231004321575165,0.013598828698322176,-0.019702068343712017
1782812391859915300,8.215915283203126,-0.03102174572944641,-0.0056109169506467875,0.02394551459974609
1782812391879998200,8.235998291015624,-0.031326866155862804,-0.01664236111268401,0.036519968686392526
1782812391900080000,8.256080078125,-0.01741173804998398,-0.018871618002094328,0.02432901575830765
1782812391920163000,8.2761630859375,-0.017408230918645858,0.009561810000892727,-0.006573039981070905
1782812391940245200,8.296245361328126,-0.02533493226468563,0.014079360490571707,-0.03395655707232654
1782812391960328200,8.316328125,-0.015459434938430786,-0.0027764424433931708,-0.04229789450070821
1782812391980410000,8.33641015625,-0.010666355443000793,0.00023150720093399285,-0.00811672575911507
1782812392000493000,8.3564931640625,-0.0173977095246315,-0.003113839437905699,0.022184176616184412
1782812392020575000,8.376574951171875,-0.026372458618879317,-0.01120977813731879,0.040712707668496294
1782812392040658200,8.396658203125,-0.020983751317858696,-0.01412853339454159,0.009989880953542888
1782812392060740400,8.416740234375,-0.021580548167228698,0.00018808818431571126,-0.017589149576658383
1782812392080823300,8.4368232421875,-0.027115385940670967,0.010748097176011651,-0.03461110285776667
1782812392100905200,8.4569052734375,0.0014689035087823868,0.013059826450794934,-0.027081958595104514
1782812392120988200,8.47698828125,-0.02127250513136387,-0.01077967962436378,0.021746625449135897
1782812392141070000,8.497070068359376,-0.023667291313409805,-0.014812040412984787,0.035248715774714945
1782812392161153000,8.517153076171875,-0.025609657552838325,-0.009842380507942288,0.028905502494145183
1782812392181235200,8.537235107421875,-0.028303718942403792,-0.004921034990344196,-0.012335530764237046
1782812392201318100,8.557318115234375,-0.029801264023780822,-0.005615392196364701,-0.023457621484948322
1782812392221400300,8.577400390625,-0.029652210941910742,0.016598229710012673,-0.036440875568194316
1782812392241483300,8.597483154296874,-0.02321837850213051,0.0027289683061651883,-0.015903415846265853
1782812392261565200,8.617565185546875,-0.018879472514986992,-0.0025077085046097637,0.038760943413060155
1782812392281648000,8.637648193359375,-0.007208908465504646,-0.023759463108889756,0.032211339106503874
1782812392301730000,8.65772998046875,-0.0060083005040884015,-0.004310227881930768,0.021995933168241753
1782812392321813000,8.67781298828125,-0.01528407837152481,0.006662563161738216,-0.029207408050168304
1782812392341895200,8.697895263671874,-0.02455927171707153,0.0076154434397816655,-0.025712396408105267
1782812392361978000,8.71797802734375,-0.02261222930252552,0.013235804072208701,-0.019991406679106875
1782812392382060000,8.73806005859375,-0.028450433936715123,-0.011345953471306711,0.0058086223466787485
1782812392402143200,8.758143310546876,-0.017827917635440824,-0.01127107987049967,0.03700794399958104
1782812392422225200,8.77822509765625,-0.02576104872226715,-0.010037081096135079,0.029538621899066492
1782812392442308000,8.79830810546875,-0.010051438415050505,-0.005347461975179612,-0.0019430786254815756
1782812392462390300,8.818390380859375,-0.031150340545177457,0.004970865481439978,-0.03198894679378718
1782812392482473200,8.83847314453125,-0.01902677203118801,0.004250460518710315,-0.033898388011148195
1782812392502555100,8.85855517578125,-0.013639233773946761,0.0102417733553797,-0.004054682218283414
1782812392522638000,8.87863818359375,-0.021118775874376296,-0.00821826817113906,0.025235855804383752
1782812392542720000,8.898719970703125,-0.017081483182311057,-0.021044852121639996,0.036302106418320906
1782812392562803000,8.918802978515625,-0.018881226080656052,-0.00404357630237937,0.017149579982459542
1782812392582885000,8.938885009765626,-0.015143208596110343,0.014994301644712686,-0.027827406667545435
1782812392602968300,8.95896826171875,-0.031301147192716594,-0.00007364975810050964,-0.04142123039718717
1782812392623050200,8.97905029296875,-0.01049742861688137,-0.0025666173513047394,-0.018455392750864847
1782812392643133200,8.99913330078125,-0.028751462709903714,-0.01337877447316423,0.005404297595797107
1782812392663215000,9.019215087890625,-0.026503976044058797,-0.00763363668359816,0.04410731854285113
1782812392683298000,9.039298095703124,-0.012740823629498481,-0.0073840093040838835,0.024902961455052715
1782812392703380200,9.059380126953124,-0.0166308168053627,0.0019074958554469049,-0.005764627941325306
1782812392723463200,9.079463134765625,-0.023814590829610825,0.0027141360632143914,-0.04067211992978118
1782812392743545000,9.099545166015625,-0.01708265222609043,-0.004991835204232483,-0.04166017198590562
1782812392763628300,9.119628173828126,-0.021421558213233948,-0.005878792372904717,0.0009031228521838784
1782812392783710200,9.139710205078124,-0.020523148068785666,-0.01249583589248359,0.02831603956785984
1782812392803793200,9.159793212890625,-0.035037411111593246,-0.016263207335677,0.02579653102760203
1782812392823875000,9.179875,-0.01528407837152481,-0.001322681704815477,0.0004486662161070853
1782812392843958000,9.1999580078125,-0.008548048114776611,0.0003498546172864735,-0.02947932032672688
1782812392864040200,9.220040283203126,-0.026056232276558875,-0.002176339392084628,-0.036348685506405305
1782812392884123400,9.240123291015625,-0.0018096797704696655,-0.005473645638115704,-0.011104692061338572
1782812392904205300,9.260205322265625,-0.01886778207719326,-0.007888232499174773,0.00906687522395514
1782812392924288300,9.280288330078125,-0.03143558722734451,-0.02514035954065621,0.03780421807696111
1782812392944370200,9.3003701171875,-0.015723638832569123,-0.00018865443989634514,0.029790687830839303
1782812392964453000,9.320453125,-0.021411621341109275,-0.005503163993544876,-0.016758516571950165
1782812392984535300,9.340535400390625,-0.015578677403926848,0.02150616775676608,-0.032088096319325264
1782812393004617200,9.3606171875,-0.014083470410108566,-0.013166611293517053,-0.02509582627918571
1782812393024700200,9.3807001953125,-0.0149795424669981,-0.006126172996405512,0.0022270010002423076
1782812393044782000,9.400781982421876,-0.016176058775186537,-0.0025731384236365555,0.03548667098274454
1782812393064865300,9.420865234375,-0.009740472769737243,-0.016847564828582108,0.03364011153429747
1782812393084947500,9.440947509765625,-0.014532383221387862,-0.006721015350706875,0.0073259407076053315
1782812393105030400,9.461030517578125,-0.024707155755162236,-0.022724731499981134,-0.016503665028046816
1782812393125112300,9.4811123046875,-0.017525135296583175,0.002109996157605201,-0.03517286492637359
1782812393145195300,9.5011953125,-0.00734685563147068,0.010693243449926376,-0.0067190882551018145
1782812393165277200,9.521277099609375,-0.01362578977048397,-0.016154632394667714,0.013402401943923904
1782812393185360100,9.541360107421875,-0.00748889445066452,-0.01309126276867464,0.03302754172706045
1782812393205442300,9.5614423828125,-0.014973697248101233,-0.00777857984593138,0.030737056169705464
1782812393225525500,9.581525390625,-0.015422025537490844,0.005350311519391834,-0.0030347189202439037
1782812393245607400,9.601607421875,-0.028287936851382253,0.010045867190789431,-0.03477523477775976
1782812393265690400,9.6216904296875,-0.0142214175760746,-0.01835406040139496,-0.04346682868222706
1782812393285772300,9.641772216796875,-0.008832125753164291,0.01075876470049843,0.0024280217313673346
1782812393305855200,9.661855224609376,-0.022298341047763823,-0.02159454015996307,0.023848410900821907
1782812393325937200,9.681937255859374,-0.020201076507568357,-0.004977733613643795,0.043913777865283186
1782812393346020000,9.70202001953125,-0.006731938603520393,-0.021842103446554392,0.008471813673945143
1782812393366102300,9.722102294921875,-0.028576690664887428,-0.0012946429204195736,-0.031230054717883465
1782812393386185200,9.742185302734375,-0.013164017477631568,0.03029109336733818,-0.03426661853534169
1782812393406267100,9.76226708984375,-0.028722821137309073,-0.015892675256542862,-0.02655676567722112
1782812393426350300,9.782350341796874,-0.018549802169203756,0.00381837097806856,0.021839116905024273
1782812393446432300,9.802432373046875,-0.0143652099609375,-0.03445857004402205,0.03499319751053117
1782812393466515200,9.82251513671875,-0.025438392639160156,0.007997410228382795,0.040644282074784856
1782812393486597400,9.842597412109376,-0.023196751192212102,0.01556026496440172,-0.0025604068062268196
1782812393506680300,9.862680419921874,-0.017357962036132813,-0.003974675784632563,-0.04388288953667506
1782812393526762200,9.88276220703125,-0.02154781494140625,0.0039543819152750076,-0.04150552941346541
1782812393546845200,9.90284521484375,-0.018705284991860388,-0.011859382886160164,-0.01780135842207819
1782812393566928100,9.92292822265625,-0.01331599316895008,0.009907481633406132,0.042496111353393644
1782812393587010300,9.94301025390625,-0.013764905980229378,-0.033627069389633835,0.042509728886792435
1782812393607093200,9.96309326171875,-0.01706394752562046,-0.014605941647943108,0.00033957068528980014
1782812393627175400,9.983175537109375,-0.02754033335447311,0.005181622155290097,-0.009895298005267977
1782812393647258400,10.00325830078125,-0.0344248321712017,0.013039532581437379,-0.04574852814492769
1782812393667340300,10.02334033203125,-0.025000001221895215,0.02387525324197486,-0.012499142094422131
1782812393687423200,10.04342333984375,-0.021716741767525673,-0.03135835727266967,0.008925375260878353
1782812393707505200,10.063505126953125,-0.021266659912467,-0.012564864274393767,0.039238242068607355
1782812393727588000,10.083588134765625,-0.028751462709903714,-0.0037965792713686823,0.03461167824650183
1782812393747670300,10.103670166015625,-0.013036007183790206,-0.016606741810031234,-0.014833192798867821
1782812393767753500,10.12375341796875,-0.02395546060502529,0.017815642675757408,-0.034554239837685595
1782812393787835400,10.14383544921875,-0.023360417321324347,-0.01706509830309078,-0.0399006241006311
1782812393807918300,10.16391845703125,-0.02575754159092903,0.012965700160246342,0.0003643580666743219
1782812393828000300,10.184000244140625,-0.022770050212740898,-0.012324479647260158,0.04147892453433014
1782812393848083200,10.204083251953126,-0.019479191973805425,-0.026100272347684948,0.03353953723665327
1782812393868165400,10.224165283203124,-0.011398761370778084,0.0026378924892283976,0.005998445830354466
1782812393888248000,10.244248046875,-0.1755576424360275,-0.002780406232457608,-0.09514082875284366
1782812393908330000,10.264330078125,-0.07171440612375736,0.0015491839370690285,-0.058920345336524765
1782812393928413000,10.284412841796875,-0.011110592079162597,0.006150375855900347,-0.0008366791530046611
1782812393948494800,10.304494873046876,-0.008109656697511673,0.031967520413268356,0.017338051759265363
1782812393968577800,10.324577880859374,-0.02576806298494339,-0.01890270726010203,0.01519925876543857
1782812393988660000,10.344659912109375,-0.03594342004060745,-0.05615772135592997,0.017751463998900725
