time,seconds_elapsed,z,y,x
1782812333719626500,0.06462646484375,0.0007583943661302328,0.0011200178414583206,0.0006008264608681202
1782812333739709400,0.08470947265625,-0.0006278144428506494,-0.0008381078951060772,0.0007036733441054821
1782812333759791400,0.104791259765625,0.0007928276900202036,0.0008168336935341358,-0.0005839264485985041
1782812333779874600,0.12487451171875,-0.000025997200282290578,0.0018506827764213085,-0.0000509507954120636
1782812333799956500,0.14495654296875,0.0012969243107363582,0.0010311286896467209,-0.0006213837768882513
1782812333820040000,0.1650400390625,0.0011307246750220656,-0.00011973688378930092,0.0006880373694002628
1782812333840122000,0.1851220703125,-0.0011960994452238083,-0.00004398683086037636,0.0003879204159602523
1782812333860205000,0.205205078125,0.001402402063831687,0.0009131007827818394,-0.0008805417455732822
1782812333880287000,0.225286865234375,0.0000028546637622639537,0.00026484718546271324,0.00006555113941431046
1782812333900370000,0.245369873046875,0.001416043029166758,0.00045218411833047867,-0.0017781772185117006
1782812333920451800,0.265451904296875,0.00017583939188625664,0.0011713732965290546,-0.00011294730938971043
1782812333940535000,0.28553515625,0.000589837203733623,0.0005645193159580231,0.0006134657887741923
1782812333960617000,0.305616943359375,-0.0009662422235123813,-0.0011813761666417122,0.00029643671587109566
1782812333980700000,0.325699951171875,-0.0005557782133109868,-0.00010269274935126305,0.0006592064164578915
1782812334000782000,0.345781982421875,0.0017459556693211198,0.0006325296126306057,-0.0007396098226308823
1782812334020865000,0.365864990234375,-0.0019295134115964174,-0.00024881004355847836,-0.0007748331408947706
1782812334040947000,0.385947021484375,-0.001053414074704051,-0.000017078127712011337,-0.0004340577870607376
1782812334061030000,0.40602978515625,0.00022346156765706837,-0.0012714006006717682,-0.0005205913912504911
1782812334081111800,0.42611181640625,-0.0006506438367068768,0.000406886450946331,0.0003890394000336528
1782812334101194800,0.44619482421875,-0.0007804965134710073,-0.0012977162841707468,-0.0008605970069766045
1782812334121277000,0.46627685546875,-0.0002790961880236864,0.00012126611545681953,0.000807924079708755
1782812334141358800,0.48635888671875,0.0014662612229585648,-0.00005434919148683548,-0.0010132554452866316
1782812334161442000,0.506442138671875,-0.0005781398504041135,-0.0006008071359246969,0.0016729591879993677
1782812334181524000,0.52652392578125,0.0008270267862826586,-0.0007818120066076517,0.0004839103203266859
1782812334201607000,0.54660693359375,0.0012259052600711584,0.0010079890489578247,0.0002115899696946144
1782812334221689000,0.566689208984375,-0.001054130494594574,-0.0009049794171005487,0.0007881679339334369
1782812334241772000,0.58677197265625,-0.0002009662421187386,-0.0011515645310282707,-0.000681703444570303
1782812334261854000,0.60685400390625,-0.001160819549113512,-0.000020691193640232086,0.0001781000755727291
1782812334281937000,0.62693701171875,0.0006002989248372614,-0.00006152363494038582,0.0018855376401916146
1782812334302018800,0.647018798828125,0.0014990931376814842,0.0014867470599710941,0.0007583514088764787
1782812334322102000,0.66710205078125,0.00018088615615852177,-0.0002456966321915388,-0.000009207986295223236
1782812334342184200,0.68718408203125,-0.0006587793468497694,-0.00002357643097639084,0.0009523455519229174
1782812334362267100,0.70726708984375,-0.0009103882475756109,0.00011666864156723022,-0.000041730236262083054
1782812334382349000,0.72734912109375,-0.00019333112868480384,0.0006611314602196217,-0.0008635269477963448
1782812334402432000,0.747431884765625,-0.00040934953722171485,-0.00014213798567652702,0.00039407459553331137
1782812334422514000,0.767513916015625,0.00033942903974093497,0.0012109135277569294,-0.00007277191616594791
1782812334442596900,0.787596923828125,-0.0010810177773237228,-0.0001269681379199028,-0.0010055003222078085
1782812334462678800,0.8076787109375,-0.0004991207970306277,0.0013313381932675838,-0.0003990945406258106
1782812334482762000,0.827761962890625,0.0010727287735790014,-0.000014625489711761475,-0.00093436473980546
1782812334502844000,0.847843994140625,-0.000055667958804406226,0.0004513375461101532,0.0005951618077233434
1782812334522927000,0.867927001953125,0.00020239708828739822,0.00047675473615527153,0.0016318351263180375
1782812334543009000,0.888009033203125,0.0010207148734480143,0.00023358594626188278,0.0002969461493194103
1782812334563092000,0.908092041015625,0.00029171284404583275,0.000020398758351802826,0.00004010647535324097
1782812334583174000,0.928173828125,0.00056750129442662,0.0004087849520146847,-0.0007010814733803272
1782812334603256800,0.9482568359375,-0.0004437341704033315,-0.00027642305940389633,0.0005476572550833225
1782812334623339000,0.968339111328125,-0.0007104102987796068,-0.00016472814604640007,0.0003105178475379944
1782812334643422000,0.988421875,0.00003483585896901786,-0.0005037661176174879,-0.0012338787782937288
1782812334663504000,1.00850390625,-0.0011558335972949862,-0.0008045870345085859,0.00040338991675525904
1782812334683587000,1.028587158203125,0.00044509483268484473,-0.00004742015153169632,0.0013691149652004242
1782812334703669000,1.0486689453125,-0.0006312897894531488,-0.0008423596154898405,0.0000678312499076128
1782812334723752000,1.068751953125,-0.0002949324843939394,0.0007276763208210468,0.0010437906021252275
1782812334743834000,1.088834228515625,0.0007037899340502918,-0.0012867480982095003,0.0012972223339602351
1782812334763917000,1.1089169921875,0.000547460513189435,0.0005815224722027779,0.00042280310299247503
1782812334783999000,1.1289990234375,0.0009114819695241749,-0.0004127523861825466,0.0004638577811419964
1782812334804082000,1.14908203125,-0.000853901554364711,0.0005811350420117378,-0.0006464840844273567
1782812334824163600,1.16916357421875,0.0011753530707210302,-0.00046324427239596844,0.001056075794622302
1782812334844246500,1.18924658203125,0.0006251443992368877,-0.00021120160818099976,-0.000944383442401886
1782812334864328700,1.20932861328125,0.00042548670899122953,0.00005983607843518257,0.0006229027640074492
1782812334884411600,1.22941162109375,-0.000045620923629030585,0.000426251906901598,-0.0005066427402198315
1782812334904493600,1.24949365234375,-0.00009684811811894178,0.0011947746388614178,0.00025872839614748955
1782812334924576800,1.26957666015625,0.00047092122258618474,0.0006723194383084774,-0.0004401917103677988
1782812334944658700,1.28965869140625,-0.0008295158622786403,0.001119640190154314,0.0008951904019340873
1782812334964741600,1.30974169921875,0.00021310365991666913,-0.0008476118091493845,0.00010790536180138588
1782812334984823800,1.32982373046875,0.00036478249239735305,-0.00032346276566386223,0.0004983480321243405
1782812335004906800,1.34990673828125,-0.0012583599891513586,0.00037245824933052063,0.000025602523237466812
1782812335024988700,1.36998876953125,0.00027519665309228003,0.0006100996397435665,0.0008856540080159903
1782812335045071600,1.390071533203125,-0.0004917667247354984,-0.0005346068646758795,0.0004738189745694399
1782812335065153500,1.410153564453125,0.0012682417873293161,-0.000729139894247055,-0.000057661207392811775
1782812335085236700,1.43023681640625,0.0006246239645406604,0.001621054019778967,-0.00007930630818009377
1782812335105319000,1.45031884765625,0.0012475814437493682,0.0002938336692750454,-0.0009947102516889572
1782812335125401900,1.47040185546875,0.0008820726070553064,-0.0005044175777584314,0.000020398758351802826
1782812335145483800,1.49048388671875,-0.000799626053776592,-0.0005565728060901165,0.0018306155689060688
1782812335165566700,1.510566650390625,-0.00045408791629597545,0.00045577995479106903,0.00040869833901524544
1782812335185648600,1.530648681640625,0.0008346718968823552,-0.000688664149492979,-0.0011597236152738333
1782812335205731600,1.550731689453125,0.0003801171260420233,0.001115748193114996,0.0013886138331145048
1782812335225813500,1.5708134765625,-0.0004364304186310619,0.0013848929665982723,0.0008798985509201884
1782812335245896700,1.590896728515625,0.0010133292526006699,-0.0005974206142127514,0.0000444105826318264
1782812335265978600,1.610978515625,0.001329721650108695,-0.0002683845814317465,-0.0003568388056010008
1782812335286061800,1.631061767578125,-0.0008884915732778609,0.0006432449445128441,0.00009605218656361103
1782812335306143700,1.651143798828125,-0.0007235470693558455,0.00016684690490365028,-0.00015530642122030258
1782812335326226700,1.671226806640625,0.000018340360838919878,0.000643651932477951,0.000023814383894205093
1782812335346308600,1.69130859375,-0.001618872513063252,-0.0003618290647864342,-0.0005467061419039965
1782812335366391600,1.7113916015625,0.0003445932816248387,-0.0006124447099864483,-0.0005795799661427736
1782812335386473700,1.7314736328125,-0.0024561164900660515,-0.0006315701175481081,-0.000052020419389009476
1782812335406556700,1.751556640625,0.0020486735738813877,-0.00001357588917016983,-0.0004846462979912758
1782812335426638600,1.771638671875,-0.00020511841285042465,0.00016152439638972282,0.0014231004752218723
1782812335446721800,1.7917216796875,0.00018649868434295058,0.0015564863570034504,-0.0010843651834875345
1782812335466803700,1.8118037109375,0.00035263504832983017,0.000885943416506052,-0.0011914034839719534
1782812335486886700,1.83188671875,-0.0023997765965759754,0.0003733215853571892,0.0001578894443809986
1782812335506968800,1.85196875,0.0007498236373066902,0.0011557885445654392,-0.0008264405187219381
1782812335527051800,1.8720517578125,-0.0003505504864733666,-0.0002311323769390583,0.0008964214939624071
1782812335547133700,1.8921337890625,0.00016692443750798702,-0.0003763744607567787,0.0008441954851150513
1782812335567216600,1.912216552734375,0.0012497380375862122,-0.0003194226883351803,-0.000995695125311613
1782812335587298600,1.932298583984375,-0.000004106463165953755,0.0007360214367508888,0.0003184233792126179
1782812335607381500,1.952381591796875,0.00006516758003272116,0.0001937136985361576,-0.001255969749763608
1782812335627463700,1.972463623046875,0.0003917209105566144,0.00018936162814497948,0.00031622685492038727
1782812335647547000,1.992546875,0.0006917687715031207,0.0011522741988301277,0.00004079006612300873
1782812335667628800,2.01262890625,-0.0014923783019185066,-0.00025162799283862114,0.0008217667927965522
1782812335687710700,2.032710693359375,-0.00030720431823283434,-0.0008171787485480309,-0.000023558037355542183
1782812335707793700,2.052793701171875,0.0004185690777376294,0.0008509308099746704,-0.0004937655758112669
1782812335727875600,2.07287548828125,0.0009370055049657822,0.0009321141988039017,0.00000848737545311451
1782812335747958800,2.092958740234375,0.0016563433455303311,0.0005947984755039215,-0.00048625655472278595
1782812335768040700,2.113040771484375,-0.0010859272442758083,0.0006857900880277157,0.0007323187310248613
1782812335788123600,2.13312353515625,0.0014101744163781404,-0.0010892136488109827,0.00025327480398118496
1782812335808205600,2.15320556640625,-0.0009775280486792326,-0.0014622488524764776,0.00027966592460870743
1782812335828288800,2.173288818359375,0.0011635752161964774,0.0017319023609161377,0.0005820391234010458
1782812335848370700,2.19337060546875,0.0007655903464183211,0.0013376162387430668,0.0003688564756885171
1782812335868453600,2.21345361328125,-0.00005428960139397532,-0.00009968271479010582,0.00044059136416763067
1782812335888535800,2.233535888671875,-0.0005833805189467967,0.0005668508820235729,0.00019473093561828136
1782812335908618800,2.25361865234375,0.00048018532106652856,0.0012242356315255165,-0.0005679901223629713
1782812335928700700,2.27370068359375,-0.00045546068577095866,-0.0001691100187599659,-0.0008837447967380285
1782812335948783900,2.293783935546875,-0.0007849124958738685,0.0009760484099388123,-0.00009616464376449585
1782812335968865800,2.31386572265625,-0.0005902163102291524,0.00012484751641750336,0.00008783233352005482
1782812335988948700,2.33394873046875,0.0009797763777896762,-0.0008350717835128307,-0.0008193938992917538
1782812336009031000,2.354031005859375,-0.0013660596450790763,0.0013412991538643837,-0.0007471749559044838
1782812336029113900,2.37411376953125,0.0002134557580575347,0.0009201010689139366,0.0005162837915122509
1782812336049195800,2.39419580078125,-0.0013135340996086597,0.0005974513478577137,-0.00027648312970995903
1782812336069278700,2.41427880859375,0.0003233137249480933,-0.0006643899250775576,-0.00015151221305131912
1782812336089360600,2.434360595703125,0.0002855244092643261,-0.0004886938259005547,0.0008595760446041822
1782812336109443800,2.45444384765625,-0.0004277692933101207,-0.000040129292756319046,-0.0005405619740486145
1782812336129526000,2.474526123046875,0.0007820444880053401,0.0002270233817398548,-0.0005348655395209789
1782812336149609000,2.49460888671875,-0.00153316929936409,0.0007362132892012596,0.0007844665087759495
1782812336169691000,2.51469091796875,-0.0012547567021101713,0.0022942302748560905,0.0003735715290531516
1782812336189773800,2.53477392578125,0.0007249186164699495,-0.00025517726317048073,0.0004648298490792513
1782812336209855700,2.554855712890625,-0.0009054891997948289,-0.0008822185918688774,0.0007479744963347912
1782812336229938700,2.574938720703125,0.0019387209322303534,0.00009757839143276215,-0.0005912701599299908
1782812336250020900,2.595020751953125,-0.0006181662902235985,0.0011800960637629032,0.0007055376190692186
1782812336270103800,2.615103759765625,0.0007628323510289192,0.0005509601905941963,0.0012663023080676794
1782812336290185700,2.635185791015625,-0.0006188050610944629,0.0010367752984166145,0.00007988675497472286
1782812336310269000,2.65526904296875,-0.0008029557066038251,0.0012196511961519718,-0.00006752647459506989
1782812336330350800,2.675350830078125,0.00023725151550024748,-0.000126558355987072,0.00011977413669228554
1782812336350433800,2.695433837890625,-0.0007488139672204852,-0.002611000556498766,0.00046714383643120527
1782812336370515700,2.715515625,0.000058259087381884456,0.0013825763016939163,0.00045678182505071163
1782812336390598700,2.7355986328125,0.00031690727337263525,0.00022778473794460297,0.0011303573846817017
1782812336410680800,2.755680908203125,-0.00024687283439561725,0.000031385570764541626,-0.0020632927771657705
1782812336430763800,2.775763671875,0.00003152232966385782,-0.00041180336847901344,0.00011194543913006783
1782812336450845700,2.795845703125,-0.001247089239768684,-0.0012160521000623703,-0.0012663756497204304
1782812336470929000,2.815928955078125,0.0012284136610105634,0.00008074473589658737,-0.0007130242884159088
1782812336491010800,2.8360107421875,0.000022244348656386137,0.0005533392541110516,-0.00025507831014692783
1782812336511093800,2.85609375,0.0009326308500021696,0.00014230003580451012,0.0006080215098336339
1782812336531176000,2.876176025390625,0.0005707044037990272,-0.000057915691286325455,0.00009392411448061466
1782812336551259000,2.8962587890625,-0.0011369214626029134,0.001085937488824129,0.000894667231477797
1782812336571340800,2.9163408203125,-0.00011199958680663258,-0.0008793328888714314,-0.00047862459905445576
1782812336591423700,2.936423828125,-0.0011405033292248845,-0.0004481531213968992,-0.00012960191816091537
1782812336611505700,2.956505615234375,-0.0001736568519845605,0.0012873811647295952,-0.0003864215686917305
1782812336631588600,2.976588623046875,0.0009894351242110133,-0.0004110697191208601,0.0003547848900780082
1782812336651670800,2.9966708984375,-0.002126158680766821,-0.00014402484521269798,-0.0004568931180983782
1782812336671754000,3.01675390625,-0.0018691961886361241,0.00020458921790122986,0.00044726161286234856
1782812336691836000,3.0368359375,-0.001861118944361806,-0.0006020767614245415,-0.001313402084633708
1782812336711918800,3.0569189453125,0.0005400709342211485,0.001597798429429531,0.00024115038104355335
1782812336732000800,3.077000732421875,0.0017465429846197367,0.0003175586462020874,0.0008200317388400435
1782812336752083700,3.097083740234375,-0.0002848884032573551,-0.0005516824312508106,0.00010615680366754532
1782812336772166000,3.117165771484375,-0.0013907457469031215,0.0003089546225965023,0.0018018280388787389
1782812336792248800,3.137248779296875,-0.0013708907645195723,0.00003159930929541588,0.000501915579661727
1782812336812330800,3.157330810546875,-0.00006335752550512552,-0.0002077980898320675,-0.0012682841625064611
1782812336832414200,3.177414306640625,-0.00004803894262295216,-0.0005189706571400166,-0.0008508223108947277
1782812336852496100,3.19749609375,0.00029436586191877723,0.0006779995746910572,0.0006650652503594756
1782812336872579000,3.2175791015625,0.0005422686226665974,-0.0002472375053912401,0.0006455164402723312
1782812336892661000,3.237660888671875,-0.0009963830234482884,0.0011031576432287693,-0.00023990822955965996
1782812336912744000,3.257743896484375,-0.00016342810704372823,-0.00038657430559396744,-0.0006641699001193047
1782812336932826000,3.277826171875,-0.0002520591951906681,0.0007777446880936623,-0.00040669459849596024
1782812336952909000,3.297908935546875,0.0013744751922786236,0.0014165807515382767,0.0006281615933403373
1782812336972991000,3.317990966796875,0.0014713482232764363,0.0008508986793458462,-0.0012813019566237926
1782812336993074000,3.338073974609375,-0.0013660978293046355,-0.0002515984233468771,0.0010526417754590511
1782812337013155800,3.35815576171875,-0.00028832233510911465,0.0004950952716171741,-0.0009766060393303633
1782812337033239000,3.378239013671875,0.000313432770781219,0.0007634391076862812,-0.0005420222878456116
1782812337053321200,3.3983212890625,0.0011959675466641784,0.0011682473123073578,0.0005997595144435763
1782812337073404200,3.418404052734375,-0.0006608262192457914,-0.00042713177390396595,-0.0008176984265446663
1782812337093486000,3.438486083984375,0.00013959239004179835,-0.0005988490302115679,-0.00012301746755838394
1782812337113569000,3.458569091796875,0.00005201353633310646,0.0008628591895103455,0.00009575881995260715
1782812337133651000,3.47865087890625,0.0007414658321067691,-0.00018299976363778114,0.00023260409943759441
1782812337153734000,3.49873388671875,-0.0008079007966443896,0.0016177007928490639,-0.0006460838485509157
1782812337173816000,3.518816162109375,0.0005258377059362829,0.001589752733707428,-0.0004097907803952694
1782812337193899300,3.538899169921875,-0.00015853895456530154,0.00014955224469304085,-0.0009992143604904413
1782812337213981200,3.558981201171875,-0.0005413465551100671,-0.0004799775779247284,0.00000849156640470028
1782812337234064100,3.579064208984375,0.000791681173723191,-0.00012199254706501961,0.0003850107314065099
1782812337254146000,3.59914599609375,0.0007807384827174246,0.0008186590857803822,-0.0005055363290011883
1782812337274229000,3.61922900390625,-0.001255355542525649,-0.0011157856788486242,-0.000435009365901351
1782812337294311200,3.639311279296875,0.0007558017387054861,0.0009438865818083286,-0.00031681638211011887
1782812337314394000,3.65939404296875,0.0017090062610805035,-0.0005607365164905787,-0.0006420740392059088
1782812337334476000,3.67947607421875,0.0006904072361066937,-0.001438238425180316,0.0007388964295387268
1782812337354559000,3.69955908203125,-0.0008147647604346275,0.00022857263684272766,-0.000094651710242033
1782812337374641000,3.719640869140625,-0.0005770972347818315,-0.0004757586866617203,0.0004999483935534954
1782812337394724000,3.73972412109375,0.0005358725902624428,0.001577543094754219,0.0007916463073343039
1782812337414806000,3.759805908203125,-0.00115093810018152,-0.0006430062931030989,0.000756455585360527
1782812337434889000,3.779888916015625,0.0011653201654553413,-0.001646470744162798,0.0006967152003198862
1782812337454971100,3.79997119140625,0.0006454435642808676,-0.000010021962225437164,0.0007402016781270504
1782812337475054000,3.82005419921875,-0.0012966138310730457,-0.0003885922487825155,-0.000154946930706501
1782812337495136000,3.840135986328125,0.0009641081560403109,0.0005294391885399818,-0.0006257544737309217
1782812337515219000,3.860218994140625,-0.00023593343212269247,-0.001299859257414937,-0.001049612881615758
1782812337535300900,3.88030078125,-0.00011047675798181444,-0.00027887686155736446,-0.0013621414545923471
1782812337555384000,3.900384033203125,0.000561137159820646,-0.0018553673289716244,0.0007935537723824382
1782812337575466200,3.92046630859375,0.0010831013787537813,0.00008941721171140671,-0.0001343174371868372
1782812337595549200,3.940549072265625,0.0010312210069969296,0.0007590283639729023,0.0008018933003768325
1782812337615631000,3.960631103515625,-0.0016416024882346392,-0.00009165843948721886,0.000976834329776466
1782812337635714000,3.980714111328125,0.0019748208578675985,0.00009511969983577728,0.0010522908996790648
1782812337655796000,4.0007958984375,-0.00043247989378869534,0.0012964056804776192,-0.00022970372810959816
1782812337675879000,4.02087890625,0.0006082038162276149,0.0016283025033771992,0.0015509750228375196
1782812337695961000,4.040961181640625,-0.000515032559633255,0.0008260468021035194,-0.0017356791067868471
1782812337716044000,4.0610439453125,-0.0008103071013465524,-0.0003304567653685808,0.0004576704232022166
1782812337736126000,4.0811259765625,0.0003997681778855622,-0.0006311133038252592,-0.0009595993906259537
1782812337756209200,4.101209228515625,-0.0011326357489451766,-0.0010931165888905525,-0.000016638310626149178
1782812337776291000,4.121291015625,0.000973059213720262,0.0009318259544670582,-0.0004563296679407358
1782812337796374000,4.1413740234375,-0.00043966181692667305,0.00011210376396775246,-0.0007290402427315712
1782812337816456200,4.161456298828125,0.0008948257309384644,0.00001819012686610222,-0.0002557826228439808
1782812337836538600,4.18153857421875,0.0013326358748599887,-0.00009926920756697655,-0.0015489247161895037
1782812337856620500,4.20162060546875,0.0014848931459710002,-0.00025729951448738575,-0.0015402932185679674
1782812337876703500,4.221703369140625,0.0009161602356471121,0.0014676917344331741,0.00016314582899212837
1782812337896785400,4.241785400390625,-0.0015686419792473316,-0.0005871092434972525,-0.00039298529736697674
1782812337916868400,4.261868408203125,0.0014632055535912514,-0.0005779974162578583,0.0006878022104501724
1782812337936950500,4.281950439453125,-0.0010516118491068482,-0.002015072386711836,-0.0005910436157137156
1782812337957033500,4.302033447265625,0.00021437084069475532,-0.0009826214518398046,0.0007080816430971026
1782812337977115400,4.322115478515625,-0.0004490512073971331,-0.000015729106962680817,-0.0015324719715863466
1782812337997198600,4.342198486328125,0.00046912941616028547,0.00037582917138934135,-0.0003248106222599745
1782812338017280500,4.362280517578125,-0.001904976088553667,0.0002487087622284889,0.0000826413743197918
1782812338037363500,4.382363525390625,-0.00044834375148639083,0.0010216813534498215,0.00011535431258380413
1782812338057445600,4.402445556640625,0.0008080750703811646,0.0006461828015744686,0.0009999243775382638
1782812338077528600,4.422528564453125,0.00022440915927290916,-0.00045048678293824196,0.001777629368007183
1782812338097610500,4.442610595703125,-0.0005611187079921365,0.0007888711988925934,0.000014475081115961075
1782812338117693400,4.462693359375,0.00046315148938447237,0.0006498354487121105,-0.00000943266786634922
1782812338137775400,4.482775390625,0.0006548023666255176,-0.0005758064799010754,-0.0005962413270026445
1782812338157858300,4.5028583984375,0.0002260470064356923,-0.0005891099572181702,0.00010362663306295872
1782812338177940500,4.5229404296875,-0.00020654748368542641,-0.00012653972953557968,-0.00024382653646171093
1782812338198023700,4.543023681640625,0.00018069613724946976,-0.00017371727153658867,0.0007261580321937799
1782812338218105600,4.563105712890625,0.0008203813340514898,-0.00011374242603778839,0.0004737365525215864
1782812338238188500,4.5831884765625,0.00016975411563180387,0.0008160369470715523,0.0003764335997402668
1782812338258270500,4.6032705078125,0.0008987935725599527,-0.00016207247972488403,0.00037607038393616676
1782812338278353400,4.623353515625,0.0009275571210309863,-0.000339314341545105,0.000280383275821805
1782812338298435300,4.643435302734375,0.0022546134423464537,0.00019835215061903,0.0013074538437649608
1782812338318518500,4.6635185546875,-0.0000012851669453084469,0.000544779933989048,0.0006953354459255934
1782812338338600400,4.683600341796875,0.0011725036893039942,0.0009765969589352608,0.0008479671087116003
1782812338358683400,4.703683349609375,0.0016623390838503838,-0.0007134431507438421,-0.0014189558569341898
1782812338378765600,4.723765625,-0.0003493547555990517,-0.00005444791167974472,0.0001397472806274891
1782812338398848500,4.7438486328125,-0.0009767741430550814,-0.000270097516477108,-0.0005798693746328354
1782812338418930400,4.763930419921875,-0.000249065225943923,-0.00023084692656993866,-0.0011505961883813143
1782812338439013400,4.784013427734375,0.00005376874469220638,0.0005559404380619526,0.0011479168897494674
1782812338459095600,4.804095458984375,-0.0008846287382766604,-0.0004160297103226185,0.000999439274892211
1782812338479178500,4.824178466796875,-0.00019753881497308612,-0.0007519577629864216,0.0003729746676981449
1782812338499260400,4.844260498046875,0.0006592657882720232,-0.0004272253718227148,-0.0008776297327131033
1782812338519343400,4.86434326171875,-0.0007216166704893112,-0.0017519264947623014,-0.0006513951811939478
1782812338539425300,4.88442529296875,-0.00033796075149439275,0.00041656382381916046,-0.00031627900898456573
1782812338559508500,4.904508544921875,-0.00086675223428756,0.0004295757971704006,0.00016429834067821503
1782812338579590700,4.924590576171875,-0.0005115213571116328,-0.0002587568014860153,0.0008752531139180064
1782812338599673600,4.944673583984375,-0.00149174511898309,0.00019008899107575417,-0.00015764357522130013
1782812338619755500,4.964755615234375,-0.00006181368371471763,-0.0004981844685971737,-0.0000041548628360033035
1782812338639838500,4.98483837890625,0.0010071422439068556,-0.000439775874838233,-0.001636300003156066
1782812338659920400,5.00492041015625,-0.0005694967112503946,-0.001148660434409976,0.0001469703856855631
1782812338680003300,5.02500341796875,-0.0005718439351767302,-0.0004944915417581797,0.00001793983392417431
1782812338700085500,5.04508544921875,0.0023624985478818417,-0.00036792480386793613,0.0007108150748535991
1782812338720168400,5.06516845703125,0.0007137391366995871,0.0003144955262541771,-0.0010246473830193281
1782812338740250400,5.08525048828125,0.0010149074951186776,0.000877882819622755,-0.0005615111440420151
1782812338760333600,5.10533349609375,-0.00020006335398647934,0.0002418234944343567,-0.0005553434602916241
1782812338780415500,5.12541552734375,0.0002684925857465714,0.00009073084220290184,-0.0005526954773813486
1782812338800498400,5.14549853515625,0.0002040992258116603,-0.0003924190532416105,-0.00022513465955853462
1782812338820580900,5.165580810546875,-0.0014818257186561823,0.0012331325560808182,0.0002728139515966177
1782812338840663800,5.185663818359375,0.00047256582183763385,-0.0005708103999495506,0.0004668633919209242
1782812338860746000,5.20574609375,0.0003886306076310575,-0.0008542940486222506,-0.0008232849650084972
1782812338880829000,5.225828857421875,-0.0009607549873180687,-0.0011592339724302292,-0.0003369576297700405
1782812338900910800,5.245910888671875,-0.00025145307881757617,0.00029721856117248535,0.00008662696927785873
1782812338920994000,5.265994140625,-0.0005739978514611721,0.000838231761008501,0.0015460962895303965
1782812338941077000,5.286076904296875,-0.000658143253531307,0.0010055149905383587,-0.00023347814567387104
1782812338961159000,5.306158935546875,0.0005202590255066752,-0.00079513737000525,-0.0006802121642976999
1782812338981241000,5.326240966796875,-0.0009651967557147145,-0.000056554097682237625,0.00010949000716209412
1782812339001324000,5.346323974609375,0.0014051070902496576,-0.0010869207326322794,0.0006212594453245401
1782812339021406000,5.366406005859375,-0.0005835832562297583,0.0008700452744960785,0.0006912455428391695
1782812339041489000,5.386489013671875,-0.00036276874016039073,-0.00041509163565933704,-0.0009346315637230873
1782812339061570800,5.40657080078125,0.00019075622549280524,-0.00022088410332798958,-0.0002771071158349514
1782812339081653800,5.42665380859375,-0.0012223529629409313,0.00021851062774658203,-0.0008137768600136042
1782812339101736000,5.44673583984375,-0.00025358120910823345,-0.0005881458055227995,-0.00041254423558712006
1782812339121819100,5.466819091796875,-0.0005948881153017282,0.0006338246166706085,-0.0005006622523069382
1782812339141901000,5.486901123046875,0.0003383554285392165,-0.00035818410106003284,-0.000021085375919938087
1782812339161984000,5.50698388671875,-0.0019850602839142084,-0.0004521219525486231,0.0013214524369686842
1782812339182066000,5.52706591796875,-0.0019382403697818518,0.0003272569738328457,0.0003687215503305197
1782812339202148900,5.54714892578125,-0.000645885884296149,-0.0011143842712044716,-0.0017236212734133005
1782812339222230800,5.567230712890625,0.0004319516010582447,-0.000645108288154006,0.0005175871774554253
1782812339242314000,5.58731396484375,-0.002294044941663742,0.000406444538384676,0.001367849064990878
1782812339262396000,5.60739599609375,0.0003116827574558556,-0.0012949067167937756,-0.0021494317334145308
1782812339282478800,5.627478759765625,0.000748051272239536,-0.0005020867101848125,0.00003775092773139477
1782812339302560800,5.647560791015625,-0.00036190653918311,0.0000914260745048523,-0.0006299770902842283
1782812339322644000,5.66764404296875,0.0011662931647151709,0.0008518900722265244,0.0006398577243089676
1782812339342727000,5.687726806640625,0.00175654876511544,-0.00007923925295472145,0.0015530677046626806
1782812339362808800,5.707808837890625,0.00030816823709756136,-0.0007864288054406643,-0.00047416449524462223
1782812339382891800,5.727891845703125,0.0011335046729072928,-0.0015544285997748375,-0.0002870350144803524
1782812339402974000,5.747973876953125,0.00022357332636602223,0.0005340608768165112,0.00027974159456789494
1782812339423057000,5.768056884765625,-0.00006968912202864885,-0.00024223653599619865,0.00048123521264642477
1782812339443138800,5.788138916015625,-0.00024334069166798145,-0.000867451773956418,0.00014281622134149075
1782812339463222000,5.808221923828125,0.0005667489022016525,0.000025680754333734512,-0.0006161031778901815
1782812339483304000,5.828303955078125,0.0004690895730163902,0.0004842248745262623,-0.00008762069046497345
1782812339503387000,5.848386962890625,-0.001090416801162064,0.0009004976600408554,0.00015258253552019596
1782812339523469000,5.868468994140625,-0.0007574509363621473,-0.0012714024633169174,0.0006439574062824249
1782812339543552000,5.888552001953125,0.0006636851467192173,-0.0019470753613859415,-0.000602576183155179
1782812339563635000,5.908635009765625,-0.0004937458434142172,-0.0006546175573021173,-0.0009810279589146376
1782812339583716900,5.928716796875,-0.000034494485589675605,0.00010162545368075371,-0.0017572634387761354
1782812339603799800,5.9487998046875,0.0006988533423282206,0.0006552021950483322,0.0004822161281481385
1782812339623881700,5.9688818359375,0.00043957895832136273,-0.00040560332126915455,0.000526091898791492
1782812339643965000,5.98896484375,-0.00039631646359339356,0.0002245670184493065,0.00014024111442267895
1782812339664047000,6.009047119140625,0.00001845750375650823,0.0009381338022649288,0.00003201351501047611
1782812339684130000,6.029130126953125,0.000579504412598908,0.00022710347548127174,0.001730939606204629
1782812339704212000,6.0492119140625,-0.0005453020567074418,-0.0007659012917429209,0.0004265429452061653
1782812339724295000,6.069294921875,-0.00006670095899607986,0.00023765861988067627,0.0006824919255450368
1782812339744376800,6.089376953125,-0.00034793472150340676,-0.0016987104900181293,-0.0007817714940756559
1782812339764459800,6.109459716796875,0.000025929926778189838,-0.001066077034920454,-0.00046547921374440193
1782812339784542000,6.1295419921875,-0.002332421950995922,0.0013250433839857578,0.0005730284610763192
1782812339804625200,6.149625244140625,0.0017670142697170377,-0.0009368571918457747,0.0004961014492437243
1782812339824706300,6.169706298828125,-0.0012269550934433937,-0.0007828325033187866,0.00034050270915031433
1782812339844789200,6.189789306640625,-0.00026519381208345294,-0.0008371351286768913,0.000040076905861496925
1782812339864871200,6.20987109375,-0.00013022299390286207,0.001180552877485752,0.0007537263445556164
1782812339884954400,6.229954345703125,0.00006042441236786544,-0.000600708881393075,0.0005810997681692243
1782812339905036500,6.25003662109375,-0.0004833662533201277,0.0001744953915476799,0.0005961456336081028
1782812339925119500,6.270119384765625,-0.0005209420924074948,-0.00006513996049761772,0.0012637065956369042
1782812339945201400,6.290201416015625,-0.0014347303658723831,-0.0005362394731491804,0.0016151543240994215
1782812339965284400,6.310284423828125,-0.0004826522199437022,-0.0012928720097988844,0.0006838336121290922
1782812339985366300,6.3303662109375,-0.000496005523018539,-0.00036645587533712387,0.0010260525159537792
1782812340005449200,6.35044921875,-0.00018119526794180274,-0.0005033472552895546,-0.00017662602476775646
1782812340025532200,6.3705322265625,-0.0006408672197721899,0.00009682122617959976,-0.0005218510050326586
1782812340045614300,6.3906142578125,-0.0004273161757737398,-0.00024095410481095314,-0.00009896419942378998
1782812340065697500,6.410697509765625,-0.0012735821073874831,0.0004031555727124214,-0.00008896877989172935
1782812340085779500,6.430779541015625,0.0012563216732814908,-0.0006379168480634689,0.0005502031417563558
1782812340105862400,6.4508623046875,0.0001530072622699663,-0.0000725090503692627,-0.0002681619953364134
1782812340125944300,6.4709443359375,0.0007222197018563747,0.0002362281084060669,0.0004581417888402939
1782812340146027300,6.49102734375,0.0006569894030690193,0.0002476712688803673,0.0016989365685731173
1782812340166109400,6.511109375,0.0007033286965452135,0.0007563014514744282,-0.0012285835109651089
1782812340186192400,6.5311923828125,-0.0016177869401872158,0.0006507248617708683,0.0006834926316514611
1782812340206274300,6.5512744140625,0.0002874822821468115,-0.0006838331464678049,0.0005368432030081749
1782812340226357500,6.571357421875,-0.0005197082064114511,-0.0006573270075023174,-0.0009217795450240374
1782812340246439400,6.591439453125,0.00022121233632788062,0.00027425214648246765,0.0002766891848295927
1782812340266522400,6.6115224609375,-0.00005595786205958575,-0.0007548637222498655,0.00017184065654873848
1782812340286604300,6.631604248046875,0.0011263506021350622,-0.0006909475196152925,0.00039577658753842115
1782812340306687200,6.651687255859375,-0.0009008306078612804,-0.0014390929136425257,-0.0010010728146880865
1782812340326769400,6.671769287109375,0.000652632734272629,-0.00032806023955345154,0.0003927028737962246
1782812340346852400,6.691852294921875,-0.0004883553483523428,0.00038951030001044273,-0.0004037667531520128
1782812340366934300,6.711934326171875,0.0006922943284735084,-0.0003074435517191887,0.0008682910120114684
1782812340387017200,6.732017333984375,-0.0005743357469327748,0.0019892179407179356,0.0002119801938533783
1782812340407099100,6.75209912109375,-0.0010545135010033846,-0.0012766323052346706,0.00013985042460262775
1782812340427182300,6.772182373046875,0.0008478976087644696,-0.0013673093635588884,0.00013713538646697998
1782812340447264500,6.792264404296875,0.0008644997142255306,-0.0015167035162448883,0.00006243749521672726
1782812340467347500,6.812347412109375,-0.0008493478526361287,-0.00028071855194866657,-0.0005172241944819689
1782812340487429400,6.832429443359375,0.000537292449735105,0.00105971097946167,0.0012022200971841812
1782812340507512300,6.85251220703125,-0.0002166450140066445,0.0005269390530884266,-0.0010361967142671347
1782812340527594200,6.87259423828125,0.00003366300370544195,0.0004427093081176281,-0.0006036304403096437
1782812340547677200,6.89267724609375,0.000051915907533839345,-0.0008072115015238523,0.0005244311178103089
1782812340567759400,6.91275927734375,-0.0013962272787466645,-0.0001221899874508381,0.0009788963943719864
1782812340587842300,6.93284228515625,0.0008923530112951994,-0.0014156331308186054,0.0003680405206978321
1782812340607925500,6.952925537109375,-0.00022418785374611616,-0.0012008759658783674,0.0010017501190304756
1782812340628007400,6.97300732421875,0.0008780733332969248,-0.00016772281378507614,0.0014086466981098056
1782812340648090400,6.99309033203125,-0.0008776799077168107,0.0016916110180318356,-0.00044529465958476067
1782812340668172300,7.01317236328125,-0.001543610473163426,-0.0002507045865058899,0.00016868091188371181
1782812340688255200,7.033255126953125,-0.0002858649240806699,-0.0014217689167708158,0.0016980990767478943
1782812340708337400,7.05333740234375,-0.0010384190827608109,-0.0007846828084439039,0.001138533465564251
1782812340728420400,7.07342041015625,-0.00022586662089452147,-0.0014966141898185015,0.000668248045258224
1782812340748502300,7.093502197265625,0.0003839930868707597,0.0014723860658705235,-0.000596306286752224
1782812340768585500,7.11358544921875,0.00013923787628300488,0.0010845097713172436,-0.00027544773183763027
1782812340788667400,7.13366748046875,0.0002076781529467553,-0.00021946337074041367,-0.0005132262594997883
1782812340808750300,7.153750244140625,-0.00039237464079633355,-0.00015017390251159668,-0.0014121134299784899
1782812340828832500,7.17383251953125,-0.00043226295383647084,0.00003558024764060974,0.00027875625528395176
1782812340848915500,7.19391552734375,0.00044057029299438,0.000832398422062397,-0.00045885215513408184
1782812340868997400,7.213997314453125,0.0005399975343607366,0.0014970633201301098,-0.0003082752227783203
1782812340889080600,7.23408056640625,0.0003216900513507426,0.00041884928941726685,-0.0009347635786980391
1782812340909162500,7.25416259765625,0.00022560250363312662,-0.0008243212942034006,-0.0008801140356808901
1782812340929245400,7.274245361328125,0.0008888825541362166,0.0008418573997914791,0.0003294103080406785
1782812340949327400,7.294327392578125,0.0001588285667821765,-0.00008262787014245987,0.0008141042198985815
1782812340969410300,7.314410400390625,-0.000587356393225491,0.00025209225714206696,0.0007956462213769555
1782812340989492500,7.334492431640625,-0.0013687676982954144,0.000018240418285131454,0.0011591886868700385
1782812341009575400,7.354575439453125,-0.00010053339065052569,0.0004537510685622692,-0.0012054741382598877
1782812341029657300,7.3746572265625,0.00012709124712273479,0.0000345488078892231,-0.00015944824554026127
1782812341049740300,7.394740234375,-0.000060468330048024654,-0.0005674816202372313,-0.0002668572124093771
1782812341069823500,7.414823486328125,-0.0012206233805045485,0.000016571953892707825,-0.0002136749681085348
1782812341089905400,7.434905517578125,-0.00018218073819298297,-0.00006644241511821747,-0.0007707439363002777
1782812341109988400,7.45498828125,-0.00013603828847408295,-0.0003853435628116131,-0.0001790712121874094
1782812341130070500,7.475070556640625,-0.0011981953866779804,0.000673175323754549,-0.0002758079208433628
1782812341150153500,7.495153564453125,0.0008963901200331748,0.0002633645199239254,-0.0009883379098027945
1782812341170235400,7.5152353515625,-0.0005091666243970394,-0.0004661986604332924,0.00068003183696419
1782812341190318300,7.535318359375,0.0006313136545941234,-0.0003215591423213482,-0.0003613883163779974
1782812341210400300,7.555400146484375,0.00039865143480710685,-0.00013529788702726364,-0.0007712673395872116
1782812341230483500,7.5754833984375,0.0014580527786165476,-0.0006919552106410265,0.000026266789063811302
1782812341250565600,7.595565673828125,-0.0003687312128022313,0.0011180788278579712,0.0008406884735450149
1782812341270648600,7.615648681640625,0.0013919362099841237,-0.0021768503356724977,-0.00020418991334736347
1782812341290730500,7.63573046875,0.0005346410325728357,-0.00021134084090590477,-0.0011098247487097979
1782812341310813400,7.6558134765625,-0.00023357219470199198,-0.0003628646954894066,-0.0012662841472774744
1782812341330895400,7.675895263671875,0.000492912600748241,0.00021623587235808372,0.0006826746976003051
1782812341350978300,7.695978271484375,0.000050336908316239715,0.000305879395455122,-0.0002206447534263134
1782812341371060500,7.716060546875,0.0012787483865395188,0.0011537899263203144,-0.000339902238920331
1782812341391143400,7.736143310546875,0.0002823407994583249,0.0008532716892659664,-0.00021709664724767208
1782812341411225300,7.756225341796875,-0.001123350579291582,0.0007907822728157043,0.0007405915530398488
1782812341431308500,7.77630859375,0.0008200481534004211,-0.00009332597255706787,0.0005351050058379769
1782812341451390500,7.796390380859375,-0.00013044767547398806,-0.0002938350662589073,-0.0015942289028316736
1782812341471473400,7.816473388671875,-0.0006850535282865167,0.0007991539314389229,-0.0005630063824355602
1782812341491555300,7.836555419921875,0.001608670107088983,-0.0006424470338970423,-0.0009672476444393396
1782812341511638500,7.856638427734375,-0.00021718547213822603,-0.0006152328569442034,0.0002490889746695757
1782812341531720400,7.876720458984375,-0.0007843594066798687,-0.0008458744268864393,0.0005816725315526128
1782812341551803400,7.896803466796875,0.0023339365143328905,0.00040668388828635216,-0.0018584784120321274
1782812341571885300,7.91688525390625,-0.0009004063322208822,-0.00020900089293718338,-0.0003644886892288923
1782812341591968500,7.936968505859375,0.00009923023753799498,-0.00037549203261733055,0.0006224280223250389
1782812341612051500,7.957051513671875,0.00006330912583507597,-0.0011336745228618383,-0.0003218301571905613
1782812341632133400,7.97713330078125,0.00012026834883727133,-0.0005441533867269754,-0.0007895226590335369
1782812341652216300,7.99721630859375,-0.0011306876549497247,-0.00043588364496827126,-0.00001877499744296074
1782812341672298500,8.017298583984376,-0.0006262095412239432,-0.0013826668728142977,0.0006992812268435955
1782812341692381400,8.03738134765625,-0.000039735721657052636,0.0005059270188212395,-0.0008245045319199562
1782812341712463400,8.05746337890625,0.00002596716512925923,0.0006651822477579117,-0.000023760134354233742
1782812341732546300,8.07754638671875,-0.0008841572562232614,-0.00040320749394595623,-0.0008262167684733868
1782812341752628200,8.097628173828125,0.0002728155814111233,0.00008295895531773567,0.0008875433122739196
1782812341772711400,8.11771142578125,-0.0007145904237404466,0.0006717592477798462,0.0006022729212418199
1782812341792793600,8.137793701171875,0.0007334085530601442,-0.0002134726382791996,-0.0005701410118490458
1782812341812876500,8.15787646484375,0.0008623946341685951,0.0006361966952681541,0.0005586713086813688
1782812341832959000,8.177958984375,0.0001036168250720948,0.0005179932340979576,-0.0010833456180989742
1782812341853042000,8.1980419921875,0.0013255048543214798,0.0003604539670050144,-0.0006601533386856318
1782812341873123800,8.218123779296874,-0.0009845418389886618,-0.0013211499899625778,-0.00018978165462613106
1782812341893206800,8.238206787109375,0.00018377962987869978,-0.0007493409793823957,-0.0014341489877551794
1782812341913288700,8.258288818359375,-0.0018304893746972084,0.0009947661310434341,-0.00037979125045239925
1782812341933372000,8.278371826171876,-0.000178200047230348,0.0010224860161542892,-0.0001171184703707695
1782812341953453800,8.298453857421874,0.00128119345754385,0.00014809006825089455,0.00014748703688383102
1782812341973536800,8.318536865234375,-0.0004917422193102539,0.0001779855228960514,0.0018797081429511309
1782812341993618700,8.33861865234375,-0.00012436063843779266,0.0005841311067342758,0.001314984867349267
1782812342013702000,8.358701904296876,-0.0019777596462517977,0.00016358913853764534,0.0007523897802457213
1782812342033783800,8.37878369140625,-0.0010680172126740217,-0.0009024024475365877,0.0008268849924206734
1782812342053866800,8.39886669921875,0.000941791629884392,0.0005972515791654587,0.00005820672959089279
1782812342073949000,8.418948974609375,-0.00001177520607598126,-0.0006569505203515291,0.0002873011399060488
1782812342094032000,8.439031982421875,0.0004713605740107596,-0.0006905836053192616,-0.0005593332462012768
1782812342114114800,8.45911474609375,0.0007515196921303868,-0.0008108178153634071,0.00008753640577197075
1782812342134196700,8.47919677734375,-0.000137934839585796,0.0009326492436230183,0.000003145076334476471
1782812342154280000,8.499280029296875,0.0007813688134774566,-0.0004473412409424782,0.0001124790869653225
1782812342174361900,8.51936181640625,-0.0009681009105406702,-0.0004972952883690596,0.0009720934322103858
1782812342194444800,8.53944482421875,0.00224273931235075,-0.0006878713611513376,0.0007035228190943599
1782812342214527000,8.55952685546875,0.0008271817350760102,0.0004267035983502865,0.0005939517868682742
1782812342234610000,8.57960986328125,0.00022199598606675863,-0.001175410347059369,0.0005350308492779732
1782812342254691800,8.59969189453125,-0.001239496748894453,0.0008102408610284328,0.0002484605647623539
1782812342274774800,8.61977490234375,0.00007797067519277334,0.0006059054285287857,-0.00004409695975482464
1782812342294856700,8.639856689453126,-0.0005303907091729343,0.0018385411240160465,-0.001109665958210826
1782812342314939600,8.659939697265624,-0.001614206936210394,-0.0002601710148155689,-0.00015556183643639088
1782812342335021800,8.680021728515625,0.0006639206549152732,0.000848080962896347,0.001689563156105578
1782812342355105000,8.70010498046875,-0.0008808310376480222,0.00038577616214752197,0.001442478271201253
1782812342375187000,8.72018701171875,0.00042647073860280216,0.000037661753594875336,-0.0018193521536886692
1782812342395270000,8.740269775390624,0.00023442704696208239,-0.0004778334405273199,-0.00018269754946231842
1782812342415351800,8.760351806640625,-0.0006139847100712359,-0.000683121383190155,-0.00009694439359009266
1782812342435434800,8.780434814453125,0.0006598548498004675,-0.0010252485517412424,-0.0014716822188347578
1782812342455517000,8.800516845703125,-0.0001521500525996089,0.00033419765532016754,0.0002992807421833277
1782812342475600000,8.820599853515626,0.00036858970997855067,0.00038428883999586105,-0.000035117147490382195
1782812342495681800,8.840681884765624,0.0005279012257233262,-0.0009085158817470074,0.00016158423386514187
1782812342515765000,8.860764892578125,-0.0015863293083384633,-0.00018529267981648445,-0.0009848915506154299
1782812342535847000,8.880846923828125,0.0004314386460464448,0.0004475284367799759,0.000436910311691463
1782812342555929900,8.900929931640626,-0.0015785439172759652,0.0002500684931874275,-0.00020457804203033447
1782812342576011800,8.92101171875,0.0024314532056450844,-0.001404907088726759,-0.00027619744651019573
1782812342596094700,8.9410947265625,0.0005873146001249552,0.0003798920661211014,-0.00136069324798882
1782812342616178000,8.961177978515625,0.0003923822659999132,0.0008136164397001266,0.0006741455290466547
1782812342636259800,8.981259765625,0.002568181836977601,0.0005322825163602829,0.0006746172439306974
1782812342656342800,9.0013427734375,-0.0011763216461986303,0.00032293517142534256,0.0001330748200416565
1782812342676424700,9.0214248046875,0.0009207516559399664,0.000035528093576431274,-0.0003657657653093338
1782812342696508000,9.0415078125,-0.0011952233035117388,-0.00029001059010624886,-0.0004217340610921383
1782812342716589800,9.06158984375,0.000891802366822958,-0.0008511485066264868,0.00002608564682304859
1782812342736672800,9.0816728515625,0.000986700993962586,0.0005765431560575962,-0.00021619629114866257
1782812342756755000,9.1017548828125,-0.00003545873914845288,-2.8405338525772095e-7,0.0006275847554206848
1782812342776838000,9.121837890625,0.0018244812963530421,0.00044040847569704056,-0.0012521031312644482
1782812342796919800,9.141919921875,-0.0005461766850203276,0.0011519989930093288,-0.0003196117468178272
1782812342817002800,9.162002685546875,0.00033752305898815393,-0.0004544071853160858,0.00035749864764511585
1782812342837084700,9.182084716796876,-0.00044922559754922986,-0.00010164547711610794,0.0006596005987375975
1782812342857167600,9.202167724609374,-0.00043285213178023696,-0.00013681361451745033,0.00024270429275929928
1782812342877249800,9.222249755859375,0.0004893861478194594,0.0001170639880001545,-0.00012474018149077892
1782812342897333000,9.2423330078125,-0.0004583459231071174,0.0007924605160951614,0.00008810893632471561
1782812342917415000,9.262414794921876,0.0008088478352874517,0.0003088647499680519,-0.0004419547040015459
1782812342937497900,9.282497802734374,-0.0015902596060186625,-0.0003359569236636162,-0.0012336464133113623
1782812342957579800,9.302579833984375,0.00020165293244645,0.0009818412363529205,0.0010584881529211998
1782812342977662000,9.322661865234375,-0.00041963893454521894,-0.0002645254135131836,-0.0007680752314627171
1782812342998371800,9.343371826171875,-0.0010161636164411902,0.0004969751462340355,-0.0007672985084354877
1782812343018454800,9.363454833984376,-0.0013642881531268358,0.000973203219473362,-0.0004895874299108982
1782812343038536700,9.38353662109375,-0.00005133499507792294,-0.0012177464086562395,-0.0009272207971662283
1782812343058619600,9.40361962890625,-0.00015952401736285537,-0.0006812822539359331,0.0003106484655290842
1782812343078701800,9.423701904296875,-0.0011250813258811831,-0.0006489416118711233,0.0006632187869399786
1782812343098784800,9.44378466796875,0.0009809238836169243,0.000008804257959127426,-0.0001693714875727892
1782812343118866700,9.46386669921875,0.0016346474876627326,0.0014117620885372162,-0.0007968368008732796
1782812343138950000,9.483949951171875,-0.0005001125391572714,-0.0003536054864525795,-0.0014379732310771942
1782812343159031800,9.50403173828125,-0.0003098617016803473,0.000388395506888628,0.002753565553575754
1782812343179114800,9.52411474609375,-0.00047188677126541734,-0.00029838294722139835,-0.0008247094228863716
1782812343199197000,9.544197021484376,0.0003698860527947545,-0.0011912574991583824,0.0010834848508238792
1782812343219280000,9.56427978515625,-0.0005158871645107865,0.000040397047996520996,-0.00024431641213595867
1782812343239361800,9.58436181640625,-0.001263192854821682,0.0010527446866035461,0.001458768267184496
1782812343259444700,9.60444482421875,0.0013164917472749949,-0.000016083940863609314,-0.0006869977805763483
1782812343279526700,9.624526611328125,-0.0012701485538855195,0.00001189718022942543,0.0006040203152224422
1782812343299609900,9.64460986328125,-0.00045490963384509087,0.0004650214686989784,-0.00019802479073405266
1782812343319691800,9.66469189453125,0.0011286853114143014,0.00004909047856926918,-0.0004811056423932314
1782812343339147800,9.684147705078125,-0.0008115689852274954,-0.00019215000793337822,-0.00043766782619059086
1782812343359230700,9.704230712890626,0.00008478437666781247,0.00020072143524885178,0.0015215703751891851
1782812343379312600,9.724312744140626,0.001808639382943511,0.001104904804378748,-0.0014297515153884888
1782812343399395600,9.7443955078125,-0.0010739048011600971,0.00009001325815916061,0.00021225796081125736
1782812343419477800,9.764477783203125,-0.0005442657275125384,0.0006989920511841774,-0.0008393039461225271
1782812343439561000,9.78456103515625,0.00007704517338424921,0.0007515470497310162,0.0010000423062592745
1782812343459644000,9.804643798828126,0.0007923546363599598,0.00019010994583368301,0.0004904662491753697
1782812343479725800,9.824725830078124,0.00047756650019437075,-0.000487589742988348,0.0008748455438762903
1782812343499808800,9.844808837890625,0.0006130572292022407,-0.0003936372231692076,0.0013368611689656973
1782812343519890700,9.864890625,-0.0010053915902972221,0.00010240776464343071,-0.00029961043037474155
1782812343539973600,9.8849736328125,0.0013621842954307795,-0.00061839260160923,0.00040773965884000063
1782812343560055800,9.905055908203124,0.000023718341253697872,0.0005224049091339111,0.0006532336119562387
1782812343580138800,9.925138671875,-0.00007936451584100723,-0.0010436403099447489,0.002618110738694668
1782812343600221000,9.945220947265625,0.0013139949878677726,-0.00025925226509571075,0.001968623138964176
1782812343620304000,9.965303955078125,-0.0007068043923936784,-0.0005522738210856915,0.0013218283420428634
1782812343640385800,9.9853857421875,0.002153259003534913,-0.0008179666474461555,-0.0004510600119829178
1782812343660468700,10.00546875,0.00016511796275153756,-0.0004417083691805601,0.00009053526446223259
1782812343680551000,10.025551025390625,0.00014986505266278982,-0.0010072470176964998,0.00040612893644720316
1782812343700633900,10.0456337890625,0.0018844943260774016,0.000646696425974369,-0.0001892424188554287
1782812343720715800,10.0657158203125,-0.001779032638296485,-0.009959626942873001,-0.0007262749131768942
1782812343740798700,10.085798828125,0.0017198317218571901,-0.03290948271751404,-0.012845151126384735
1782812343760880600,10.105880615234375,0.0006460418226197362,-0.01922503113746643,-0.006464588455855846
