time,seconds_elapsed,z,y,x
1782814942777054700,0.0620546875,-0.03512684296071529,-0.09660510175228118,-0.07039587087109685
1782814942797137700,0.0821376953125,-1.0004419474244117,-0.22449966025948523,-0.12818769623488188
1782814942817220600,0.102220703125,-1.2289689635038374,-0.03444382913261652,-0.6467012824848294
1782814942837303800,0.1223037109375,0.11363456248641013,0.15094839409738778,-0.4575774715110659
1782814942857386800,0.14238671875,1.8821242444336412,-0.389362890201807,0.4907219084829092
1782814942877469700,0.1624697265625,1.8513544276386498,-0.6831278098672628,0.5998407471105456
1782814942897552600,0.182552734375,0.5949784017711878,0.37067791734561323,0.24442126223854718
1782814942917635800,0.2026357421875,0.73923255892694,0.34693376140370963,-0.4657070750180632
1782814942937718800,0.22271875,0.254642285066843,-0.5822456153176725,-0.7313627023346722
1782814942957801000,0.242801025390625,0.9000783699214457,0.0717376408688724,-2.0513364633657036
1782814942977884000,0.2628837890625,0.047668344625830646,0.09867116743661462,-1.7283616696983575
1782814942997966800,0.282966796875,-0.700498046863079,-0.04656513262428343,-0.6266949978969991
1782814943018049800,0.3030498046875,-0.19840894119143485,0.004987433023750782,-0.25770970981344576
1782814943038132700,0.3231328125,-0.24291677595973013,0.39354792080149054,-0.7732070169821381
1782814943058215700,0.343215576171875,-0.19529694665074349,0.5635498288065195,-1.234412031340599
1782814943078298600,0.363298583984375,0.6172557000309229,-0.022736001812666655,-0.34984153860919176
1782814943098381800,0.3833818359375,-0.4712473926842212,-0.3720793085761368,0.2542412299852818
1782814943118464800,0.40346484375,-1.2995090651512144,-0.14971812165006995,0.3571895632844418
1782814943138547700,0.423547607421875,-1.432089735648036,0.20600845640972257,0.34798641226179894
1782814943158629600,0.443629638671875,-0.927426395574212,0.3281457665644586,0.38606129137314854
1782814943178712600,0.463712646484375,-0.47087622128427026,0.10362973969206213,0.29405191991329194
1782814943198795800,0.483795654296875,-0.34017712675035,0.13087569320984185,0.30079978673830626
1782814943218878700,0.503878662109375,-0.34868951902985573,0.1335934277359396,0.4783104629382491
1782814943238961700,0.523961669921875,-0.3294885594755411,0.32981625705994666,0.5209940779540687
1782814943259044600,0.544044677734375,-0.15487258180379868,0.5237954721756279,0.7305079121362418
1782814943279127600,0.56412744140625,0.1471668297320604,0.4887329266227782,0.925027079347521
1782814943299210800,0.584210693359375,0.6233890882194042,0.25987653245851394,0.9288614698786288
1782814943319293700,0.604293701171875,0.5239934789657592,0.003663490943610668,0.8086961904492229
1782814943339376600,0.624376708984375,0.23212416378855705,0.005880144079774618,0.7115029135454446
1782814943359458600,0.64445849609375,-0.07818097178936004,0.06080635087937116,0.7101753182034939
1782814943379541800,0.664541748046875,-0.9073118283063173,0.08617854641452431,0.6151536862503737
1782814943399624700,0.684624755859375,-1.4996803398400544,0.3452914010241627,0.5578214777549728
1782814943419707600,0.704707763671875,-1.4726041168659925,0.14659319456256925,0.7832827861208468
1782814943439790800,0.724790771484375,-1.0547358476698399,-0.0026768179938197133,0.8417340983066708
1782814943459873800,0.744873779296875,-0.371442033585906,-0.09154226540476083,0.7059614268355071
1782814943479956700,0.764956787109375,0.22502982161343096,-0.2586569275356829,0.5824676240378991
1782814943500039700,0.785039794921875,0.14186638523638248,-0.21295557213388383,0.5091784428780898
1782814943520123000,0.805122802734375,-0.41641397873461244,-0.06299575068242848,0.3588090542450547
1782814943540205800,0.825205810546875,-0.5026888251304626,-0.06007036475501954,0.3298158186685294
1782814943560287700,0.845287841796875,-0.07781798369586468,-0.13817491030730306,0.15950811438364906
1782814943580370700,0.86537060546875,0.5222907667011022,-0.2984345189116895,-0.1115927909931168
1782814943600453600,0.88545361328125,0.9493535652220249,-0.5144213485002518,-0.19451704831942915
1782814943620536600,0.90553662109375,0.9628986909717321,-0.6185884830046445,-0.1585601842753589
1782814943640619800,0.925619873046875,0.7335083360612392,-0.49363370427638287,-0.24289058207254854
1782814943660702700,0.94570263671875,0.5856804120719432,-0.5417355449486524,-0.2838081737965345
1782814943680785700,0.96578564453125,0.5693465323865413,-0.588163168798387,-0.3412019762860611
1782814943700868600,0.98586865234375,0.3303174115151167,-0.6663458941534162,-0.3518920048655942
1782814943720951800,1.005951904296875,-0.03930675899386406,-0.6021612990126013,-0.40744942224081604
1782814943741034800,1.02603466796875,-0.24865035117566583,-0.5257943178426474,-0.47090186718218024
1782814943761116700,1.04611669921875,-0.34736616147160526,-0.5858748386655003,-0.4859619640721008
1782814943781199600,1.06619970703125,-0.3590466623932123,-0.7822362727425992,-0.5708921543933451
1782814943801282600,1.086282470703125,-0.6081237145483493,-0.9442691015645861,-0.5204574868593365
1782814943821365500,1.106365478515625,-0.7593728451579809,-0.8683448957260698,-0.4990528797809034
1782814943841448700,1.12644873046875,-0.6512216825187206,-0.8128080827474594,-0.2560308168157935
1782814943861531600,1.14653173828125,-0.21536241407990456,-0.8924239096455275,-0.15256430486142633
1782814943881614600,1.166614501953125,0.07182195815145968,-1.053286233383417,-0.16423117911648005
1782814943901697500,1.186697509765625,0.03356441594958305,-1.1703578576464204,-0.2862405155099928
1782814943921780500,1.206780517578125,-0.1787438712567091,-1.2213385416906326,-0.27156525321919467
1782814943941862700,1.226862548828125,-0.158139474645257,-1.0810911359582096,-0.16692779778931288
1782814943961945900,1.24694580078125,-0.3942325420647859,-1.0227014908317476,-0.06127597768511623
1782814943982028800,1.26702880859375,-0.40048984889388084,-1.0252703914716839,0.09516564353369175
1782814944002112000,1.287112060546875,-0.25508652170300483,-0.880539775910601,0.27264674657927823
1782814944022195000,1.30719482421875,-0.6607569881051778,-0.7113222962815314,0.3737025989290327
1782814944042278000,1.32727783203125,-1.0228314738869666,-0.5106759514268487,0.43614356527291237
1782814944062361000,1.347361083984375,-1.2107435709834098,-0.2870040472283959,0.4827067251358181
1782814944082444000,1.367444091796875,-1.2739391550868748,-0.004439151491224765,0.5408931758403778
1782814944102527000,1.38752685546875,-1.2665712566673755,0.2667071821961552,0.667878729743883
1782814944122609000,1.40760888671875,-1.0598556749016046,0.5857170177552848,0.8403819530453532
1782814944142691800,1.42769189453125,-0.5570622203528881,0.7751388618275523,0.998321375073865
1782814944162775000,1.447775146484375,0.13371873461604117,0.8078339475966989,1.1579869633078574
1782814944182858000,1.46785791015625,0.4711363335251808,0.7643371895670891,1.1347365822322666
1782814944202941000,1.48794091796875,0.8000158211916685,0.7274236093200743,1.0827088733531534
1782814944223023900,1.50802392578125,0.7564198405712842,0.6978526469208299,0.8596575122058391
1782814944243106800,1.52810693359375,0.6476181050688028,0.7437479905247688,0.7001411962494254
1782814944263190000,1.54818994140625,0.22227321638166903,0.86947967190966,0.5521237410373986
1782814944283273000,1.56827294921875,-0.10121814850568771,1.0803175943024457,0.33997305554561313
1782814944303355000,1.58835498046875,0.08435118485689162,1.2307292511746286,0.29027386267930266
1782814944323437800,1.608437744140625,0.1764344252705574,1.310554775300622,0.1597499237828888
1782814944343520800,1.628520751953125,0.3363023311436176,1.2573410715073345,0.026743410823121667
1782814944363603700,1.648603759765625,0.6640080988556146,1.2490927369914948,0.061641778790205715
1782814944383687000,1.66868701171875,1.0818196694284676,1.1574829593084752,-0.053784745146892965
1782814944403769900,1.688769775390625,1.3526970499813555,0.910165756432712,-0.22025201275236903
1782814944423852800,1.708852783203125,1.5059686263293026,0.7457691210888325,-0.1841466801483184
1782814944443935700,1.728935791015625,0.8874971207678317,0.71266998456344,-0.24159363759718833
1782814944464018000,1.749017822265625,0.3686450963437557,0.7755699467211962,-0.2760463806886226
1782814944484100900,1.769100830078125,-0.024077041158080098,0.8398476269729435,-0.13195647418387232
1782814944504184000,1.78918408203125,-0.17674129926264284,0.8457906071558594,0.027793285202234983
1782814944524267000,1.80926708984375,-0.06510580163896083,0.7947694449707865,0.1413392926223576
1782814944544350000,1.829349853515625,0.02498889530599117,0.6169497758869081,0.05714234847910702
1782814944564433000,1.849432861328125,-0.012966449078917502,0.38022060252092776,-0.16857077922336755
1782814944584515800,1.869515869140625,0.05407236644923687,0.11159786902703345,-0.4021971642684191
1782814944604599000,1.88959912109375,0.20279694701731205,-0.0770627083491534,-0.4884227646950632
1782814944624681000,1.909680908203125,0.15467209079563618,-0.16991437585204838,-0.5154127706903964
1782814944644764000,1.929763916015625,0.13380115220248698,-0.27698534203916786,-0.5526591630883515
1782814944664846800,1.949846923828125,0.022972879308462143,-0.44924818071350453,-0.565706714579463
1782814944684929800,1.9699296875,-0.04957388598620891,-0.5768312621187418,-0.4917117963030934
1782814944705013000,1.990012939453125,-0.23382921414077282,-0.5771207465846091,-0.3525766626615077
1782814944725096000,2.010095947265625,-0.259601368778944,-0.6004896394733339,-0.25611681459881364
1782814944745179000,2.030178955078125,-0.12443886509537697,-0.6620321956727654,-0.28229959586448966
1782814944765261800,2.05026171875,0.11591127524673939,-0.7810423137176782,-0.2577778796788305
1782814944785344000,2.070343994140625,0.21357202353179452,-0.830511497220397,-0.19522249317504464
1782814944805427000,2.090427001953125,0.41121231843829154,-0.9036692340202629,-0.007644523403793573
1782814944825510100,2.11051025390625,0.1297048227995634,-0.8476420802414417,-0.017643062587827444
1782814944845593000,2.130593017578125,-0.08070844444036483,-0.8491845604430883,-0.019546631186828017
1782814944865676000,2.150676025390625,-0.32734277961850167,-0.8817588693767785,-0.07519428412877023
1782814944885759000,2.170759033203125,-0.6577326718479395,-0.8699654095999896,-0.27515922259055076
1782814944905842000,2.190842041015625,-0.8458084350734949,-0.8657593362122774,-0.3739422529038042
1782814944925925000,2.210925048828125,-1.0360434221595525,-0.79834379632622,-0.4918394412707537
1782814944946007000,2.231007080078125,-1.1325912407666443,-0.6458499263525008,-0.5709901348751037
1782814944966090000,2.251090087890625,-1.0769640460908412,-0.6041995268419385,-0.608411956905201
1782814944986173000,2.2711728515625,-0.5294686955064535,-0.5015400934867561,-0.8095674203258008
1782814945006255900,2.291255859375,-0.5480564915984869,-0.5309914846269413,-0.6181488494783639
1782814945026338800,2.3113388671875,-0.6275649125993251,-0.30304153778310866,-0.6506739855080843
1782814945046422000,2.331422119140625,-0.4144675208419561,-0.23455445967540142,-0.6615944618426263
1782814945066505000,2.3515048828125,-0.353463309302926,-0.11841343079339713,-0.6157326551821083
1782814945086588000,2.371587890625,-0.7398854698777199,0.1673769297963008,-0.4490167100451886
1782814945106669800,2.391669921875,-1.3867588940590618,0.4497323109686374,-0.40663193184547125
1782814945126752800,2.411752685546875,-1.5992039593875407,0.6726913907226175,-0.41278563216961917
1782814945146836000,2.4318359375,-1.247538054895401,0.7623422163575887,-0.3588762742623687
1782814945166919000,2.4519189453125,-0.5241857866674662,0.7180534311674535,-0.33700536484643817
1782814945187001900,2.472001953125,-0.12358663218021392,0.6639398559249937,-0.39145788971967993
1782814945207084800,2.492084716796875,0.03978022172451019,0.7895137894649058,-0.5005487443618476
1782814945227167700,2.512167724609375,0.16093758093118668,0.9824074743662029,-0.487677572350949
1782814945247250000,2.53225,0.3269529035180807,1.0499656375933437,-0.4319122843787074
1782814945267333000,2.5523330078125,0.6583569412261248,1.0494434403501451,-0.4657693265993148
1782814945287416000,2.572416015625,1.0096364767491817,0.9434216909550129,-0.44314358022809025
1782814945307499000,2.5924990234375,1.2275363003522157,0.9281710764616727,-0.3407984004538506
1782814945327582000,2.61258203125,1.187713993051648,1.0506962168902159,-0.22466186508387326
1782814945347665000,2.632664794921875,0.7902928840786219,1.2528883298821747,-0.12046645433306694
1782814945367748000,2.652748046875,0.36160745279192924,1.3338885968759655,-0.07515081031322479
1782814945387831000,2.6728310546875,0.3276496536105871,1.188524286521226,0.030019290688633918
1782814945407913000,2.692912841796875,0.5157511357992888,0.9700636141650378,0.1026122332125902
1782814945427996000,2.712995849609375,0.5317068298220634,0.7183636661604046,0.10366605311445891
1782814945448078800,2.733078857421875,0.25412206058502196,0.5849485906660556,0.0007122399225831032
1782814945468161800,2.753161865234375,-0.13841770608723164,0.5125730902850627,-0.3108615273516625
1782814945488245000,2.773244873046875,-0.7097481057673692,0.49139746965691444,-0.6053636752504855
1782814945508328000,2.793327880859375,-1.4843763877242804,0.5908129526548087,-0.6358471493847668
1782814945528411000,2.813410888671875,-2.294171844652295,0.8099623379275203,-0.5554712248343974
1782814945548492800,2.833492919921875,-2.4590987874805927,1.032144661155343,-0.5050385300617665
1782814945568575700,2.85357568359375,-1.687836182564497,0.9879274798966944,-0.4369537856772542
1782814945588658700,2.87365869140625,-0.34675767418444153,0.7442066940777003,-0.4857378364600241
1782814945608742000,2.893741943359375,0.818940886414051,0.41108606171011924,-0.5858859445814043
1782814945628824800,2.913824951171875,1.740837704911828,0.12437076829522847,-0.7462584389757364
1782814945648907800,2.93390771484375,2.3219103309273716,-0.08903452036753297,-0.8300055935248732
1782814945668991000,2.953990966796875,2.3017951791375872,-0.2647808172434568,-0.7154582270424813
1782814945689074000,2.974073974609375,1.764804855954647,-0.15620193071141839,-0.6423529510822147
1782814945709156000,2.994156005859375,1.0892103642016648,0.005531915163993835,-0.6384779362797737
1782814945729239000,3.014239013671875,0.3941647375255823,0.06334127618446946,-0.5747129547905176
1782814945749322000,3.034322021484375,0.0003653261810541153,0.11825506189391016,-0.6210761351019144
1782814945769405000,3.054405029296875,-0.08267419155538082,0.037346418706327676,-0.5653909266285598
1782814945789487900,3.07448779296875,-0.2522071668744087,0.016967647544294594,-0.5037196294829249
1782814945809571000,3.094571044921875,-0.3179851686865091,0.026305092471092938,-0.43000564703978594
1782814945829654000,3.114654052734375,-0.3183914113998413,-0.019686112722754476,-0.29783121925629674
1782814945849736000,3.13473583984375,-0.14817337642610073,-0.06812003489360213,-0.19090126897506415
1782814945869819000,3.15481884765625,0.1367237616509199,-0.14424765434972942,-0.08514942256249487
1782814945889901800,3.17490185546875,0.3362596610456705,-0.24436595185473559,0.07442220377773046
1782814945909984800,3.19498486328125,0.42245735055208206,-0.30995318033508956,0.24475027499720453
1782814945930068000,3.21506787109375,0.2952688944876194,-0.3405557508043945,0.3395945045568049
1782814945950151000,3.23515087890625,0.20488953538239002,-0.37376711553260683,0.38325558630265294
1782814945970233900,3.25523388671875,0.09490180496573447,-0.5232757591504603,0.40964295022971925
1782814945990315800,3.275315673828125,-0.07119418164193629,-0.6716066642258316,0.4631615552537143
1782814946010397700,3.295397705078125,-0.23600480461418627,-0.8077011149972677,0.5641100199725478
1782814946030481000,3.31548095703125,-0.43103170215189457,-0.8114579102475196,0.6875667421627789
1782814946050563800,3.335563720703125,-0.7012965037643909,-0.8153717957556247,0.7299007400233298
1782814946070646800,3.355646728515625,-1.0063970564365385,-1.0763767477221786,0.8100855989810078
1782814946090729700,3.375729736328125,-0.9036164809197187,-1.0780451923910528,0.5742285322744399
1782814946110812700,3.395812744140625,-1.308107382148504,-1.0441799668639897,0.5500588443968445
1782814946130896000,3.415895751953125,-2.1114900494247673,-0.654257104691863,0.6758085728950798
1782814946150977800,3.435977783203125,-3.0306670875698325,0.11367124123498797,0.6258246448032557
1782814946171060700,3.456060791015625,-3.4698236439883705,0.7181101297907531,0.7964264183975756
1782814946191143700,3.476143798828125,-2.9552631792783735,0.9140789112884551,1.0757410801671445
1782814946211226600,3.4962265625,-1.8535750262975692,0.9707563456695526,0.7357225780446082
1782814946231309600,3.5163095703125,-0.1780553044706583,0.7543162193555385,0.7557175375208258
1782814946251392800,3.536392822265625,1.3507219505161046,0.6516602931316942,0.6700365653648972
1782814946271475700,3.556475830078125,2.450439095684886,0.4245568070493638,0.665007046765089
1782814946291558000,3.576557861328125,2.8662258824318645,0.3106399204902351,0.7543325129032135
1782814946311640800,3.596640869140625,2.426458500638604,0.5651604788735508,0.8236275098603218
1782814946331723800,3.616723876953125,1.5893816535532475,1.102946482478827,0.8276154835179448
1782814946351807000,3.636806884765625,0.6858557735264301,1.391939511567354,0.8642825416579842
1782814946371890000,3.656889892578125,-0.36441081977486606,1.5466105794496834,0.6839142110045999
1782814946391972900,3.676972900390625,-1.2724316731333731,1.6628905418783426,0.44209366931635885
1782814946412055800,3.697055908203125,-1.5275439137995241,1.6913263627678154,0.23628490019720047
1782814946432137700,3.7171376953125,-0.7533850029200315,1.5503149869255721,0.012842096613463945
1782814946452220700,3.737220703125,0.5689817907273769,1.0954866679921746,-0.10053100649174303
1782814946472303900,3.757303955078125,1.5024252546340227,0.6030750528566539,-0.35555947786457837
1782814946492386800,3.77738671875,1.8985019632607698,0.20414237027689813,-0.3626663507277146
1782814946512469800,3.7974697265625,1.7580939601391552,0.11312675909474491,-0.24709307526368646
1782814946532552700,3.817552734375,1.3030968605101108,0.17619930134043096,-0.15362747711353003
1782814946552635600,3.8376357421875,0.5664192467629909,0.18508944089114665,-0.1709467876397073
1782814946572717600,3.857717529296875,-0.007947159612178801,0.12252090264484286,-0.2430516178531572
1782814946592800800,3.87780078125,-0.3328250104218721,0.06643354311138391,-0.20652433350998908
1782814946612883700,3.8978837890625,-0.3998854532599449,-0.027837197409197687,-0.20982078123949466
1782814946632966700,3.917966552734375,-0.3169417971134186,-0.13568455479629338,-0.22024130869526415
1782814946653049600,3.938049560546875,-0.16845862408578394,-0.3553821485362947,-0.18526015781555324
1782814946673132500,3.958132568359375,-0.02749649421274662,-0.46381877705343066,-0.13960476044733078
1782814946693214700,3.978214599609375,-0.24048165776729583,-0.4688182658411562,0.004600369934923946
1782814946713298000,3.9982978515625,-0.3778852183759212,-0.3630069443263113,0.0763329327698797
1782814946733380900,4.018380859375,-0.46402211760580536,-0.3876611277852207,0.24126509976256638
1782814946753463800,4.0384638671875,-0.43448213486671444,-0.3373942910987884,0.39766054375208915
1782814946773546800,4.058546630859375,-0.30261633464097976,-0.37237982589267193,0.46806773973479865
1782814946793629700,4.078629638671875,0.1986597010821104,-0.5051767694886774,0.493727300843969
1782814946813713000,4.098712890625,0.5034492881089448,-0.6810496153537183,0.626473537166044
1782814946833794800,4.118794921875,0.4000619788706302,-0.74363612764813,0.5848439247151836
1782814946853877800,4.138877685546875,0.2177566157400608,-0.8379273995000869,0.5137004868797957
1782814946873960700,4.158960693359375,0.1828606589257717,-0.8724530616972594,0.536787055695802
1782814946894043600,4.179043701171875,0.19709902763664722,-0.8710197409585118,0.6029614729469641
1782814946914126800,4.199126953125,0.027073884886503218,-0.8977483195386826,0.6583072568655014
1782814946934209800,4.219209716796875,-0.266977450504899,-0.852218667441979,0.6892851634532213
1782814946954292700,4.239292724609375,-0.45600247727930543,-0.8271162287589162,0.7226593175277114
1782814946974374700,4.259374755859375,-0.6211836871296167,-0.7142142183307558,0.6876878843244165
1782814946994458400,4.279458251953125,-0.7379068632811308,-0.5259702589314431,0.5631344894712791
1782814947014541600,4.29954150390625,-0.8943646684497595,-0.41347734076082704,0.3852611539714038
1782814947034624500,4.31962451171875,-0.8641676831066608,-0.3310488675948232,0.25453378319106995
1782814947054707500,4.33970751953125,-0.784955030182004,-0.18590762540623545,0.12193232563454658
1782814947074790400,4.359790283203125,-0.6370481957376003,0.009037804393097757,0.12166348209790885
1782814947094872600,4.37987255859375,-0.2653974878370762,0.18935221290215848,-0.02478515289481729
1782814947114955800,4.399955810546875,-0.09438391857147216,0.07944295454919338,-0.23367585020996628
1782814947135038700,4.420038818359375,0.20448387719094752,-0.17489172587320206,-0.4740120716245845
1782814947155121700,4.44012158203125,0.11349310818910598,-0.13267967389188706,-0.5893117543116212
1782814947175204600,4.46020458984375,-0.8782195893347263,0.5325774751767516,-0.1722400423206389
1782814947195287600,4.48028759765625,-1.6577344742894171,1.360147073726356,0.40319655056931075
1782814947215370800,4.500370849609375,-1.3486971666902303,1.81527086847499,0.675184449647367
1782814947235452700,4.52045263671875,-0.166944127869606,1.5166984023973344,0.5188749669082462
1782814947255535600,4.54053564453125,0.9609177462875842,1.0323206753093748,0.09060520375035702
1782814947275618600,4.56061865234375,1.594147260519862,0.6519086418695748,-0.3936057884685695
1782814947295701500,4.580701416015625,1.4076748408377169,0.4940025375887751,-0.7570472517546266
1782814947315784400,4.600784423828125,0.6889461407572031,0.9825510475553572,-0.8710419527903198
1782814947335867600,4.62086767578125,0.058770168876647946,1.377382432296127,-0.7951239574968815
1782814947355949600,4.640949462890625,-0.24265958632826803,1.4749432273380458,-0.7616163863010704
1782814947376032500,4.661032470703125,-0.052724458971619606,1.3764336071386933,-0.7278519907999783
1782814947396115500,4.681115478515625,0.5593272426754236,1.1833258410952985,-0.4601202147964388
1782814947416198400,4.701198486328125,1.1064005684554576,1.0474868994548916,-0.166166421495378
1782814947436281300,4.72128125,1.1863380285233258,0.8213055697187781,0.09278897753022611
1782814947456364500,4.741364501953125,0.9518640867382288,0.7457358033411204,0.08198387120366096
1782814947476447500,4.761447509765625,0.7088619705826044,0.5855611696064472,-0.034846272453665735
1782814947496529700,4.78152978515625,0.48313890600800513,0.5542097535312176,-0.2588121180973947
1782814947516612600,4.801612548828125,0.04808744682073593,0.5368003535687923,-0.33515900632739065
1782814947536695600,4.821695556640625,-0.7159212414443492,0.568851150085032,-0.32854718697220087
1782814947556778800,4.84177880859375,-1.6606716967850923,0.7056938619405031,-0.07508227512165903
1782814947576861700,4.86186181640625,-2.095891498276591,0.8849072504051029,0.07076207383498549
1782814947596944600,4.881944580078125,-1.504041457659006,0.9309431715235114,0.19474851898774503
1782814947617026600,4.902026611328125,-0.31681144873201844,0.6815479933299123,0.19133337678201495
1782814947637109500,4.922109619140625,0.8977502192348241,0.2897800878129899,0.21889606809876858
1782814947657192400,4.9421923828125,1.5144301652044057,-0.06226619429886341,0.16845862408578394
1782814947677275600,4.962275634765625,1.505684548690915,-0.30314693438634277,0.12008435968030243
1782814947697358600,4.982358642578125,1.0225655164271592,-0.37983211465999484,-0.031372422330640255
1782814947717441500,5.002441650390625,0.5693044468104839,-0.47743009990714486,-0.19211718410346657
1782814947737523500,5.0225234375,0.15885142230689525,-0.5659409617267549,-0.3303224895490333
1782814947757606400,5.0426064453125,-0.33867432097196576,-0.6430467055000364,-0.38366814915891734
1782814947777689300,5.062689453125,-0.6355003817737103,-0.6690658206366003,-0.49350839739628133
1782814947797772500,5.0827724609375,-0.6536059473067521,-0.7509728272117674,-0.433851216552034
1782814947817855500,5.10285546875,-0.6493243244647979,-0.8244899719085543,-0.35707174559105187
1782814947837938400,5.1229384765625,-0.7348860541552305,-0.8716774011496454,-0.2835531943884678
1782814947858020600,5.1430205078125,-0.7450690099954604,-0.8436068333759903,-0.19155774185610933
1782814947878103600,5.163103515625,-0.6740946085840464,-0.7721230942029506,-0.0839662041272968
1782814947898186500,5.1831865234375,-0.5519254419863223,-0.6751445560283958,0.06954533672267571
1782814947918269700,5.203269775390625,-0.4468547097057104,-0.6816578834451734,0.1512358510029502
1782814947938352600,5.2233525390625,-0.5180962376207113,-0.6627503538794816,0.27568918301509693
1782814947958435600,5.243435546875,-0.4922597855746746,-0.5860609358221293,0.3250937951153144
1782814947978518500,5.2635185546875,-0.28139994361102577,-0.5986772562891245,0.26841944774044674
1782814947998601000,5.28360107421875,0.026169629523158072,-0.6837520792454481,0.15070100434073247
1782814948018684000,5.303683837890625,0.4551759633272886,-0.8872584897063672,0.2134153899316676
1782814948039393000,5.32439306640625,0.754913527661562,-0.9338687035813927,0.012686097767576574
1782814948059476000,5.34447607421875,0.13695172518789767,-0.9231526637777686,-0.032273134030029176
1782814948079559000,5.364558837890625,-0.38725802687704564,-0.6417682099968195,0.053361989690177136
1782814948099641900,5.384641845703125,-0.34286534292101856,-0.4259206427484751,0.32708562651965767
1782814948119725000,5.40472509765625,-0.3270943578153849,-0.2698971373438835,0.6524442831162363
1782814948139808000,5.42480810546875,-0.6368757617801427,0.011566226892173289,0.851578542907536
1782814948159890000,5.444889892578125,-0.7499819164782762,0.36101635503098367,1.0259376962739974
1782814948179972900,5.464972900390625,-0.6458516799181699,0.590822743396461,1.2035909958150237
1782814948200055800,5.485055908203125,-0.2996469634413719,0.6129932202808559,1.338995856887102
1782814948220138800,5.505138671875,0.03705108902156353,0.6311538770020008,1.3064384260229767
1782814948240222000,5.525221923828125,0.2040396405547857,0.5898840012416243,1.1525669840857387
1782814948260305000,5.545304931640625,0.17499474785625935,0.554843082998693,0.9550004120025783
1782814948280386800,5.56538671875,0.07798340339064598,0.614504647757113,0.7536273603085428
1782814948300469800,5.5854697265625,-0.12153203773796557,0.670719579192996,0.6121042355518788
1782814948320552700,5.605552734375,-0.5448480509459972,0.7655565022289752,0.4690132038913667
1782814948340636000,5.625635986328125,-0.8892126925140619,0.9564407470040023,0.38527737445384264
1782814948360718800,5.64571875,-0.9262392316162585,1.0937824944227934,0.4733335513085127
1782814948380174800,5.6651748046875,-0.6150427001565695,1.2241083717301486,0.5264440139230341
1782814948400257800,5.6852578125,-0.214671509206295,1.3057383149296045,0.49311256647910917
1782814948420340700,5.7053408203125,0.11910451833009719,1.2052148706898091,0.3411107543386519
1782814948440424000,5.725423828125,0.42036008601188657,1.0472748641394078,0.13725759453298522
1782814948460507000,5.7455068359375,0.6319102483272552,0.8843753354854881,-0.027255917789367957
1782814948480588800,5.7655888671875,0.9479840304344892,0.7038796521253884,-0.11720361661221831
1782814948500671700,5.785671630859375,1.098018524557352,0.6321781054832041,-0.13466947773592547
1782814948520754700,5.805754638671875,0.9034989920198917,0.6065199326135218,-0.2901074748701416
1782814948540838000,5.825837890625,0.18428396972715855,0.6186985923156142,-0.46709085752665996
1782814948560920800,5.8459208984375,-0.6753828948289156,0.770408764565736,-0.47802422987539317
1782814948581004000,5.866004150390625,-1.3752619330108165,0.9627294718846678,-0.24790037305857984
1782814948601086000,5.8860859375,-1.384696116310358,1.1177255339376628,-0.0018844437734223901
1782814948621169000,5.9061689453125,-0.7895207306623458,0.9971204017862677,0.15528477933388202
1782814948641251800,5.926251953125,-0.109130821326375,0.6831603969626129,0.11330244445521384
1782814948661335000,5.9463349609375,0.4502805925011635,0.39056978177353735,-0.08154204572029411
1782814948681418000,5.96641796875,0.8495879536122083,0.19879297207295893,-0.16362451846022158
1782814948701501000,5.9865009765625,1.1078642112672328,0.02678571559488773,-0.15914386591482907
1782814948721582800,6.006582763671875,0.9577706804335117,-0.04254354895800352,-0.20432395565519107
1782814948741665800,6.026665771484375,0.5818547163039446,0.012779255943745373,-0.20310484392270445
1782814948761748700,6.046748779296875,0.25516367859244343,0.00517009611427784,-0.07327851363532245
1782814948781832000,6.06683203125,0.13199965573847294,0.06489142823591829,0.08549485673299059
1782814948801915000,6.086914794921875,0.030543022301793097,0.07544993939027189,0.23292137858085332
1782814948821997800,6.106997802734375,-0.04692249469459057,-0.0033704993464052676,0.25048383194683116
1782814948842080000,6.127080078125,-0.15315993266701697,-0.08662059109359979,0.2221291317358613
1782814948862163000,6.147162841796875,-0.10862404084801673,-0.17026377381160854,0.10928648681212216
1782814948882246000,6.167245849609375,0.14216273783445357,-0.2973098987959325,0.1277052830127999
1782814948902329000,6.1873291015625,0.3625274902462959,-0.39733065421059727,0.15029637819575145
1782814948922412000,6.207412109375,0.3058861500918865,-0.5042287480488419,0.07751176729090511
1782814948942495000,6.227494873046875,0.12108955466747283,-0.5715047333337366,0.0721220553428866
1782814948962577000,6.247576904296875,0.04182078764140606,-0.5127009544484317,0.137225975552015
1782814948982659800,6.267659912109375,0.07476268777847289,-0.5091833017162979,0.26180406645499166
1782814949002742500,6.287742431640625,0.13280395785868168,-0.5173230612911284,0.3186715435154736
1782814949022825700,6.30782568359375,0.14286474862396717,-0.5997239888630808,0.3228854348834604
1782814949042908700,6.32790869140625,0.06310147607922553,-0.6499972552902996,0.26327802973138165
1782814949062991600,6.34799169921875,0.06199497614204883,-0.7099094338089227,0.200942076398246
1782814949083073500,6.368073486328125,-0.11477613373696803,-0.6714229051567614,0.17401037646140902
1782814949103156500,6.388156494140625,-0.32411037356853484,-0.598887830299884,0.22821287209633737
1782814949123239700,6.40823974609375,-0.5047884277582169,-0.5561877756059169,0.3285258153906092
1782814949143322600,6.428322509765625,-0.36725042711496353,-0.5183407139010727,0.4174445638913661
1782814949163405600,6.448405517578125,-0.5443640668213368,-0.29491686617955565,0.34191724841594695
1782814949183488500,6.468488525390625,-1.2690548901766538,-0.15601795244663952,0.38471988670155405
1782814949203570700,6.48857080078125,-1.6072031414479016,0.340779476557672,0.527735661168769
1782814949223653600,6.508653564453125,-1.341916712769866,0.6983829544052481,0.9267552183143793
1782814949243736800,6.52873681640625,-0.7234411155551671,0.8111627997584641,1.2868901143357157
1782814949263819800,6.54881982421875,-0.22953064016401767,0.8311829667411744,1.4493966981492936
1782814949283902700,6.56890283203125,-0.06051262862980365,0.829455850687623,1.4559673087112606
1782814949303985700,6.588985595703125,-0.006856441766023636,0.8591928173035382,1.3550840912483633
1782814949324067600,6.609067626953125,0.0309393281430006,0.9169535168766975,1.3445768718898297
1782814949344150500,6.629150634765625,0.15160393539667127,0.9823262988887727,1.4048182823628186
1782814949364233700,6.649233642578125,0.2850947064757347,1.0318253660731016,1.5332441712677478
1782814949384316700,6.669316650390625,0.2576367907077074,1.1777088779963552,1.5836108150668442
1782814949404399600,6.689399658203125,0.2106751330465078,1.3803037265703082,1.6244222795352339
1782814949424481500,6.7094814453125,0.3374836498826742,1.6983929401531814,1.7774527406036853
1782814949444564500,6.729564453125,0.5187275212615728,1.8171445533923805,2.0639064604729414
1782814949464647400,6.7496474609375,0.3863841666519642,1.8353315135985613,1.9759986060477792
1782814949484730600,6.769730712890625,-0.0365337871491909,1.83900274945721,1.601896559472382
1782814949504813600,6.7898134765625,-0.3511468490540981,1.7507918204322457,1.2408831270508467
1782814949524896500,6.809896484375,-0.40636078675389287,1.7987638241797685,1.1281753970857709
1782814949544978700,6.829978759765625,-0.36849428969621656,1.8883008872419595,1.1068083455387503
1782814949565061600,6.8500615234375,-0.48521512776017184,1.8900275649040936,0.983255250301957
1782814949585144600,6.87014453125,-0.6843418618321419,1.7558545106492935,0.805672385648638
1782814949605227800,6.890227783203125,-0.9547411034792661,1.7001888836592436,0.6945067705590278
1782814949625310700,6.910310791015625,-1.1255284627735613,1.7181024337515234,0.7150635286364704
1782814949645393700,6.9303935546875,-1.068127828684449,1.7824673538953064,0.8547279468491673
1782814949665475600,6.9504755859375,-0.7836106298357248,1.794283902286738,0.9039593030080199
1782814949685558500,6.97055859375,-0.39452714109718795,1.654879669380188,0.879644215310365
1782814949705641700,6.990641845703125,-0.03384031028151512,1.4907956071168182,0.8382200988363474
1782814949725724700,7.010724609375,-0.0034679683715105056,1.4418635261654853,0.8789814405526966
1782814949745807600,7.0308076171875,-0.1408148303568363,1.5514251401245593,0.9682277039747684
1782814949765889500,7.0508896484375,-0.29298224485516544,1.8524251256100832,1.0895650959234684
1782814949785972500,7.070972412109375,-0.3060352031737566,2.0830271943978964,1.3064137299731373
1782814949806055400,7.091055419921875,-0.19153788637816904,2.1031477530151603,1.4110992623284457
1782814949826138600,7.111138671875,-0.2663888369619846,2.013080236338079,1.089360513262078
1782814949846221600,7.1312216796875,-0.48711657746732234,1.8724382783301174,0.4869732965391129
1782814949866304500,7.151304443359375,-0.625310411670804,1.9600702384233473,0.2402327427738346
1782814949886386700,7.17138671875,-0.577661356267333,2.1404531090587375,0.28239392308443784
1782814949906469600,7.1914697265625,-0.34870354755520816,2.2199570000149307,0.3470375871043652
1782814949926552600,7.211552490234375,-0.14500117613077163,2.1562923370949925,0.12039313336852937
1782814949946635800,7.2316357421875,-0.1298877781510353,2.1025097473725674,-0.2736385158292949
1782814949966718700,7.25171875,-0.23436931236684322,2.032186064954847,-0.44116533895768223
1782814949986800600,7.271800537109375,-0.3077034286469221,2.033819219114631,-0.5280510107282549
1782814950006884000,7.291884033203125,-0.376020593547821,2.0954837942585347,-0.5207369613878429
1782814950026967000,7.311967041015625,-0.34856501586735245,2.0919968289256095,-0.6928868412069976
1782814950047050000,7.332050048828125,-0.3379226258218288,1.8912667513102293,-0.9997186015859245
1782814950067133000,7.3521328125,-0.437168597471714,1.6325896577693522,-1.2533617926128209
1782814950087214800,7.37221484375,-0.5800456210553646,1.4363089607782662,-1.4609437819495796
1782814950107297800,7.3922978515625,-0.5392430705457926,1.3008775770254433,-1.5397481463342904
1782814950127381000,7.412381103515625,-0.29446050071418284,1.1296632244907319,-1.625986460112035
1782814950147464000,7.4324638671875,-0.1605839451879263,0.8511259768344461,-1.791108633251488
1782814950167547000,7.452546875,-0.24944237833619115,0.6608664398290216,-1.9111843347012996
1782814950187629800,7.4726298828125,-0.34578152262866496,0.49900180718079207,-1.9042049972079693
1782814950207712000,7.4927119140625,-0.26718027960062024,0.40631957796067,-1.890632837320864
1782814950227795200,7.512795166015625,-0.097000823071599,0.3551800500929355,-1.6821052376970649
1782814950247878100,7.532878173828125,-0.02271978133022785,0.39667905843406914,-1.5131506467878817
1782814950267961000,7.552961181640625,-0.11399053631722926,0.3839857272081077,-1.5518004031777382
1782814950288044000,7.5730439453125,-0.35411329764425753,0.33334655007794495,-1.6224147391051054
1782814950308126000,7.5931259765625,-0.2708563377648592,0.35984628833830357,-1.5888136444069445
1782814950328209000,7.613208984375,0.09822364286482334,0.2947853487543762,-1.518763810494542
1782814950348292000,7.6332919921875,0.32193478309512136,0.1832210166707635,-1.5632856737881897
1782814950368375000,7.653375,0.23351766397356985,0.026011662482470273,-1.6295369922004639
1782814950388458000,7.6734580078125,0.03198737589120865,0.03326397169828415,-1.552768663688004
1782814950408540000,7.693539794921875,-0.026865795093774795,0.11629837486818433,-1.3970568545810877
1782814950428622800,7.713622802734375,0.01717325311899185,0.0935902839757502,-1.3155883855536579
1782814950448705800,7.733705810546875,0.016511574339866636,0.0833680190384388,-1.2409344188466667
1782814950468789000,7.7537890625,0.009063011899590492,0.09602423312440514,-1.1439342533621937
1782814950488872000,7.773871826171875,-0.03952361661493778,0.10533084452152251,-0.9921401291556656
1782814950508954000,7.7939541015625,-0.17745909214317798,0.12461860557645559,-0.9862862154956906
1782814950529037000,7.814037109375,-0.24503449876606462,0.12234306185990572,-1.019749509158358
1782814950549120000,7.8341201171875,-0.183984694519639,0.06734671243354677,-0.9493284307807683
1782814950569203000,7.854202880859375,0.17552900086343287,0.14104761619940398,-0.7612323554195464
1782814950589286100,7.8742861328125,0.827557323589921,0.053167672694474456,-0.5481486268613487
1782814950609368000,7.8943681640625,0.8027367705881595,-0.3100141898073256,-0.4566742390610277
1782814950629451000,7.914450927734375,0.33241876770853995,-0.2416486557200551,-0.5704146000094712
1782814950649534000,7.934533935546875,0.09235562761425971,-0.01386982765942812,-0.41021673152968285
1782814950669617000,7.954616943359375,0.06996493210792541,0.046873248725384474,-0.13043079898655413
1782814950689700000,7.9747001953125,0.1202326455771923,0.032966596186906096,0.0552883911754936
1782814950709782000,7.994781982421875,-0.2185620869040489,-0.04685717437341809,0.053251807313971215
1782814950729865000,8.014864990234376,-0.34736323886215686,-0.08127616132572293,-0.11963478928189723
1782814950749948000,8.034947998046874,-0.11228723953068255,-0.2828264692828059,0.22147351737134158
1782814950770030800,8.05503076171875,0.32647885626554485,0.01885448420420289,0.19170041999612003
1782814950790114000,8.075114013671875,0.19655600680112836,-0.06410699985995888,0.23058429566910488
1782814950810196000,8.095196044921876,0.05830898110568523,-0.4507810893692076,0.3881048164321109
1782814950830279200,8.115279052734374,0.33864275678992267,-0.8375260521575808,0.5114382410362363
1782814950850362000,8.135362060546875,0.5456114365339279,-1.0179793576806784,0.4861423256076872
1782814950870445000,8.155445068359375,0.2707984700977802,-0.959878612498194,0.36097456171587106
1782814950890528000,8.175528076171876,-0.9451356552660465,-0.7125996958062052,0.41708720182105896
1782814950910610000,8.19560986328125,-1.8045616968035696,-0.20328107727244496,0.16892441496662794
1782814950930692900,8.21569287109375,-1.7140999201118945,0.08280717028528452,-0.22938124002227558
1782814950950776000,8.235776123046875,-1.1006570563673972,0.029839696338027712,-0.3106674660842865
1782814950970859000,8.25585888671875,-0.4157780189186334,-0.35509923994168635,0.16065722961984574
1782814950990941700,8.275941650390624,-0.04887187519669532,-0.6058006784282625,0.22252688061548395
1782814951011024000,8.29602392578125,0.39074586899280545,-0.8403020927421748,-0.17358743834160267
1782814951031106800,8.31610693359375,1.182604102692008,-0.8738309989869594,0.07945113785564899
1782814951051190000,8.33618994140625,1.442697638902068,-0.737819623389095,0.8200622916594147
1782814951071273000,8.35627294921875,1.0272422760665416,-0.3941390185624361,0.9356755338076501
1782814951091356000,8.37635595703125,0.7188900281220674,-0.29273586887866254,0.8398043723531067
1782814951111437800,8.396437744140625,0.45041152540445323,-0.48475452451109885,0.7283079909391701
1782814951131520800,8.416520751953126,0.2603998256802559,-0.6614378099761903,0.5757249448446556
1782814951151603700,8.436603759765624,0.0006932429611682891,-0.9695883978687226,0.19849526776801793
1782814951171687000,8.45668701171875,0.06137713650465011,-1.2793364840857684,-0.3929567134426907
1782814951191769900,8.476769775390625,0.18976327792108058,-1.5061366763725876,-0.6065158044276758
1782814951211851800,8.496851806640626,0.06729074446260928,-1.534953167142719,-0.7619880691576749
1782814951231934700,8.516934814453125,0.027975802162289617,-1.3059148405402898,-0.6932444955382495
1782814951252017700,8.537017578125,0.37128362815380095,-1.1556699185371397,-0.2842158412819728
1782814951272100600,8.5571005859375,0.6254658944934606,-1.094482459385693,0.22506165979010984
1782814951292183800,8.577183837890624,0.24456395864486694,-1.0214005643010138,0.4335586633462459
1782814951312266000,8.597265869140625,-0.352454424521327,-0.873657542116195,0.35587665405496954
1782814951332349000,8.617348876953125,-0.585498041242361,-0.7307615215711295,0.40185032359212636
1782814951352431900,8.637431884765626,-0.8682546601593494,-0.6307995106063783,0.5539831782337278
1782814951372514800,8.657514892578124,-1.6271382604956626,-0.3119525374587625,0.5710742329619825
1782814951392596700,8.6775966796875,-2.3857179094493386,0.2200851317528635,0.44684707438852633
1782814951412680000,8.697679931640625,-2.153324865591526,0.42135640357285736,0.36479938070103524
1782814951432763000,8.717762939453126,-1.3046031734198331,0.22858678344264624,0.19273093208763747
1782814951452845800,8.737845703125,-0.19899580116868018,0.0019124094925820827,0.05325863891355693
1782814951472928800,8.7579287109375,0.6332096404880285,-0.05051306653246283,0.058026218641549346
1782814951493010700,8.7780107421875,0.999402667504549,-0.045898850735276935,0.17153423213884234
1782814951513093600,8.79809375,0.892865954324603,0.12325754635632037,0.024340149073675273
1782814951533176800,8.8181767578125,0.5767717139512301,0.17540245187431572,-0.2213995753522962
1782814951553259800,8.838259765625,0.13999825327694415,0.32965032590851184,-0.3079939725587144
1782814951573342000,8.858342041015625,-0.11374620616734027,0.48997664307355876,-0.41411812288239597
1782814951593425000,8.8784248046875,-0.03239595669209957,0.6079137250594795,-0.5769726433508098
1782814951613507800,8.8985078125,0.10158698181807994,0.6405335536353289,-0.5529778005834669
1782814951633590800,8.9185908203125,0.0653951399743557,0.6941079074345529,-0.46609110589958724
1782814951653674000,8.938674072265625,-0.043587212792038914,0.9304965967997908,-0.3552985984386876
1782814951673756000,8.958755859375,0.08131284007430076,0.9601071605570614,-0.2984758373027667
1782814951693838800,8.9788388671875,0.3477852636665106,0.8037444863259792,-0.3841572113174945
1782814951713921800,8.998921875,0.5824357310622931,0.5872757184393703,-0.5286791160313412
1782814951734004700,9.019004638671875,0.43098026422560215,0.46674043665379283,-0.5636734551861882
1782814951754087700,9.039087646484376,0.06416355235278606,0.4420926098704338,-0.5769420290168374
1782814951774169900,9.059169921875,-0.2004804867684841,0.4282946784034371,-0.6367513316828757
1782814951794252800,9.079252685546875,-0.23474808255136012,0.2908538545243442,-0.6635615241318941
1782814951814335700,9.099335693359375,-0.543171642166376,0.18669936030581594,-0.5808351639978587
1782814951834418700,9.119418701171876,-0.9306669849306345,0.2407658815361559,-0.4866316434945911
1782814951854500900,9.1395009765625,-0.8419494215577841,0.32585780175775286,-0.42035413119513537
1782814951874583800,9.159583740234375,-0.18076280986368656,0.12710326199904085,-0.2452658233039081
1782814951894667000,9.1796669921875,0.4058142587870359,-0.14199731813967226,-0.09151837307251989
1782814951914750000,9.19975,0.4767454055786133,-0.3159213680244982,-0.16245229634307323
1782814951934833000,9.2198330078125,0.3817746270298958,-0.38374782679900526,-0.3223940711699426
1782814951954914800,9.239914794921875,0.5798001218616962,-0.42881198027580975,-0.3428507664063945
1782814951974997800,9.259997802734375,0.8437824822038411,-0.43206601363569497,-0.14412284065997227
1782814951995080200,9.280080078125,0.736768799161911,-0.45521687985956666,0.007445164906792342
1782814952015163100,9.3001630859375,0.24445932922661304,-0.44540509541928763,0.008712572760414332
1782814952035274200,9.320274169921875,0.1308680213600397,-0.5199782519750297,-0.026646124461106955
1782814952055328300,9.340328369140625,0.43203766432404517,-0.6828713508881629,0.09283871668977663
1782814952075410200,9.36041015625,0.7256903557866812,-0.845766203366965,0.25306283385567363
1782814952095493000,9.3804931640625,0.6985930900245905,-0.9581824761047959,0.23637480697035787
1782814952115576300,9.400576416015625,0.38671617508530615,-0.9425155358955264,0.1420286265933886
1782814952135659300,9.4206591796875,0.26476386610865593,-0.8582879774183034,0.16549467797996475
1782814952155742200,9.4407421875,0.26829145571291446,-0.8823148958243429,0.18956843120241537
1782814952175824100,9.46082421875,0.03232113789021969,-0.8393656886748969,0.18625579952308907
1782814952195907000,9.480906982421875,-0.33559505965709685,-0.7456542625375091,0.17910417420277372
1782814952215990000,9.500989990234375,-0.5408960984498262,-0.6509951802864671,0.16211570306615902
1782814952236073200,9.5210732421875,-0.4890700496226549,-0.6365304554738104,0.13510951312100514
1782814952256155100,9.541155029296876,-0.291041632181406,-0.6592766864195466,0.05842908208770677
1782814952276238000,9.561238037109375,-0.008408347383141517,-0.6096140992365777,0.012756313459575175
1782814952296321300,9.5813212890625,0.11444938600063323,-0.5757452935129403,0.1340671827275306
1782814952316404200,9.601404296875,0.3346364437580108,-0.46620326103717086,0.300068440256454
1782814952336486100,9.621486083984376,0.5727782604008913,-0.7040807276554405,0.5295584926817566
1782814952356569300,9.6415693359375,0.828959591603279,-0.7593177539698779,0.42163514744900166
1782814952376652300,9.66165234375,0.17266309003829955,-0.781827253550291,0.21111325046913698
1782814952396735200,9.6817353515625,-0.3905044614523649,-0.6015250469356775,-0.021418105880822984
1782814952416818200,9.701818115234374,-0.5092705416083335,-0.39759588101804255,-0.08634031284749508
1782814952436900000,9.721900146484375,-0.6158756438493729,-0.09239990514740347,0.1001625567718409
1782814952456983000,9.741983154296875,-0.637343379291892,0.10199410131424665,0.21021694095022975
1782814952477066200,9.762066162109376,-0.7878413992732762,0.2547603584885597,0.20200583317223936
1782814952497149200,9.782149169921874,-0.9426146123558282,0.42210035380795596,0.14936565495058893
1782814952517231000,9.802231201171875,-0.8965525338828563,0.46361149097830057,-0.011851437041722238
1782814952537314300,9.822314208984375,-0.5347580340862274,0.5062048704273998,-0.057691506794467565
1782814952557397200,9.842397216796876,-0.09000994127094746,0.4693251924499869,-0.03436444375347346
1782814952577480200,9.862480224609374,0.009236614900827408,0.4260425155624747,-0.2879480135476217
1782814952597562000,9.88256201171875,0.03277472687661648,0.3389858711391687,-0.4915330787353217
1782814952617645300,9.902645263671875,-0.03468728249967098,0.4365156865209341,-0.5982173471597955
1782814952637728300,9.922728271484376,0.04719429737329483,0.5205556134715676,-0.6836617706134915
1782814952657811200,9.942811279296874,0.14937924508452416,0.5143094125583768,-0.6315965062029659
1782814952677894100,9.96289404296875,0.033683658415079115,0.5658642432287335,-0.6740275346972048
1782814952697976000,9.98297607421875,-0.011581132200360297,0.6066502809949219,-0.7722010548099875
1782814952718059000,10.00305908203125,-0.08241057218313216,0.6722396283671259,-0.7956997115582227
1782814952738142200,10.02314208984375,-0.10131751722693443,0.7302524030052125,-0.7644985176086425
1782814952758225200,10.04322509765625,-0.05886603046655654,0.7198211714923382,-0.709299558282271
1782814952778307000,10.06330712890625,-0.004991816937923431,0.6645474664293229,-0.6455316541835665
1782814952798390300,10.083390380859376,0.011450783818960189,0.5821291493311525,-0.6763564891014248
1782814952818473200,10.10347314453125,0.0047439796566963194,0.5404220511972904,-0.6597516104549169
1782814952838556400,10.123556396484375,-0.11305413224995135,0.5355450928106904,-0.630711028605327
1782814952858638300,10.143638427734375,-0.20987667614519595,0.4602618882894516,-0.6460309820078313
1782814952878721300,10.16372119140625,-0.19749884060919284,0.22519071126356718,-0.841740454982221
1782814952898804200,10.18380419921875,0.005320318239927292,0.07531856809556484,-0.9436695282362401
1782814952918887200,10.20388720703125,-0.04673077151477337,0.1808035802654922,-0.8143537047542632
1782814952938970000,10.22397021484375,-0.42887189376950263,0.4149744474507868,-0.6648932841923088
1782814952959052000,10.244052001953126,-0.7539613415032624,0.5315799885720014,-0.7317731828317046
1782814952979135200,10.26413525390625,-0.4991653271794319,0.4638704341754317,-0.8404533377811312
1782814952999218400,10.284218505859375,0.3130751848131418,0.17640300721898675,-0.5287316864687949
1782814953019301400,10.30430126953125,0.5626631090998649,0.09642623805403709,-0.3071892685797065
1782814953039383300,10.32438330078125,0.7444418180078267,-0.022390257114917038,-0.3199483950508758
1782814953059466200,10.34446630859375,1.1874462820261715,-0.19868381261005996,-0.3438151179265231
