time,seconds_elapsed,z,y,x
1782815222984993300,0.0789931640625,-0.29368892312049866,-0.3644130825996399,0.322934627532959
1782815223005075200,0.0990751953125,-0.3751138150691986,-0.17922571301460266,0.2072836011648178
1782815223025157000,0.1191572265625,-0.4044617712497711,-0.017667138949036598,0.0949494019150734
1782815223045239300,0.1392392578125,-0.3274818956851959,-0.22415027022361755,-0.0013755694963037968
1782815223065321200,0.1593212890625,-0.3166421949863434,-0.35385942459106445,0.027537358924746513
1782815223085403100,0.179403076171875,-0.3570680320262909,-0.1220310628414154,0.1915227174758911
1782815223105485300,0.1994853515625,-0.3431271016597748,0.12203700840473175,0.30223897099494934
1782815223125567200,0.219567138671875,-0.22978761792182922,0.1087363064289093,0.289703369140625
1782815223145649200,0.239649169921875,-0.13992173969745636,-0.06898891180753708,0.275409460067749
1782815223165731000,0.25973095703125,-0.15351378917694092,-0.1903834044933319,0.2973024249076843
1782815223185813200,0.279813232421875,-0.14647014439105988,-0.2710966467857361,0.29452770948410034
1782815223205895200,0.299895263671875,-0.2318800687789917,-0.31004923582077026,0.17773446440696716
1782815223225977000,0.31997705078125,-0.2603267729282379,-0.16244399547576904,0.0765208899974823
1782815223246059300,0.340059326171875,-0.2193957418203354,0.01353670097887516,0.010788938030600548
1782815223266141400,0.360141357421875,-0.17926262319087982,0.052619993686676025,-0.016721591353416443
1782815223286223400,0.380223388671875,-0.15549665689468384,0.03700394183397293,-0.04047930985689163
1782815223306305500,0.400305419921875,-0.1294904500246048,0.03189816698431969,-0.09595099836587906
1782815223326387500,0.420387451171875,-0.07195410132408142,0.05990244448184967,-0.10387450456619263
1782815223346469400,0.440469482421875,-0.031840480864048004,0.07114825397729874,-0.0292971171438694
1782815223366552300,0.46055224609375,0.03936942666769028,0.09659293293952942,0.03898989036679268
1782815223386633500,0.480633544921875,0.04809964820742607,0.1972709596157074,0.0438845269382
1782815223406716400,0.50071630859375,0.07781058549880981,0.3612387478351593,0.04088539257645607
1782815223426798300,0.52079833984375,0.14571303129196167,0.5494066476821899,-0.011250898241996765
1782815223446880300,0.54088037109375,0.23775990307331085,0.5647748708724976,-0.11501859873533249
1782815223466962400,0.56096240234375,0.28376731276512146,0.5072303414344788,-0.2556217312812805
1782815223487044400,0.58104443359375,0.22219161689281464,0.49680188298225403,-0.4497392177581787
1782815223507126300,0.601126220703125,0.17536121606826782,0.6073703765869141,-0.5792641043663025
1782815223527208400,0.62120849609375,0.20195703208446503,0.5294003486633301,-0.6615175008773804
1782815223547290400,0.641290283203125,0.25502556562423706,0.28880757093429565,-0.6886149048805237
1782815223567372300,0.661372314453125,0.295847088098526,0.1392057090997696,-0.6117437481880188
1782815223587454200,0.6814541015625,0.30281102657318115,0.047076933085918427,-0.4904289245605469
1782815223607536400,0.701536376953125,0.28296053409576416,-0.02062058448791504,-0.46410030126571655
1782815223627618300,0.721618408203125,0.2850981056690216,-0.09136079996824265,-0.5554264187812805
1782815223647700200,0.7417001953125,0.3051268458366394,-0.0778389424085617,-0.5612112879753113
1782815223667782400,0.761782470703125,0.32791370153427124,-0.03362609073519707,-0.4122210741043091
1782815223687864300,0.7818642578125,0.36574140191078186,-0.004631269257515669,-0.16542504727840424
1782815223707946200,0.8019462890625,0.41027700901031494,-0.015532923862338066,0.10983724147081375
1782815223728028400,0.8220283203125,0.4690622091293335,-0.09843503683805466,0.32673487067222595
1782815223748110300,0.8421103515625,0.5441505312919617,-0.18211008608341217,0.46869418025016785
1782815223768192300,0.862192138671875,0.594670832157135,-0.23757094144821167,0.5174468755722046
1782815223788274200,0.882274169921875,0.5542428493499756,-0.17931941151618958,0.4705999493598938
1782815223808356400,0.9023564453125,0.4396819770336151,-0.08401798456907272,0.3707916736602783
1782815223828438300,0.922438232421875,0.3174821138381958,0.10327677428722382,0.23782555758953094
1782815223848520200,0.942520263671875,0.2487184852361679,0.3050228953361511,0.1322356015443802
1782815223868602400,0.962602294921875,0.21154913306236267,0.4893952012062073,0.1320303976535797
1782815223888684500,0.9826845703125,0.08755761384963989,0.5080350637435913,0.13490760326385498
1782815223908766500,1.002766357421875,-0.147071972489357,0.1394718438386917,0.2538958191871643
1782815223928848400,1.022848388671875,-0.26538795232772827,-0.40833815932273865,0.3835912346839905
1782815223948930600,1.0429306640625,-0.45651769638061523,-0.039165809750556946,0.43109244108200073
1782815223969012500,1.063012451171875,-0.48959681391716003,0.1525636464357376,0.35916364192962646
1782815223989094400,1.083094482421875,-0.2005598545074463,-0.18079234659671783,0.33431026339530945
1782815224009176600,1.103176513671875,0.09308787435293198,-0.3535555303096771,0.3010326027870178
1782815224029258500,1.123258544921875,0.2525843679904938,-0.3014007806777954,0.13733772933483124
1782815224049340400,1.14334033203125,0.3319686949253082,-0.12787726521492004,-0.026739181950688362
1782815224069422600,1.163422607421875,0.4300529956817627,-0.014118324965238571,-0.13098567724227905
1782815224089504500,1.18350439453125,0.47069209814071655,-0.048543453216552734,-0.3243069648742676
1782815224109586400,1.20358642578125,0.574295163154602,-0.3317766487598419,-0.5175187587738037
1782815224129668400,1.22366845703125,0.6024152636528015,-0.5965897440910339,-0.5644700527191162
1782815224149750500,1.24375048828125,0.5301849842071533,-0.6977476477622986,-0.507888674736023
1782815224169832400,1.26383251953125,0.4932456314563751,-0.6293874979019165,-0.5512018203735352
1782815224189914400,1.283914306640625,0.48743054270744324,-0.35726499557495117,-0.5531111359596252
1782815224209996500,1.30399658203125,0.462271511554718,-0.004792470484972,-0.5617146492004395
1782815224230078500,1.324078369140625,0.48079535365104675,0.3539116680622101,-0.4439203441143036
1782815224250160400,1.344160400390625,0.5282371044158936,0.7636871933937073,-0.34009724855422974
1782815224270241800,1.36424169921875,0.6110039949417114,0.9901756048202515,-0.32190316915512085
1782815224290323700,1.38432373046875,0.6103866100311279,0.8016772866249084,-0.30720028281211853
1782815224310405600,1.404405517578125,0.5248181223869324,0.4245627224445343,-0.2583446800708771
1782815224330487800,1.42448779296875,0.42275914549827576,0.006234726402908564,-0.23747481405735016
1782815224350569700,1.44456982421875,0.32275137305259705,-0.2483026385307312,-0.1657005399465561
1782815224370651600,1.464651611328125,0.22222882509231567,-0.28942152857780457,-0.06808710098266602
1782815224390733800,1.48473388671875,0.11732769757509232,-0.19850201904773712,-0.002637258730828762
1782815224410815700,1.504815673828125,0.004852354526519775,-0.03810564801096916,0.03294689580798149
1782815224430897700,1.524897705078125,-0.08575186878442764,0.1479114443063736,0.07177168130874634
1782815224450979600,1.5449794921875,-0.10661729425191879,0.3512803018093109,0.15308739244937897
1782815224471061800,1.565061767578125,-0.057579975575208664,0.5929692983627319,0.21687862277030945
1782815224491143700,1.585143798828125,0.01589084602892399,0.7278155088424683,0.23421610891819
1782815224511225600,1.6052255859375,0.08034346997737885,0.644573450088501,0.22057504951953888
1782815224531307800,1.625307861328125,0.08680297434329987,0.36515629291534424,0.15827755630016327
1782815224551389700,1.6453896484375,0.02272794581949711,-0.001430845819413662,0.10197268426418304
1782815224571472000,1.665471923828125,-0.09491848200559616,-0.23595775663852692,0.09531340003013611
1782815224591554000,1.685553955078125,-0.2102040797472,-0.26911279559135437,0.0686827301979065
1782815224611636000,1.705635986328125,-0.28148210048675537,-0.23088735342025757,0.05804376304149628
1782815224631718000,1.7257177734375,-0.28462037444114685,-0.19441749155521393,0.024261830374598503
1782815224651799800,1.7457998046875,-0.21372763812541962,-0.1749195009469986,-0.04981658607721329
1782815224671882000,1.765882080078125,-0.1398908942937851,-0.09473689645528793,-0.12375889718532562
1782815224691965000,1.78596484375,-0.13953055441379547,0.07971621304750443,-0.1993587762117386
1782815224712046800,1.806046875,-0.11833658069372177,0.2798805832862854,-0.2603107988834381
1782815224732128800,1.826128662109375,-0.020588312298059464,0.28883126378059387,-0.3325957655906677
1782815224752211000,1.8462109375,0.044654540717601776,0.18587155640125275,-0.3447486460208893
1782815224772292900,1.86629296875,0.09908243268728256,0.041527848690748215,-0.2734552025794983
1782815224792374800,1.886374755859375,0.16980910301208496,-0.1625530868768692,-0.18729887902736664
1782815224812457000,1.90645703125,0.22713136672973633,-0.31547847390174866,-0.11608079075813293
1782815224832539000,1.926538818359375,0.2841559648513794,-0.3718958795070648,-0.0819937065243721
1782815224852620800,1.946620849609375,0.33470460772514343,-0.38440459966659546,-0.0685255154967308
1782815224872702700,1.96670263671875,0.3467617630958557,-0.31601712107658386,-0.07021930813789368
1782815224892785000,1.986784912109375,0.3321029543876648,-0.17727795243263245,-0.08675263077020645
1782815224912866800,2.00686669921875,0.30370140075683594,-0.045158807188272476,-0.0914888009428978
1782815224932948700,2.02694873046875,0.2753065228462219,0.03292241320014,-0.04060325026512146
1782815224953031000,2.047031005859375,0.276925653219223,0.11068747192621231,0.033527374267578125
1782815224973112800,2.06711279296875,0.30966073274612427,0.13565872609615326,0.06131022423505783
1782815224993194800,2.08719482421875,0.34196949005126953,0.08354602009057999,0.09220987558364868
1782815225013277000,2.10727685546875,0.3494988977909088,0.018831131979823112,0.1690121293067932
1782815225033358800,2.12735888671875,0.3482682704925537,-0.08751474320888519,0.21948543190956116
1782815225053440800,2.147440673828125,0.310857892036438,-0.0969383493065834,0.23511527478694916
1782815225073522700,2.167522705078125,0.21738898754119873,-0.08411262929439545,0.1917092502117157
1782815225093604900,2.18760498046875,0.09839155524969101,-0.13973814249038696,0.17539849877357483
1782815225113686800,2.207686767578125,0.0039384933188557625,-0.15081122517585754,0.230929896235466
1782815225133768700,2.227768798828125,-0.046845946460962296,-0.02038474939763546,0.3483825922012329
1782815225153851000,2.247850830078125,-0.04537423700094223,0.10876403003931046,0.4131524860858917
1782815225173932800,2.267932861328125,-0.04205339029431343,0.07241934537887573,0.39857110381126404
1782815225194014700,2.2880146484375,-0.09308037161827087,-0.18361811339855194,0.3165251314640045
1782815225214097000,2.308096923828125,-0.19074833393096924,-0.2809869945049286,0.2566317021846771
1782815225234178800,2.3281787109375,-0.27055203914642334,-0.2755686044692993,0.1648067682981491
1782815225254260700,2.3482607421875,-0.3495756685733795,-0.2909044325351715,0.05044354125857353
1782815225274342700,2.3683427734375,-0.368827760219574,-0.317062109708786,-0.004740404896438122
1782815225294424800,2.3884248046875,-0.3512268364429474,-0.2548736333847046,0.06702180951833725
1782815225314506800,2.4085068359375,-0.3172927498817444,-0.0641595795750618,0.17201700806617737
1782815225334588700,2.428588623046875,-0.26130664348602295,0.09551136940717697,0.18708914518356323
1782815225354670800,2.4486708984375,-0.2127690464258194,0.05752439424395561,0.15774355828762054
1782815225374752800,2.468752685546875,-0.15844815969467163,-0.04234910383820534,0.17477959394454956
1782815225394834700,2.488834716796875,-0.11491420865058899,-0.149140864610672,0.2212720364332199
1782815225414916900,2.508916748046875,-0.07874225080013275,-0.233491912484169,0.29943156242370605
1782815225434998800,2.528998779296875,-0.07051940262317657,-0.20163147151470184,0.3597005605697632
1782815225455080700,2.549080810546875,-0.12047633528709412,-0.19464948773384094,0.2835819721221924
1782815225475162600,2.56916259765625,-0.17002831399440765,-0.08004264533519745,0.11983837932348251
1782815225495245600,2.58924560546875,-0.21031981706619263,0.05250631645321846,-0.055210333317518234
1782815225515326700,2.60932666015625,-0.2657294273376465,0.0997583195567131,-0.15717832744121552
1782815225535409700,2.62940966796875,-0.3281313180923462,0.11659695208072662,-0.14909207820892334
1782815225555491600,2.64949169921875,-0.38311803340911865,0.10476677864789963,-0.09100314229726791
1782815225575573800,2.66957373046875,-0.4535828232765198,0.09878851473331451,-0.035348568111658096
1782815225595655700,2.68965576171875,-0.5167123675346375,0.03968926519155502,-0.03626452758908272
1782815225615737600,2.709737548828125,-0.5679360032081604,-0.02320229634642601,-0.06452866643667221
1782815225635819800,2.72981982421875,-0.6165267825126648,-0.05808030441403389,-0.12774641811847687
1782815225655901700,2.749901611328125,-0.6527391076087952,-0.0419183112680912,-0.2258157730102539
1782815225675983600,2.769983642578125,-0.7054625153541565,-0.10824840515851974,-0.31835708022117615
1782815225696065800,2.790065673828125,-0.8131993412971497,-0.2925070524215698,-0.464486300945282
1782815225716147700,2.810147705078125,-0.925085186958313,-0.4574696719646454,-0.6143967509269714
1782815225736229600,2.830229736328125,-0.946289598941803,-0.5179346203804016,-0.657480001449585
1782815225756311600,2.8503115234375,-0.8329217433929443,-0.4727814197540283,-0.4968468248844147
1782815225776393700,2.870393798828125,-0.6873522400856018,-0.3234286606311798,-0.23988421261310577
1782815225796476000,2.890475830078125,-0.5898752212524414,-0.1105559915304184,-0.04729276895523071
1782815225816557800,2.910557861328125,-0.6092975735664368,-0.002865138463675976,0.029045801609754562
1782815225836640000,2.930639892578125,-0.6704201698303223,0.05682546645402908,0.04783811792731285
1782815225856722000,2.950721923828125,-0.672401487827301,0.0830434113740921,-0.013317734934389591
1782815225876803800,2.970803955078125,-0.6104406714439392,0.10200237482786179,-0.08731356263160706
1782815225896885800,2.9908857421875,-0.5340056419372559,0.09323270618915558,-0.1264684945344925
1782815225916968000,3.010968017578125,-0.49478983879089355,0.04029788821935654,-0.14393261075019836
1782815225937049900,3.0310498046875,-0.5060036778450012,-0.05912591516971588,-0.1959342211484909
1782815225957131800,3.0511318359375,-0.5392574071884155,-0.1054472103714943,-0.24793842434883118
1782815225977214000,3.0712138671875,-0.5541322231292725,-0.028002118691802025,-0.2513802647590637
1782815225997295900,3.0912958984375,-0.5312600135803223,0.11836107075214386,-0.20365490019321442
1782815226017377800,3.111377685546875,-0.5073274374008179,0.19057992100715637,-0.13927127420902252
1782815226037460000,3.1314599609375,-0.4939744770526886,0.136209636926651,-0.11450430005788803
1782815226057542000,3.1515419921875,-0.41444072127342224,0.13923823833465576,-0.07289474457502365
1782815226077623800,3.171623779296875,-0.369606614112854,0.1284777671098709,0.002575838938355446
1782815226097705700,3.191705810546875,-0.3372173607349396,0.07401267439126968,0.09289025515317917
1782815226117788000,3.211787841796875,-0.29730045795440674,0.1018654927611351,0.201176255941391
1782815226137869800,3.231869873046875,-0.23396052420139313,0.1681511104106903,0.32606565952301025
1782815226157952800,3.251952880859375,-0.15068095922470093,0.2936547100543976,0.4240111708641052
1782815226178034700,3.27203466796875,-0.1247725784778595,0.389242947101593,0.4329124093055725
1782815226198116900,3.292116943359375,-0.17641393840312958,0.26848217844963074,0.3355981111526489
1782815226218198800,3.31219873046875,-0.22195319831371307,0.07047431170940399,0.20985935628414154
1782815226238280700,3.33228076171875,-0.2600923478603363,-0.13450326025485992,0.11725075542926788
1782815226258363000,3.35236279296875,-0.25575828552246094,-0.23417383432388306,0.10719048976898193
1782815226278444800,3.37244482421875,-0.21362128853797913,-0.1806783378124237,0.13130536675453186
1782815226298526700,3.392526611328125,-0.11948433518409729,-0.05965165048837662,0.12978219985961914
1782815226318608600,3.412608642578125,0.005496399477124214,0.08639587461948395,0.1116565465927124
1782815226338690800,3.43269091796875,0.11947443336248398,0.08504994958639145,-0.008654091507196426
1782815226358772700,3.452772705078125,0.15759213268756866,-0.08482756465673447,-0.20208846032619476
1782815226378854700,3.472854736328125,0.08704277127981186,-0.21702800691127777,-0.28982195258140564
1782815226398936800,3.492936767578125,0.013537818565964699,-0.32381027936935425,-0.17828771471977234
1782815226419018800,3.513018798828125,0.07306698709726334,-0.2879670560359955,0.14035269618034363
1782815226439100700,3.5331005859375,0.20157288014888763,-0.0555129200220108,0.4627784490585327
1782815226459182800,3.553182861328125,0.31648433208465576,0.161839559674263,0.5542541742324829
1782815226479264800,3.5732646484375,0.2984185516834259,0.11043580621480942,0.4264736473560333
1782815226499346700,3.5933466796875,0.15017923712730408,-0.1812133938074112,0.24052873253822327
1782815226519428600,3.6134287109375,-0.07765425741672516,-0.5073131322860718,0.10115568339824677
1782815226539510800,3.6335107421875,-0.26382189989089966,-0.725924015045166,-0.00389996450394392
1782815226559592700,3.6535927734375,-0.4059302508831024,-0.7911874651908875,-0.03985206410288811
1782815226579674600,3.673674560546875,-0.5076685547828674,-0.7486764192581177,0.01958990842103958
1782815226599756800,3.6937568359375,-0.5615947246551514,-0.7023836970329285,0.18383893370628357
1782815226619838700,3.713838623046875,-0.4873647093772888,-0.7475506663322449,0.34112149477005005
1782815226639920600,3.733920654296875,-0.3711448013782501,-0.7089114785194397,0.46452999114990234
1782815226660002800,3.7540029296875,-0.2509308457374573,-0.5634211897850037,0.4492247700691223
1782815226680085800,3.774085693359375,-0.144945427775383,-0.291185587644577,0.2984795570373535
1782815226700167700,3.794167724609375,-0.09768062084913254,0.009204141795635223,0.02709406241774559
1782815226720249600,3.81424951171875,-0.13319708406925201,0.2859083116054535,-0.2715379297733307
1782815226740331800,3.834331787109375,-0.18920575082302094,0.42513900995254517,-0.4966304302215576
1782815226760414000,3.8544140625,-0.18201692402362823,0.4852139949798584,-0.6374446749687195
1782815226780496000,3.874495849609375,-0.1381349414587021,0.45393723249435425,-0.6829957365989685
1782815226800577800,3.894577880859375,-0.08620210736989975,0.43897461891174316,-0.6282527446746826
1782815226820660000,3.914659912109375,-0.029310986399650574,0.3885193169116974,-0.5169636011123657
1782815226840742000,3.934741943359375,0.00003597000613808632,0.28522825241088867,-0.37613144516944885
1782815226860823800,3.95482373046875,0.02552892081439495,0.19021163880825043,-0.24542830884456635
1782815226880906000,3.974906005859375,0.08622220158576965,0.12917561829090118,-0.15602897107601166
1782815226900988000,3.99498779296875,0.16149602830410004,0.05127334222197533,-0.11967484652996063
1782815226921069800,4.01506982421875,0.19924812018871307,-0.029476594179868698,-0.0959065780043602
1782815226941151700,4.03515185546875,0.20550739765167236,-0.09111800044775009,-0.029549971222877502
1782815226961234000,4.05523388671875,0.19310231506824493,-0.11547915637493134,0.03833392262458801
1782815226981315800,4.07531591796875,0.16017775237560272,-0.12256599962711334,0.049188826233148575
1782815227001397800,4.095397705078125,0.1351097971200943,-0.10916668176651001,0.03927548974752426
1782815227021480000,4.11547998046875,0.1496070921421051,-0.09348972141742706,0.07908925414085388
1782815227041561900,4.135561767578125,0.19305841624736786,-0.07782431691884995,0.12387321889400482
1782815227061643800,4.155643798828125,0.22918492555618286,-0.10735749453306198,0.11864303052425385
1782815227081726000,4.175725830078125,0.24240389466285706,-0.1557697057723999,0.10429411381483078
1782815227101807900,4.195807861328125,0.22098436951637268,-0.20159433782100677,0.05318914353847504
1782815227121889800,4.215889892578125,0.15844789147377014,-0.13190722465515137,-0.07328130304813385
1782815227141972700,4.23597265625,0.07491311430931091,0.037810299545526505,-0.23148012161254883
1782815227162054700,4.2560546875,0.03643469512462616,0.19255049526691437,-0.350036084651947
1782815227182136800,4.27613671875,0.04492901265621185,0.28099483251571655,-0.4465641975402832
1782815227202218800,4.29621875,0.07315951585769653,0.3250390887260437,-0.49175360798835754
1782815227222300700,4.31630078125,0.07292105257511139,0.30442607402801514,-0.48723024129867554
1782815227242382800,4.3363828125,0.05072499439120293,0.2669393718242645,-0.3978636562824249
1782815227262464800,4.35646484375,0.029639912769198418,0.2817569375038147,-0.25798603892326355
1782815227282546400,4.37654638671875,0.049330297857522964,0.32803601026535034,-0.15837009251117706
1782815227302628600,4.396628662109375,0.07376693189144135,0.3212445378303528,-0.1159660816192627
1782815227322710500,4.41671044921875,0.0892268642783165,0.2598324120044708,-0.09759984165430069
1782815227342792400,4.43679248046875,0.08303096145391464,0.1869867444038391,-0.021396387368440628
1782815227362874600,4.45687451171875,0.07105866074562073,0.07046540826559067,0.125265970826149
1782815227382956500,4.47695654296875,0.08523160964250565,-0.030650371685624123,0.2778697609901428
1782815227403038500,4.49703857421875,0.10431995987892151,-0.14983651041984558,0.3850027620792389
1782815227423120400,4.517120361328125,0.12901435792446136,-0.21539396047592163,0.4342647194862366
1782815227443202600,4.53720263671875,0.15101495385169983,-0.31936097145080566,0.4275487959384918
1782815227463284500,4.557284423828125,0.13669106364250183,-0.454743891954422,0.3793224096298218
1782815227483366400,4.577366455078125,0.07263565808534622,-0.5657287240028381,0.340242862701416
1782815227503448600,4.597448486328125,-0.0030055507086217403,-0.5085715055465698,0.3755556643009186
1782815227523531500,4.617531494140625,-0.01190518494695425,-0.3138374388217926,0.4340803325176239
1782815227543613400,4.637613525390625,0.08376438170671463,-0.09316974133253098,0.40924569964408875
1782815227563695400,4.6576953125,0.21495968103408813,0.06503214687108994,0.25116604566574097
1782815227583777500,4.677777587890625,0.3014228343963623,0.19515903294086456,0.09701679646968842
1782815227603859500,4.697859375,0.29848212003707886,0.24235126376152039,-0.06496444344520569
1782815227623941400,4.71794140625,0.2170669585466385,0.25275954604148865,-0.20213893055915833
1782815227644023300,4.738023193359375,0.15644916892051697,0.30437809228897095,-0.2967913746833801
1782815227664105500,4.75810546875,0.1790432184934616,0.2978273034095764,-0.4145757555961609
1782815227684187400,4.7781875,0.2940949499607086,0.2797543704509735,-0.47319281101226807
1782815227704269300,4.798269287109375,0.3842041492462158,0.26382625102996826,-0.4437207877635956
1782815227724351500,4.8183515625,0.4388086795806885,0.11783803254365921,-0.368754118680954
1782815227744433400,4.838433349609375,0.5135495066642761,-0.023362666368484497,-0.25253987312316895
1782815227764515300,4.858515380859375,0.5711977481842041,-0.0691516175866127,-0.11649630218744278
1782815227784597800,4.87859765625,0.6212897896766663,-0.12143030017614365,-0.022944338619709015
1782815227804679700,4.8986796875,0.7134647965431213,-0.16866275668144226,0.0064226663671433926
1782815227824761600,4.91876171875,0.7874575257301331,-0.1347932070493698,0.00811084359884262
1782815227844843500,4.938843505859375,0.8772944808006287,-0.08532091975212097,0.010292662307620049
1782815227864925700,4.95892578125,0.9216145873069763,-0.18089458346366882,0.05009976401925087
1782815227885007600,4.979007568359375,0.8819911479949951,-0.33620136976242065,0.13026873767375946
1782815227905090600,4.999090576171875,0.78582763671875,-0.41488319635391235,0.24361930787563324
1782815227925172500,5.01917236328125,0.6819185018539429,-0.2462114691734314,0.30757278203964233
1782815227945254700,5.039254638671875,0.6469786167144775,-0.04368413984775543,0.3095746338367462
1782815227965336600,5.059336669921875,0.6133058667182922,0.011000679805874825,0.31256189942359924
1782815227985418500,5.07941845703125,0.5929912328720093,0.027632614597678185,0.33134031295776367
1782815228005500700,5.099500732421875,0.5998218655586243,0.08266545087099075,0.353582501411438
1782815228025582600,5.11958251953125,0.628230094909668,0.12671512365341187,0.3925590515136719
1782815228045664500,5.13966455078125,0.6301662921905518,0.10545666515827179,0.417885422706604
1782815228065746400,5.159746337890625,0.5978540182113647,0.10061958432197571,0.38289082050323486
1782815228085828600,5.17982861328125,0.5775075554847717,0.18675100803375244,0.3040895462036133
1782815228105910500,5.19991064453125,0.5771185159683228,0.24535970389842987,0.2188974767923355
1782815228125992400,5.219992431640625,0.575917661190033,0.2646859586238861,0.16169683635234833
1782815228146074600,5.24007470703125,0.6087583899497986,0.24486708641052246,0.11322394013404846
1782815228166156500,5.260156494140625,0.6396740674972534,0.26350387930870056,0.0577424094080925
1782815228186238500,5.280238525390625,0.6424567699432373,0.3435686528682709,0.045317456126213074
1782815228206320600,5.300320556640625,0.6622593402862549,0.37848928570747375,0.059039074927568436
1782815228226402600,5.320402587890625,0.6911852359771729,0.3619815707206726,0.045384760946035385
1782815228246484500,5.340484375,0.7189084887504578,0.27068081498146057,-0.01591017097234726
1782815228266566400,5.36056640625,0.7264510989189148,0.1632712036371231,-0.07292867451906204
1782815228286649300,5.3806494140625,0.732383668422699,0.18337413668632507,-0.06141990050673485
1782815228306731300,5.400731201171875,0.7545454502105713,0.27757522463798523,-0.03738793358206749
1782815228326813200,5.420813232421875,0.7608199119567871,0.3188974857330322,-0.07464154809713364
1782815228346895000,5.44089501953125,0.7519298791885376,0.30380579829216003,-0.17833344638347626
1782815228366977300,5.460977294921875,0.7432072758674622,0.22746551036834717,-0.29297199845314026
1782815228387059200,5.48105908203125,0.6760900020599365,0.059127077460289,-0.3835481107234955
1782815228407141000,5.50114111328125,0.5803515315055847,-0.07879625260829926,-0.4000539779663086
1782815228427223300,5.521223388671875,0.5127336382865906,-0.13326632976531982,-0.367997407913208
1782815228447305200,5.54130517578125,0.49096977710723877,-0.04584689810872078,-0.31473308801651
1782815228467387100,5.56138720703125,0.5290334820747375,0.20082800090312958,-0.2652738392353058
1782815228487469300,5.58146923828125,0.5851457715034485,0.4220680594444275,-0.24740366637706757
1782815228507551200,5.60155126953125,0.6118975281715393,0.5542673468589783,-0.23024950921535492
1782815228527633200,5.621633056640625,0.6060115098953247,0.5991259813308716,-0.22999133169651031
1782815228547716400,5.64171630859375,0.5882378816604614,0.5152757167816162,-0.2618032991886139
1782815228567798300,5.66179833984375,0.5816437602043152,0.31280797719955444,-0.27232521772384644
1782815228587880400,5.68188037109375,0.5771338939666748,0.05630524456501007,-0.20663778483867645
1782815228607962400,5.70196240234375,0.5474541783332825,-0.11440108716487885,-0.08326444029808044
1782815228628044300,5.722044189453125,0.5036953687667847,-0.1330910176038742,0.008713534101843834
1782815228648126500,5.74212646484375,0.44400936365127563,-0.07672294974327087,0.021703215315937996
1782815228668208400,5.76220849609375,0.375549852848053,-0.02221737988293171,-0.0269452091306448
1782815228688290300,5.782290283203125,0.28522244095802307,-0.05277842655777931,-0.10628637671470642
1782815228708372500,5.80237255859375,0.1833840161561966,-0.14121025800704956,-0.1613481640815735
1782815228728454400,5.822454345703125,0.09558217227458954,-0.14713451266288757,-0.15496377646923065
1782815228748536300,5.842536376953125,0.017562681809067726,-0.18583056330680847,-0.1173621267080307
1782815228768618200,5.8626181640625,-0.0662040263414383,-0.2652968168258667,-0.028149764984846115
1782815228788700400,5.882700439453125,-0.10703279823064804,-0.24447230994701385,0.08066501468420029
1782815228808782300,5.9027822265625,-0.09995464980602264,-0.1559421718120575,0.13180676102638245
1782815228828865300,5.922865234375,-0.08466775715351105,-0.08159971237182617,0.10123658180236816
1782815228848947200,5.942947265625,-0.10453598201274872,-0.13242098689079285,0.009557555429637432
1782815228869029400,5.963029296875,-0.18331478536128998,-0.23469477891921997,-0.06966537237167358
1782815228889111300,5.983111328125,-0.25675293803215027,-0.29889366030693054,-0.09773257374763489
1782815228909193200,6.003193115234375,-0.2749587297439575,-0.14153414964675903,0.0019320735009387136
1782815228929275400,6.023275390625,-0.2396756410598755,0.10778862237930298,0.20102210342884064
1782815228949357300,6.043357421875,-0.19436593353748322,0.3069775700569153,0.3760930001735687
1782815228969439200,6.063439208984375,-0.18817901611328125,0.3624884784221649,0.4620135426521301
1782815228989521200,6.083521240234375,-0.22646945714950562,0.2916903495788574,0.4449195861816406
1782815229009603300,6.103603271484375,-0.3009631633758545,0.17388753592967987,0.34480005502700806
1782815229029685200,6.123685302734375,-0.38078880310058594,0.11153508722782135,0.23729579150676727
1782815229049767200,6.14376708984375,-0.4462216794490814,0.06754343211650848,0.1343383491039276
1782815229069849300,6.163849365234375,-0.48861077427864075,0.021479211747646332,0.07911771535873413
1782815229089932300,6.183932373046875,-0.5190305113792419,-0.015920717269182205,0.07099657505750656
1782815229110014200,6.20401416015625,-0.5596681833267212,-0.04950824752449989,0.07662230730056763
1782815229130096000,6.22409619140625,-0.5940806865692139,-0.05897822976112366,0.07475113868713379
1782815229150178300,6.24417822265625,-0.607268214225769,0.01738653890788555,0.08198662847280502
1782815229170260200,6.26426025390625,-0.5938630700111389,0.18200556933879852,0.08938651531934738
1782815229190342100,6.284342041015625,-0.5813587307929993,0.3167702257633209,0.05068457871675491
1782815229210424000,6.304424072265625,-0.5607666969299316,0.2953038513660431,-0.05742136016488075
1782815229230506200,6.32450634765625,-0.5041733980178833,0.23459942638874054,-0.17718040943145752
1782815229250588200,6.344588134765625,-0.4408135712146759,0.10875259339809418,-0.2997291684150696
1782815229270671000,6.364671142578125,-0.39806410670280457,-0.024517841637134552,-0.3787313401699066
1782815229290753000,6.3847529296875,-0.35330724716186523,-0.061804480850696564,-0.3887190818786621
1782815229310835200,6.404835205078125,-0.28091564774513245,-0.007491986732929945,-0.33594897389411926
1782815229330917000,6.424917236328125,-0.18633055686950684,0.09220841526985168,-0.22540898621082306
1782815229350999000,6.4449990234375,-0.06533849984407425,0.13346220552921295,-0.11921344697475433
1782815229371082000,6.46508203125,0.030276931822299957,0.09634879976511002,-0.044380441308021545
1782815229391164200,6.4851640625,0.07544709742069244,0.00851447694003582,-0.011123842559754848
1782815229411246000,6.50524609375,0.08085884153842926,-0.08836275339126587,-0.02115727588534355
1782815229431328000,6.525327880859375,0.05990322679281235,-0.15925593674182892,-0.09343608468770981
1782815229451410200,6.54541015625,0.03914755582809448,-0.17772676050662994,-0.20208370685577393
1782815229471492000,6.5654921875,0.016694342717528343,-0.14128564298152924,-0.295738160610199
1782815229491574000,6.585573974609375,-0.0017219922738149762,-0.09809266030788422,-0.35470303893089294
1782815229511656000,6.605656005859375,-0.0030655772425234318,-0.04504081606864929,-0.3523782193660736
1782815229531738000,6.625738037109375,0.029708048328757286,0.00891914777457714,-0.2850109338760376
1782815229551820000,6.645820068359375,0.07884524762630463,0.04051366448402405,-0.18754374980926514
1782815229571902000,6.66590185546875,0.14376550912857056,0.05192609876394272,-0.09284356981515884
1782815229591984000,6.685984130859375,0.2193649262189865,0.04374762251973152,-0.005575153976678848
1782815229612067000,6.706067138671875,0.27806776762008667,0.015220897272229195,0.07433169335126877
1782815229632149000,6.72614892578125,0.2890794277191162,-0.003911783918738365,0.12192744016647339
1782815229652231000,6.74623095703125,0.28648898005485535,0.004397645592689514,0.1337609589099884
1782815229672313000,6.76631298828125,0.27969664335250854,0.0037934170104563236,0.11951576918363571
1782815229692395000,6.78639501953125,0.2647324800491333,0.006098640151321888,0.09393347799777985
1782815229712477000,6.806476806640625,0.24301400780677795,0.007833432406187057,0.0668264627456665
1782815229732558800,6.826558837890625,0.2395596206188202,-0.003938805311918259,0.06729651242494583
1782815229752641000,6.84664111328125,0.2497754991054535,-0.06611722707748413,0.11364643275737762
1782815229772723000,6.866722900390625,0.2660318911075592,-0.054383836686611176,0.19917288422584534
1782815229792804900,6.886804931640625,0.2643297016620636,0.023358609527349472,0.2794928550720215
1782815229812887000,6.906886962890625,0.24088174104690552,0.07152212411165237,0.27198708057403564
1782815229832969000,6.926968994140625,0.20275364816188812,0.02537068910896778,0.19266043603420258
1782815229853051000,6.94705078125,0.1485007405281067,0.0693596750497818,0.15182827413082123
1782815229873134000,6.967134033203125,0.11137980967760086,0.1421598196029663,0.1445832997560501
1782815229893216300,6.98721630859375,0.08788862824440002,0.13419821858406067,0.14026324450969696
1782815229913298200,7.007298095703125,0.08316177874803543,0.0703987330198288,0.14286169409751892
1782815229933380000,7.027380126953125,0.06622596085071564,-0.010844092816114426,0.1373681277036667
1782815229953462000,7.0474619140625,0.02752045728266239,-0.04670562595129013,0.1440606564283371
1782815229973544200,7.067544189453125,0.0024049694184213877,-0.05288160219788551,0.14628995954990387
1782815229993626000,7.087626220703125,-0.001408127136528492,-0.03489300236105919,0.17739242315292358
1782815230013708000,7.1077080078125,-0.0040749297477304935,0.0053869145922362804,0.24245086312294006
1782815230033790200,7.127790283203125,-0.008258756250143051,-0.00699465349316597,0.28012633323669434
1782815230053872000,7.1478720703125,-0.009390212595462799,-0.051972780376672745,0.28077271580696106
1782815230073954000,7.1679541015625,-0.03771207109093666,-0.08820725977420807,0.23968277871608734
1782815230094036200,7.1880361328125,-0.07604321837425232,-0.07142970710992813,0.19048957526683807
1782815230114119200,7.208119140625,-0.11509080976247787,-0.002118493663147092,0.13971032202243805
1782815230134201000,7.228201171875,-0.1326000690460205,0.06996676325798035,0.07598570734262466
1782815230154283000,7.248282958984375,-0.14248448610305786,0.05896252393722534,0.04980931058526039
1782815230174365000,7.268364990234375,-0.15150515735149384,0.0020842324011027813,0.057861555367708206
1782815230194447000,7.288447021484375,-0.16925938427448273,-0.06738884747028351,0.051531221717596054
1782815230214529000,7.308529052734375,-0.18999835848808289,-0.1137600839138031,0.0015794096980243921
1782815230234611000,7.32861083984375,-0.21252669394016266,-0.11562632769346237,-0.08059556782245636
1782815230254693000,7.348693115234375,-0.22360819578170776,-0.09047070145606995,-0.14336466789245605
1782815230274774300,7.368774169921875,-0.22488035261631012,-0.002485527191311121,-0.17619360983371735
1782815230294856200,7.388856201171875,-0.21702587604522705,0.09305556118488312,-0.19095727801322937
1782815230314938400,7.4089384765625,-0.22699803113937378,0.1133536845445633,-0.16712084412574768
1782815230335020300,7.429020263671875,-0.22549259662628174,0.06110607832670212,-0.10511016100645065
1782815230355103500,7.449103515625,-0.19591541588306427,0.013345910236239433,-0.022581983357667923
1782815230375185400,7.469185302734375,-0.17204008996486664,-0.012107379734516144,0.03480495885014534
1782815230395267600,7.489267578125,-0.18459823727607727,-0.016270190477371216,0.037472184747457504
1782815230415349500,7.509349609375,-0.20672039687633514,0.007712258491665125,-0.01377597451210022
1782815230435431400,7.529431396484375,-0.2254287451505661,0.028071200475096703,-0.08926212787628174
1782815230455513600,7.549513671875,-0.24203291535377502,0.020962581038475037,-0.16473716497421265
1782815230475595500,7.569595458984375,-0.26423680782318115,0.010618927888572216,-0.2263912558555603
1782815230495677400,7.589677490234375,-0.29550614953041077,-0.0377747006714344,-0.2935684323310852
1782815230515759400,7.60975927734375,-0.33914798498153687,-0.10474196821451187,-0.36583757400512695
1782815230535841500,7.629841552734375,-0.36123865842819214,-0.09647739678621292,-0.3730791509151459
1782815230555923500,7.64992333984375,-0.3288396894931793,0.01134009100496769,-0.28683745861053467
1782815230576006400,7.67000634765625,-0.23241716623306274,0.19268125295639038,-0.12736062705516815
1782815230596088300,7.69008837890625,-0.1650964468717575,0.279490202665329,0.008690958842635155
1782815230616170500,7.71017041015625,-0.157192662358284,0.17594920098781586,0.05568728968501091
1782815230636252400,7.73025244140625,-0.15717992186546326,0.08326760679483414,0.05491076037287712
1782815230656334300,7.750334228515625,-0.1768627017736435,-0.0328841358423233,0.009225044399499893
1782815230676416500,7.77041650390625,-0.21092580258846283,-0.12480133026838303,-0.03663434833288193
1782815230696498400,7.79049853515625,-0.21465285122394562,-0.2211146056652069,-0.07679691165685654
1782815230716580400,7.810580322265625,-0.20363779366016388,-0.29615601897239685,-0.045951224863529205
1782815230736662300,7.830662353515625,-0.24316999316215515,-0.39449653029441833,0.014783606864511967
1782815230756744400,7.850744384765625,-0.3235446512699127,-0.4701436460018158,0.06828275322914124
1782815230776826400,7.870826416015625,-0.4118962585926056,-0.4413117468357086,0.06947828084230423
1782815230796909300,7.890909423828125,-0.47699734568595886,-0.32576462626457214,0.010626386851072311
1782815230816991200,7.9109912109375,-0.5319751501083374,-0.1819259375333786,-0.05047948658466339
1782815230837073400,7.931073486328125,-0.5725324749946594,-0.04068839177489281,-0.07830099016427994
1782815230857155300,7.9511552734375,-0.5752335786819458,0.05301529914140701,-0.06662643700838089
1782815230877237200,7.9712373046875,-0.5383669137954712,0.06391187012195587,-0.03416962921619415
1782815230897319400,7.9913193359375,-0.48586657643318176,0.03572646528482437,0.01853514090180397
1782815230917401300,8.0114013671875,-0.42217597365379333,0.006613950710743666,0.07351958006620407
1782815230937483300,8.031483154296875,-0.36164671182632446,-0.025546202436089516,0.1038733720779419
1782815230957565200,8.051565185546876,-0.31230077147483826,-0.037047140300273895,0.0981682613492012
1782815230977647400,8.0716474609375,-0.25827401876449585,-0.0393439456820488,0.08876561373472214
1782815230997729300,8.091729248046875,-0.20224201679229736,-0.029039990156888962,0.09520208835601807
1782815231017812500,8.1118125,-0.1622544676065445,-0.026994386687874794,0.11360462754964828
1782815231037894400,8.131894287109375,-0.12347497791051865,-0.0478927344083786,0.13399134576320648
1782815231057976600,8.1519765625,-0.10559702664613724,-0.03667105734348297,0.1402834802865982
1782815231078058500,8.17205859375,-0.09915142506361008,-0.2600029706954956,0.049828823655843735
1782815231098140400,8.192140380859374,-0.11337292939424515,-0.421513170003891,-0.017686089500784874
1782815231118222600,8.21222265625,-0.13761959969997406,-0.3938944637775421,-0.01762981340289116
1782815231138304500,8.232304443359375,-0.11086837202310562,-0.36492180824279785,-0.005971607286483049
1782815231158386400,8.252386474609375,-0.045956093817949295,-0.3332253396511078,0.05938594788312912
1782815231178468400,8.27246826171875,0.0038227702025324106,-0.27543357014656067,0.17323487997055054
1782815231198550500,8.292550537109374,0.010548844002187252,-0.21867801249027252,0.2789354622364044
1782815231218632400,8.312632568359374,0.0058243004605174065,-0.11033345758914948,0.3384579122066498
1782815231238715400,8.33271533203125,0.035213273018598557,0.016652915626764297,0.30789893865585327
1782815231258797300,8.35279736328125,0.04464401304721832,0.11815457791090012,0.22854840755462646
1782815231278880000,8.3728798828125,0.026646757498383522,0.11044977605342865,0.1458703577518463
1782815231298962200,8.392962158203124,-0.02232959307730198,-0.03847358003258705,0.061098627746105194
1782815231319044000,8.413044189453124,-0.07662855088710785,-0.1908031553030014,-0.03351100534200668
1782815231339126000,8.4331259765625,-0.1015457734465599,-0.21736399829387665,-0.10871873050928116
1782815231359208200,8.453208251953125,-0.11142875999212265,-0.1303006410598755,-0.11442100256681442
1782815231379290000,8.4732900390625,-0.10890594869852066,-0.02110261097550392,-0.07041608542203903
1782815231399372000,8.4933720703125,-0.10490317642688751,0.02588995359838009,-0.023899849504232407
1782815231419454200,8.5134541015625,-0.10914245992898941,0.0034450553357601166,-0.0014105818700045347
1782815231439536000,8.5335361328125,-0.1168450191617012,-0.028182126581668854,0.003346723271533847
1782815231459619000,8.553619140625,-0.1094486266374588,-0.037855640053749084,0.022668471559882164
1782815231479701000,8.573700927734375,-0.10384907573461533,-0.031600579619407654,0.039080291986465454
1782815231499783000,8.593782958984375,-0.1224481388926506,-0.027260297909379005,0.04229331016540527
1782815231519865000,8.613864990234376,-0.1612071841955185,-0.03696222975850105,0.03771417587995529
1782815231539947000,8.633947021484374,-0.18853653967380524,0.012871641665697098,0.05257727578282356
1782815231560029000,8.65402880859375,-0.1793210655450821,0.07410809397697449,0.07674229890108109
1782815231580111000,8.674111083984375,-0.14632686972618103,0.09146775305271149,0.09963665157556534
1782815231600193300,8.694193359375,-0.12691444158554077,0.0751437097787857,0.13617487251758575
1782815231620275200,8.714275146484376,-0.1263796091079712,0.05739530920982361,0.16966216266155243
1782815231640357400,8.734357421875,-0.1565045416355133,0.04987689480185509,0.15849095582962036
1782815231660440300,8.7544404296875,-0.17848941683769226,0.1043863296508789,0.07017595320940018
1782815231680522200,8.774522216796875,-0.18070116639137268,0.15360920131206512,-0.06262193620204926
1782815231700604200,8.794604248046875,-0.15844112634658813,0.1433541625738144,-0.18668369948863983
1782815231720686000,8.81468603515625,-0.14998933672904968,0.01552746444940567,-0.27774909138679504
1782815231740768300,8.834768310546876,-0.19324931502342224,-0.1129511371254921,-0.35411447286605835
1782815231760850200,8.85485009765625,-0.24823300540447235,-0.20366226136684418,-0.4290013611316681
1782815231780932000,8.87493212890625,-0.2658856511116028,-0.15882937610149384,-0.4361962080001831
1782815231801014300,8.89501416015625,-0.20469582080841064,-0.052544668316841125,-0.3411904573440552
1782815231821096200,8.91509619140625,-0.12077881395816803,0.13272053003311157,-0.06835547089576721
1782815231841178000,8.93517822265625,-0.04201192781329155,0.25385424494743347,0.1438142955303192
1782815231861261000,8.955260986328126,0.04288286343216896,0.30689841508865356,0.2566940188407898
1782815231881343200,8.97534326171875,0.04888370260596275,0.22458218038082123,0.2562902271747589
1782815231901425200,8.995425048828125,0.03969676420092583,0.22618567943572998,0.15792734920978546
1782815231921507000,9.015507080078125,0.020619265735149384,0.20524245500564575,0.011693322099745274
1782815231941589000,9.035589111328125,-0.015112018212676048,0.05391547828912735,-0.0872408077120781
1782815231961671200,9.055671142578126,-0.08265123516321182,-0.05073787271976471,-0.09678046405315399
1782815231981753000,9.075753173828126,-0.09660546481609344,-0.08578822016716003,-0.09211191534996033
1782815232001835000,9.0958349609375,-0.08576610684394836,-0.04936237260699272,-0.11536466330289841
1782815232021917200,9.115917236328125,-0.06094229221343994,-0.017168773338198662,-0.16279834508895874
1782815232041999000,9.1359990234375,-0.017689771950244904,0.004611438140273094,-0.17922115325927734
1782815232062081000,9.1560810546875,0.027165215462446213,0.08802218735218048,-0.14262782037258148
1782815232082164000,9.1761640625,0.07124102860689163,0.13873682916164398,-0.10701580345630646
1782815232102246100,9.19624609375,0.11396413296461105,0.1106015220284462,-0.05662279576063156
1782815232122328000,9.216328125,0.15674351155757904,0.12571367621421814,0.05159098654985428
1782815232142410000,9.236409912109375,0.18896037340164185,0.14172430336475372,0.12844818830490112
1782815232162492200,9.2564921875,0.20146222412586212,0.059281207621097565,0.12230978906154633
1782815232182574000,9.276573974609375,0.219126358628273,0.01883288472890854,0.10615861415863037
1782815232202656000,9.296656005859376,0.2216932475566864,0.0018471586517989635,0.09769948571920395
1782815232222738000,9.316738037109374,0.21978211402893066,-0.014109027571976185,0.08414623886346817
1782815232242820400,9.3368203125,0.20243744552135468,-0.005417285021394491,0.035871729254722595
1782815232262902300,9.35690234375,0.2020719051361084,0.08713304996490479,-0.011382325552403927
1782815232282984000,9.37698388671875,0.20657847821712494,0.1289273500442505,-0.024604052305221558
1782815232303066000,9.397066162109375,0.18639731407165527,0.12195688486099243,0.025349479168653488
1782815232323149000,9.417149169921874,0.18569178879261017,0.18234391510486603,0.12999345362186432
1782815232343231000,9.43723095703125,0.19623851776123047,0.23572465777397156,0.21411257982254028
1782815232363313000,9.45731298828125,0.20612281560897827,0.25343820452690125,0.2328004091978073
1782815232383395000,9.47739501953125,0.22565026581287384,0.2438589483499527,0.2066762000322342
1782815232403477000,9.49747705078125,0.252612829208374,0.20426437258720398,0.2161165326833725
1782815232423559000,9.517558837890626,0.2694947123527527,0.15605561435222626,0.26635465025901794
1782815232443640800,9.537640869140626,0.2886121869087219,0.1283845603466034,0.30196014046669006
1782815232463723000,9.557722900390624,0.3181065618991852,0.08572578430175781,0.28166601061820984
1782815232483805000,9.577804931640625,0.35606852173805237,0.05332190915942192,0.2538440525531769
1782815232503886800,9.597886962890625,0.38663408160209656,0.018717985600233078,0.2568501830101013
1782815232523969800,9.6179697265625,0.39716389775276184,0.019333932548761368,0.3001403212547302
1782815232544052000,9.638052001953126,0.39351534843444824,0.04046938568353653,0.32573026418685913
1782815232564134000,9.6581337890625,0.3941928744316101,0.04566191881895065,0.2968652546405792
1782815232584215800,9.6782158203125,0.3882831335067749,0.051411937922239304,0.22756455838680267
1782815232604298000,9.698298095703125,0.36216700077056885,0.006099768448621035,0.13797995448112488
1782815232624380000,9.7183798828125,0.34139284491539,-0.008641466498374939,0.08999060839414597
1782815232644462800,9.738462890625,0.32464563846588135,-0.034022245556116104,0.07164432853460312
1782815232664544800,9.758544677734376,0.2885957658290863,-0.12856577336788177,0.05711805075407028
1782815232684627000,9.778626953125,0.23409147560596466,-0.21835802495479584,0.03429489955306053
1782815232704709000,9.798709228515625,0.1710193008184433,-0.23307585716247559,-0.019574174657464027
1782815232724791000,9.818791015625,0.11612965166568756,-0.19354304671287537,-0.08841533213853836
1782815232744873000,9.838873046875,0.08804021775722504,-0.1093418076634407,-0.13497094810009003
1782815232764955100,9.858955078125,0.06247765198349953,-0.026505474001169205,-0.13473175466060638
1782815232785037000,9.879037109375,0.03742216154932976,0.055331114679574966,-0.07387259602546692
1782815232805119000,9.899118896484374,0.016884159296751022,0.07984054088592529,0.008641214109957218
1782815232825202000,9.919201904296875,0.015050147660076618,0.06873694062232971,0.05945293977856636
1782815232845284000,9.9392841796875,0.02113228477537632,0.05369477719068527,0.07798552513122559
1782815232865366000,9.959365966796875,0.021753737702965736,0.052974674850702286,0.07752422243356705
1782815232885448000,9.979447998046876,0.003999981563538313,0.037456393241882324,0.053608451038599014
1782815232905529900,9.99952978515625,-0.031741879880428314,-0.023045098409056664,0.021589335054159164
1782815232925612000,10.019612060546875,-0.0514272078871727,-0.0037239822559058666,-0.0035359421744942665
1782815232945694000,10.03969384765625,-0.061706993728876114,0.06695195287466049,-0.03737681731581688
1782815232965776000,10.05977587890625,-0.05843520537018776,0.11551618576049805,-0.08780136704444885
1782815232985858000,10.079858154296875,-0.05702011287212372,0.060579199343919754,-0.11202850937843323
1782815233005941000,10.09994091796875,-0.05443921312689781,-0.016277791932225227,-0.07895790040493011
1782815233026023000,10.12002294921875,-0.050719089806079865,-0.031646352261304855,-0.02472788840532303
1782815233046104800,10.140104736328125,-0.046407707035541534,-0.02794857881963253,-0.021653199568390846
1782815233066187000,10.16018701171875,-0.032899267971515656,-0.0443778932094574,-0.07218311727046967
1782815233086269000,10.18026904296875,-0.035870619118213654,-0.03420119732618332,-0.05725855752825737
1782815233106350800,10.200350830078126,-0.01964057981967926,0.03348309174180031,0.06291181594133377
1782815233126432800,10.220432861328124,-0.009011532180011272,-0.3307342231273651,0.035611677914857864
1782815233146515000,10.240514892578124,-0.05894123390316963,-0.2930775284767151,0.031580403447151184
1782815233166596900,10.260596923828125,-0.09940442442893982,0.025003738701343536,-0.07651659846305847
1782815233186679800,10.2806796875,-0.11022433638572693,0.3923032581806183,-0.16777285933494568
