time,seconds_elapsed,z,y,x
1782814990830213400,0.06521337890625,-0.05385288596153259,-0.7478821277618408,-0.2870168685913086
1782814990850295300,0.08529541015625,-0.17477566003799438,-0.1779709756374359,-0.20998525619506836
1782814990870378500,0.10537841796875,-0.26385071873664856,0.07149484008550644,-0.32511061429977417
1782814990890460400,0.12546044921875,-0.3073955178260803,0.08904345333576202,-0.4634208083152771
1782814990910542600,0.14554248046875,-0.34272801876068115,0.14443211257457733,-0.49305135011672974
1782814990930625500,0.16562548828125,-0.3970459997653961,0.14596998691558838,-0.45920148491859436
1782814990950707500,0.18570751953125,-0.486283540725708,0.10120726376771927,-0.40233397483825684
1782814990970789400,0.205789306640625,-0.5830804109573364,0.11851875483989716,-0.33910199999809265
1782814990990872300,0.225872314453125,-0.6288537383079529,0.04255566745996475,-0.3255563974380493
1782814991010954500,0.24595458984375,-0.6116722822189331,-0.09633138030767441,-0.33005616068840027
1782814991031036700,0.26603662109375,-0.5399693250656128,-0.24879412353038788,-0.3301517367362976
1782814991051119600,0.28611962890625,-0.48504558205604553,-0.3169567286968231,-0.25821128487586975
1782814991071201500,0.306201416015625,-0.48542866110801697,-0.3298807442188263,-0.15131229162216187
1782814991091284500,0.326284423828125,-0.5085795521736145,-0.24270841479301453,-0.07605837285518646
1782814991111366400,0.346366455078125,-0.5349225401878357,-0.11168108880519867,-0.05494707077741623
1782814991131448600,0.366448486328125,-0.5503203868865967,0.04554836079478264,-0.04829391464591026
1782814991151531500,0.386531494140625,-0.5447891354560852,0.11047349870204926,-0.041225939989089966
1782814991171613400,0.406613525390625,-0.5270319581031799,0.03450533002614975,-0.023234538733959198
1782814991191695400,0.4266953125,-0.4606632888317108,-0.03353193774819374,0.02764390967786312
1782814991211778600,0.446778564453125,-0.3218470811843872,0.1278204768896103,-0.08592099696397781
1782814991231860700,0.46686083984375,-0.26424041390419006,0.3302518427371979,-0.10487601161003113
1782814991251943700,0.486943603515625,-0.3472466468811035,0.32440710067749023,-0.1069033294916153
1782814991272025600,0.507025634765625,-0.3414522409439087,0.2440451681613922,-0.069997139275074
1782814991292107500,0.527107421875,-0.3360009789466858,0.14566445350646973,-0.012003633193671703
1782814991312190500,0.5471904296875,-0.2730829417705536,-0.04095277190208435,0.08691181242465973
1782814991332272600,0.567272705078125,-0.18313424289226532,-0.24335138499736786,0.21641623973846436
1782814991352354600,0.5873544921875,-0.1587499976158142,-0.35760578513145447,0.3281109035015106
1782814991372437500,0.6074375,-0.23488585650920868,-0.47998979687690735,0.3148605227470398
1782814991392519400,0.62751953125,-0.3243061900138855,-0.41248905658721924,0.23521074652671814
1782814991412602400,0.647602294921875,-0.27992013096809387,-0.03769339248538017,0.2289285510778427
1782814991432684500,0.6676845703125,-0.1116604134440422,0.3382355868816376,0.30418696999549866
1782814991452766500,0.687766357421875,0.05943112075328827,0.49293795228004456,0.43373021483421326
1782814991472849700,0.707849609375,0.1838752180337906,0.3694796562194824,0.5849189758300781
1782814991492931600,0.727931640625,0.22240343689918518,0.22890900075435638,0.6987357139587402
1782814991513013500,0.748013427734375,0.17767928540706635,0.14945441484451294,0.758866548538208
1782814991533096400,0.768096435546875,0.06899864226579666,0.09450235217809677,0.7086455821990967
1782814991553178600,0.7881787109375,-0.05831800773739815,0.027499008923768997,0.5504104495048523
1782814991573260500,0.808260498046875,-0.12530921399593353,-0.2137732356786728,0.33522099256515503
1782814991593343500,0.828343505859375,-0.14155671000480652,-0.6323223114013672,0.09444560110569
1782814991613425400,0.84842529296875,-0.13841553032398224,-1.039664387702942,-0.1431550830602646
1782814991633508400,0.86850830078125,-0.12248358875513077,-0.9975079894065857,-0.3018929362297058
1782814991653590500,0.888590576171875,-0.07709022611379623,-0.3796183466911316,-0.32059741020202637
1782814991673672400,0.90867236328125,-0.047817643731832504,0.2508757412433624,-0.26667919754981995
1782814991693755600,0.928755615234375,-0.020314550027251244,0.6098365783691406,-0.22423957288265228
1782814991713837600,0.948837646484375,0.016381727531552315,0.5327621102333069,-0.23870353400707245
1782814991733919700,0.968919677734375,0.0815858393907547,0.34855157136917114,-0.24023596942424774
1782814991754002700,0.989002685546875,0.13573163747787476,0.28366953134536743,-0.20300032198429108
1782814991774084600,1.009084716796875,0.16992130875587463,0.32575723528862,-0.14055681228637695
1782814991794166500,1.02916650390625,0.13606975972652435,0.4115108847618103,-0.09677552431821823
1782814991814249500,1.04924951171875,0.059346430003643036,0.4430937170982361,-0.08786507695913315
1782814991834331400,1.069331298828125,-0.001158334780484438,0.36897119879722595,-0.09118109196424484
1782814991854414300,1.089414306640625,-0.017307866364717484,0.2640882730484009,-0.09682474285364151
1782814991874496500,1.10949658203125,0.0013846695655956864,0.1648205816745758,-0.09173045307397842
1782814991894578400,1.129578369140625,-0.0014678924344480038,0.09944678843021393,-0.09539905190467834
1782814991914661600,1.14966162109375,-0.07266705483198166,0.009655887261033058,-0.1313609778881073
1782814991934743600,1.16974365234375,-0.16561858355998993,-0.09952247142791748,-0.15546920895576477
1782814991954825700,1.18982568359375,-0.24716532230377197,-0.15721389651298523,-0.15682625770568848
1782814991974908700,1.20990869140625,-0.33045274019241333,-0.17336809635162354,-0.16714201867580414
1782814991994990600,1.229990478515625,-0.4138249456882477,-0.1689947545528412,-0.21765761077404022
1782814992015072500,1.250072509765625,-0.46998485922813416,-0.12370164692401886,-0.29240643978118896
1782814992035155200,1.2701552734375,-0.4705878794193268,0.03324084356427193,-0.3140734136104584
1782814992055237400,1.2902373046875,-0.4121493101119995,0.19984546303749084,-0.3002943992614746
1782814992075320300,1.3103203125,-0.32142534852027893,0.2894405126571655,-0.2552328407764435
1782814992095402200,1.33040234375,-0.2264154553413391,0.26886916160583496,-0.18626098334789276
1782814992115484200,1.350484130859375,-0.12799270451068878,0.16744683682918549,-0.10585165023803711
1782814992135567400,1.3705673828125,-0.03300279751420021,0.012595427222549915,-0.026789218187332153
1782814992155649500,1.3906494140625,0.04802514240145683,-0.07995160669088364,0.07103355973958969
1782814992175731500,1.4107314453125,0.12541581690311432,-0.14037880301475525,0.16380487382411957
1782814992195814400,1.430814453125,0.17938873171806335,-0.15649425983428955,0.23989903926849365
1782814992215896300,1.450896240234375,0.1966734081506729,-0.17430001497268677,0.2742253541946411
1782814992235978200,1.470978271484375,0.18216970562934875,-0.21319083869457245,0.2529591917991638
1782814992256061400,1.4910615234375,0.17793391644954681,-0.31548306345939636,0.21721988916397095
1782814992276143400,1.511143310546875,0.18474294245243073,-0.3666893541812897,0.24951152503490448
1782814992296226300,1.531226318359375,0.1754654496908188,-0.30023306608200073,0.30480629205703735
1782814992316308200,1.55130810546875,0.13338318467140198,-0.41200917959213257,0.27155202627182007
1782814992336390100,1.57139013671875,0.08577605336904526,-0.555080771446228,0.19246244430541992
1782814992356473000,1.59147314453125,0.07822135090827942,-0.6180266737937927,0.16606944799423218
1782814992376555300,1.61155517578125,0.051397211849689484,-0.6772740483283997,0.15570347011089325
1782814992396637200,1.63163720703125,-0.044441577047109604,-0.5882667899131775,0.16702257096767426
1782814992416720400,1.651720458984375,-0.1657552868127823,-0.3266600966453552,0.215962216258049
1782814992436802300,1.67180224609375,-0.2192346304655075,-0.05194976180791855,0.3016398251056671
1782814992456884500,1.691884521484375,-0.17208105325698853,0.09386522322893143,0.3919034004211426
1782814992476967400,1.711967529296875,-0.08159780502319336,0.17042085528373718,0.47769248485565186
1782814992497049300,1.73204931640625,0.012510387226939201,0.1488858014345169,0.5259841084480286
1782814992517131300,1.75213134765625,0.04543345049023628,0.030990583822131157,0.522070586681366
1782814992537214200,1.772214111328125,0.029337644577026367,-0.07670173794031143,0.5054632425308228
1782814992557296400,1.79229638671875,0.010171939618885517,-0.07707617431879044,0.4785397946834564
1782814992577379300,1.81237939453125,-0.023862801492214203,-0.05955236405134201,0.4291622042655945
1782814992597461200,1.832461181640625,-0.09725760668516159,-0.018198948353528976,0.3631434440612793
1782814992617543200,1.852543212890625,-0.15404112637043,0.02261064574122429,0.29516875743865967
1782814992637626400,1.87262646484375,-0.16513051092624664,0.028736619278788567,0.21492251753807068
1782814992657708300,1.892708251953125,-0.20759117603302002,-0.07404737919569016,0.07209642231464386
1782814992677790500,1.91279052734375,-0.32196927070617676,-0.19327567517757416,-0.1443912833929062
1782814992697873400,1.932873291015625,-0.46039241552352905,-0.18738369643688202,-0.41966211795806885
1782814992717955300,1.952955322265625,-0.5366608500480652,-0.013487583957612514,-0.6874428987503052
1782814992738037200,1.973037353515625,-0.5012465119361877,0.19619901478290558,-0.8479807376861572
1782814992758120200,1.9931201171875,-0.36595460772514343,0.387990266084671,-0.8284175395965576
1782814992778202400,2.013202392578125,-0.21226893365383148,0.5051933526992798,-0.6558575630187988
1782814992798285300,2.033285400390625,-0.13052134215831757,0.4206360876560211,-0.4476628303527832
1782814992818367200,2.0533671875,-0.10280802100896835,0.11401645839214325,-0.31666478514671326
1782814992838449200,2.07344921875,-0.0609002523124218,-0.18256807327270508,-0.25554871559143066
1782814992858532400,2.093532470703125,0.017342161387205124,-0.2629568874835968,-0.2315082848072052
1782814992878614500,2.113614501953125,0.04644225537776947,-0.14195935428142548,-0.23376305401325226
1782814992898696400,2.133696533203125,0.034429438412189484,0.017323799431324005,-0.26705166697502136
1782814992918779400,2.153779296875,-0.0002557896659709513,0.027265511453151703,-0.3111247718334198
1782814992938861300,2.173861328125,-0.01523159071803093,-0.08386486768722534,-0.35901355743408203
1782814992958943500,2.193943603515625,0.027197623625397682,-0.17503231763839722,-0.4214211404323578
1782814992979026400,2.2140263671875,0.07390692830085754,-0.16622906923294067,-0.46648499369621277
1782814992999108400,2.2341083984375,0.0958884209394455,-0.12562020123004913,-0.46448034048080444
1782814993019190300,2.254190185546875,0.11762034893035889,-0.10382197052240372,-0.43801024556159973
1782814993039273500,2.2742734375,0.15774089097976685,-0.0819777250289917,-0.38992956280708313
1782814993059355400,2.29435546875,0.19361601769924164,-0.012756682932376862,-0.32255035638809204
1782814993079437600,2.3144375,0.24301496148109436,0.0869385376572609,-0.26914605498313904
1782814993099520800,2.334520751953125,0.28704169392585754,0.15298444032669067,-0.21478354930877686
1782814993119602700,2.354602783203125,0.30152082443237305,0.17538176476955414,-0.16810597479343414
1782814993139685600,2.374685546875,0.3026413023471832,0.1804489940404892,-0.14076736569404602
1782814993159767600,2.394767578125,0.301708459854126,0.12835127115249634,-0.13815218210220337
1782814993179849700,2.414849609375,0.3155035376548767,-0.01292459201067686,-0.14500732719898224
1782814993199932700,2.4349326171875,0.33779433369636536,-0.13673759996891022,-0.11513987928628922
1782814993220014600,2.4550146484375,0.30884850025177,-0.13988615572452545,-0.04446069896221161
1782814993240096500,2.475096435546875,0.2299633026123047,-0.10550586134195328,-0.004978562705218792
1782814993260179500,2.495179443359375,0.14666448533535004,-0.05169212073087692,-0.015591995790600777
1782814993280261600,2.51526171875,0.06790800392627716,-0.05951685458421707,-0.05841321498155594
1782814993300343600,2.535343505859375,0.001556267379783094,-0.0030715232715010643,-0.09695021063089371
1782814993320426500,2.555426513671875,-0.011123010888695717,0.2110910564661026,-0.0686873123049736
1782814993340508400,2.57550830078125,-0.030313460156321526,0.35722288489341736,-0.0056725479662418365
1782814993360590300,2.59559033203125,-0.03233303129673004,0.3452426791191101,0.05757376551628113
1782814993380673500,2.615673583984375,-0.01559450849890709,0.292631596326828,0.11434261500835419
1782814993400755700,2.635755615234375,0.0043968986719846725,0.14995422959327698,0.13446906208992004
1782814993420838700,2.655838623046875,0.02446284331381321,-0.006797597743570805,0.11363999545574188
1782814993440920600,2.675920654296875,0.049787912517786026,-0.01856263354420662,0.10956255346536636
1782814993461002500,2.69600244140625,0.041954927146434784,0.09334821999073029,0.13515430688858032
1782814993481085400,2.71608544921875,0.010817665606737137,0.24076883494853973,0.16006627678871155
1782814993501167600,2.736167724609375,-0.015782462432980537,0.2915993928909302,0.14932237565517426
1782814993521249500,2.75624951171875,-0.011194238439202309,0.22969357669353485,0.11140135675668716
1782814993541332500,2.77633251953125,0.01572803594172001,0.11141902953386307,0.09522999078035355
1782814993561414400,2.796414306640625,0.06322731822729111,0.006654764525592327,0.11615291982889175
1782814993581496600,2.81649658203125,0.10717297345399857,-0.052270758897066116,0.17521952092647552
1782814993601579800,2.836579833984375,0.12619061768054962,-0.08548435568809509,0.22166025638580322
1782814993621661700,2.85666162109375,0.08539319038391113,-0.07989726215600967,0.23945637047290802
1782814993641743600,2.87674365234375,-0.002676607808098197,-0.059006813913583755,0.2381090521812439
1782814993661826600,2.89682666015625,-0.10274364799261093,-0.029639553278684616,0.2109116166830063
1782814993681908500,2.916908447265625,-0.19411523640155792,0.054595597088336945,0.16843634843826294
1782814993701990700,2.93699072265625,-0.250285267829895,0.09570051729679108,0.08519440144300461
1782814993722073600,2.957073486328125,-0.2611525058746338,0.059283263981342316,0.004819883033633232
1782814993742155500,2.977155517578125,-0.25611934065818787,0.024301890283823013,-0.03572827950119972
1782814993762237400,2.997237548828125,-0.2636014521121979,-0.0025649622548371553,-0.018509631976485252
1782814993782320400,3.0173203125,-0.2788739502429962,-0.00008427351713180542,0.02829030156135559
1782814993802402600,3.037402587890625,-0.27584511041641235,-0.020221039652824402,0.04852590709924698
1782814993822485800,3.05748583984375,-0.2669415771961212,0.0175037682056427,0.03632841631770134
1782814993842567700,3.077567626953125,-0.2697201073169708,0.018194984644651413,-0.02395537495613098
1782814993862649600,3.097649658203125,-0.2703019380569458,0.020680097863078117,-0.09933086484670639
1782814993882732500,3.117732666015625,-0.25515854358673096,-0.00038806675001978874,-0.1810947209596634
1782814993902814700,3.137814697265625,-0.2067299336194992,-0.01942243054509163,-0.25948959589004517
1782814993922896600,3.157896728515625,-0.16344702243804932,-0.07262837886810303,-0.3219327926635742
1782814993942979600,3.1779794921875,-0.12549424171447754,-0.09623218327760696,-0.3411579430103302
1782814993963061500,3.1980615234375,-0.08537843078374863,-0.11561861634254456,-0.345443457365036
1782814993983143700,3.218143798828125,-0.04565635323524475,-0.17475643754005432,-0.36839559674263
1782814994003226600,3.2382265625,-0.01533448789268732,-0.23967574536800385,-0.4050751030445099
1782814994023308500,3.25830859375,-0.0032241009175777435,-0.16815100610256195,-0.41154128313064575
1782814994043390500,3.278390380859375,0.027265412732958794,0.022180432453751564,-0.38613399863243103
1782814994063473400,3.298473388671875,0.08058928698301315,0.16758045554161072,-0.335083931684494
1782814994083555600,3.3185556640625,0.13491374254226685,0.1433638632297516,-0.28287503123283386
1782814994103637500,3.338637451171875,0.1714000552892685,0.027775440365076065,-0.24253512918949127
1782814994123720400,3.358720458984375,0.18140776455402374,-0.12111179530620575,-0.2138107568025589
1782814994143802400,3.37880224609375,0.15479524433612823,-0.18551446497440338,-0.17182579636573792
1782814994163884300,3.39888427734375,0.12567295134067535,-0.15353341400623322,-0.1428084522485733
1782814994183967200,3.41896728515625,0.12080726772546768,-0.0960056483745575,-0.12484507262706757
1782814994204049400,3.43904931640625,0.11605188250541687,-0.0982247143983841,-0.10271361470222473
1782814994224131300,3.45913134765625,0.08956895023584366,-0.19229498505592346,-0.040914103388786316
1782814994244214300,3.47921435546875,0.0402933694422245,-0.28180599212646484,0.05816284939646721
1782814994264296200,3.499296142578125,-0.0275903157889843,-0.3400968015193939,0.1765090376138687
1782814994284379400,3.51937939453125,-0.12308969348669052,-0.3708767592906952,0.2498563826084137
1782814994304461600,3.539461669921875,-0.23772819340229034,-0.3215576708316803,0.2845646142959595
1782814994324543500,3.55954345703125,-0.33886218070983887,-0.15597586333751678,0.29955002665519714
1782814994344626400,3.57962646484375,-0.41628941893577576,-0.10604056715965271,0.258965402841568
1782814994364708400,3.599708251953125,-0.4790959656238556,-0.11841612309217453,0.1854444444179535
1782814994384790500,3.61979052734375,-0.5393559336662292,-0.15148784220218658,0.07871568202972412
1782814994404873500,3.63987353515625,-0.5682113766670227,-0.1639268398284912,0.025215694680809975
1782814994424955400,3.659955322265625,-0.5062804222106934,0.017558224499225616,0.117635577917099
1782814994445037300,3.680037353515625,-0.34880203008651733,0.3261818289756775,0.3386468291282654
1782814994465120300,3.700120361328125,-0.21934311091899872,0.5315863490104675,0.564127504825592
1782814994485202400,3.720202392578125,-0.23092147707939148,0.49159154295921326,0.6671236753463745
1782814994505284400,3.740284423828125,-0.262386679649353,0.3641379177570343,0.6209609508514404
1782814994525367600,3.760367431640625,-0.2679963707923889,0.299591064453125,0.4604167640209198
1782814994545449500,3.780449462890625,-0.19127359986305237,0.23613089323043823,0.2873256802558899
1782814994565531400,3.800531494140625,-0.07389447838068008,0.2597404420375824,0.1936662346124649
1782814994585614300,3.8206142578125,-0.024289444088935852,0.21018482744693756,0.16620472073554993
1782814994605696500,3.840696533203125,-0.09087176620960236,0.05655107647180557,0.16344299912452698
1782814994625778400,3.8607783203125,-0.24575820565223694,-0.1401669830083847,0.13758589327335358
1782814994645861400,3.880861328125,-0.4013535678386688,-0.28688064217567444,0.026667773723602295
1782814994665943300,3.900943359375,-0.5358073711395264,-0.34896770119667053,-0.18332843482494354
1782814994686025500,3.921025390625,-0.6695509552955627,-0.29002508521080017,-0.44774022698402405
1782814994706108400,3.9411083984375,-0.7831739187240601,-0.12005920708179474,-0.6940987706184387
1782814994726190300,3.9611904296875,-0.8198814988136292,0.13769255578517914,-0.8275187015533447
1782814994746272300,3.981272216796875,-0.7258158922195435,0.44928881525993347,-0.814561665058136
1782814994766355500,4.00135546875,-0.5295400619506836,0.7541403770446777,-0.6696968674659729
1782814994786437600,4.021437744140625,-0.30820193886756897,0.9719092845916748,-0.42594027519226074
1782814994806520600,4.0415205078125,-0.11219090223312378,1.0297902822494507,-0.14630353450775146
1782814994826602500,4.0616025390625,0.007722933776676655,0.843330442905426,0.11350318044424057
1782814994846684400,4.081684326171875,0.06276603043079376,0.3649000823497772,0.3241513967514038
1782814994866767400,4.101767333984375,0.08722656220197678,-0.09993982315063477,0.48378244042396545
1782814994886849300,4.121849365234375,0.09291736036539078,-0.49654868245124817,0.5528899431228638
1782814994906931500,4.141931396484375,0.044957999140024185,-0.8714637756347656,0.5049556493759155
1782814994927014400,4.162014404296875,-0.07617229223251343,-1.1077487468719482,0.378113329410553
1782814994947096300,4.182096435546875,-0.25479379296302795,-1.0788867473602295,0.19142767786979675
1782814994967178200,4.20217822265625,-0.42755234241485596,-0.8628796339035034,-0.039498910307884216
1782814994987261200,4.22226123046875,-0.545265257358551,-0.5983453392982483,-0.28759607672691345
1782814995007343400,4.24234326171875,-0.603014349937439,-0.39919090270996094,-0.4860052764415741
1782814995027425300,4.26242529296875,-0.6141562461853027,-0.18371987342834473,-0.5673269033432007
1782814995047508200,4.28250830078125,-0.5750443339347839,0.10252112150192261,-0.5205644369125366
1782814995067590100,4.302590087890625,-0.5023515224456787,0.3141827881336212,-0.3927200734615326
1782814995087672300,4.32267236328125,-0.41137346625328064,0.35387393832206726,-0.2450042963027954
1782814995107755300,4.34275537109375,-0.33722662925720215,0.3444851040840149,-0.11644187569618225
1782814995127837200,4.362837158203125,-0.27549418807029724,0.3028128743171692,-0.044565483927726746
1782814995147919000,4.382919189453125,-0.20410677790641785,0.18299205601215363,-0.040797553956508636
1782814995168002000,4.403001953125,-0.12676352262496948,0.04308014735579491,-0.07211261987686157
1782814995188084200,4.423084228515625,-0.02783411182463169,-0.1668439507484436,-0.11122129112482071
1782814995208166100,4.443166259765625,0.045257002115249634,-0.3020082414150238,-0.10455312579870224
1782814995228249000,4.4632490234375,0.0365503765642643,-0.28343576192855835,-0.0530279316008091
1782814995248331000,4.4833310546875,-0.026042189449071884,-0.19440436363220215,-0.005028554704040289
1782814995268413200,4.5034130859375,-0.08494838327169418,-0.08517064899206161,0.020659878849983215
1782814995288496000,4.52349609375,-0.10390114784240723,0.01153719425201416,0.0023956552613526583
1782814995308578300,4.543578369140625,-0.13084471225738525,-0.01900925673544407,-0.07177354395389557
1782814995328660200,4.56366015625,-0.1600162237882614,-0.04052433744072914,-0.11416038870811462
1782814995348743200,4.5837431640625,-0.19433581829071045,0.07084658741950989,-0.07830694317817688
1782814995368825000,4.6038251953125,-0.2152264565229416,0.19691024720668793,0.0036158887669444084
1782814995388907300,4.6239072265625,-0.17837589979171753,0.3131906986236572,0.1271560788154602
1782814995408990200,4.643990234375,-0.11693999916315079,0.3339751362800598,0.2624240517616272
1782814995429072100,4.664072021484375,-0.07773403078317642,0.22698724269866943,0.3870992958545685
1782814995449155000,4.684155029296875,-0.06583290547132492,0.06039772182703018,0.4886436462402344
1782814995469237000,4.704237060546875,-0.08338788896799088,-0.056576624512672424,0.5466950535774231
1782814995489319200,4.724319091796875,-0.10656973719596863,-0.11965090781450272,0.546937108039856
1782814995509402000,4.744402099609375,-0.10739775747060776,-0.16999435424804688,0.5278248190879822
1782814995529484300,4.764484375,-0.0911373719573021,-0.2054557204246521,0.5201824307441711
1782814995549566200,4.784566162109375,-0.14262741804122925,-0.2578548789024353,0.5209701657295227
1782814995569649200,4.804649169921875,-0.2562350034713745,-0.2620510160923004,0.48362788558006287
1782814995589731300,4.8247314453125,-0.3589085340499878,-0.1528037190437317,0.4297356605529785
1782814995609813200,4.844813232421875,-0.42781007289886475,-0.0003485702909529209,0.38286691904067993
1782814995629896200,4.864896240234375,-0.47773581743240356,0.1251939833164215,0.3513849079608917
1782814995649978000,4.88497802734375,-0.5264716148376465,0.20965519547462463,0.3195034861564636
1782814995670060000,4.90506005859375,-0.5548698902130127,0.21499961614608765,0.2717702090740204
1782814995690143200,4.925143310546875,-0.5795671343803406,0.16315528750419617,0.2232673168182373
1782814995710225200,4.94522509765625,-0.6385642886161804,0.06393220275640488,0.18555590510368347
1782814995730307000,4.96530712890625,-0.712886393070221,-0.08103413879871368,0.1511193811893463
1782814995750390000,4.98539013671875,-0.776448130607605,-0.23880688846111298,0.12032922357320786
1782814995770472000,5.005471923828125,-0.814063310623169,-0.30742549896240234,0.11840236932039261
1782814995790554000,5.02555419921875,-0.836046040058136,-0.26891088485717773,0.17309655249118805
1782814995810637300,5.04563720703125,-0.8725875020027161,-0.22432661056518555,0.268142431974411
1782814995830719200,5.06571923828125,-0.9624384045600891,-0.25633206963539124,0.3392176926136017
1782814995850801200,5.08580126953125,-1.0705147981643677,-0.33431461453437805,0.3278791010379791
1782814995870884000,5.105884033203125,-1.1900780200958252,-0.3924432396888733,0.2126312106847763
1782814995890966300,5.12596630859375,-1.2817360162734985,-0.441012978553772,0.028326956555247307
1782814995911048200,5.146048095703125,-1.3036574125289917,-0.43519797921180725,-0.11212216317653656
1782814995931131100,5.166131103515625,-1.345533847808838,-0.573344349861145,-0.22477693855762482
1782814995951213000,5.186213134765625,-1.398105502128601,-0.7901639342308044,-0.31391292810440063
1782814995971296000,5.2062958984375,-1.4228460788726807,-0.8013424873352051,-0.3307475745677948
1782814995991378200,5.226378173828125,-1.3978946208953857,-0.5404772162437439,-0.2310144156217575
1782814996011460000,5.246460205078125,-1.3532588481903076,-0.1474948525428772,-0.030388742685317993
1782814996031542800,5.266542724609375,-1.3528635501861572,0.16260184347629547,0.14752976596355438
1782814996051624700,5.286624755859375,-1.3301575183868408,0.22656778991222382,0.22491760551929474
1782814996071707000,5.306706787109375,-1.273454189300537,0.09858265519142151,0.23648595809936523
1782814996091788800,5.326788818359375,-1.229033350944519,-0.03141731023788452,0.2361435741186142
1782814996111871700,5.346871826171875,-1.261338710784912,-0.1862015277147293,0.18373849987983704
1782814996131953700,5.36695361328125,-1.365031123161316,-0.4042629897594452,0.032369039952754974
1782814996152035800,5.387035888671875,-1.4624090194702148,-0.5231853723526001,-0.15907423198223114
1782814996172118800,5.407118896484375,-1.5014585256576538,-0.4729718267917633,-0.33240002393722534
1782814996192201000,5.427200927734375,-1.4698209762573242,-0.43837836384773254,-0.45303401350975037
1782814996212283000,5.447282958984375,-1.4924821853637695,-0.4151659905910492,-0.49042007327079773
1782814996232365800,5.46736572265625,-1.6168136596679688,-0.3324300944805145,-0.507509171962738
1782814996252447700,5.48744775390625,-1.8254313468933105,-0.42012086510658264,-0.6417906880378723
1782814996272530000,5.507530029296875,-1.9865553379058838,-0.5620158910751343,-0.8573212623596191
1782814996292612900,5.52761279296875,-2.0665979385375977,-0.5541250705718994,-0.9883283972740173
1782814996312694800,5.54769482421875,-1.9906567335128784,-0.16936273872852325,-0.8631651401519775
1782814996332776700,5.567776611328125,-1.8415710926055908,0.35607653856277466,-0.468069463968277
1782814996352859600,5.587859619140625,-1.6818065643310547,0.7522868514060974,0.037239573895931244
1782814996372941800,5.60794189453125,-1.6146005392074585,0.7408884763717651,0.5202581882476807
1782814996393023700,5.628023681640625,-1.7133729457855225,0.39306962490081787,0.8599167466163635
1782814996413107000,5.64810693359375,-1.8771216869354248,-0.09705901145935059,1.0112828016281128
1782814996433188900,5.66818896484375,-1.9476324319839478,-0.42247819900512695,1.029186487197876
1782814996453271000,5.68827099609375,-1.8902387619018555,-0.4467600882053375,0.9780754446983337
1782814996473354000,5.70835400390625,-1.7397239208221436,-0.312847763299942,0.8409712910652161
1782814996493436000,5.728435791015625,-1.6123100519180298,-0.24005936086177826,0.6383959054946899
1782814996513518800,5.748518798828125,-1.5755642652511597,-0.2512383759021759,0.41226819157600403
1782814996533600800,5.768600830078125,-1.6055432558059692,-0.2420935332775116,0.2229030728340149
1782814996553682700,5.7886826171875,-1.664554476737976,-0.2178552895784378,0.08693055063486099
1782814996573765600,5.808765625,-1.6858402490615845,-0.22353655099868774,-0.011992106214165688
1782814996593847800,5.828847900390625,-1.6696250438690186,-0.24990059435367584,-0.07125558704137802
1782814996613929700,5.8489296875,-1.6859080791473389,-0.2538386881351471,-0.07835879176855087
1782814996634013000,5.869012939453125,-1.7066129446029663,-0.24095822870731354,-0.03597429394721985
1782814996654094800,5.8890947265625,-1.6862057447433472,-0.15499264001846313,0.05129588767886162
1782814996674177000,5.909177001953125,-1.6861953735351562,0.0060480679385364056,0.15780919790267944
1782814996694260000,5.929260009765625,-1.721420168876648,0.057616353034973145,0.20706278085708618
1782814996714342000,5.949341796875,-1.7774584293365479,0.004876956809312105,0.17631155252456665
1782814996734423800,5.969423828125,-1.8720444440841675,-0.13100457191467285,0.025168687105178833
1782814996754506800,5.9895068359375,-1.9707512855529785,-0.3587763011455536,-0.22016386687755585
1782814996774589000,6.0095888671875,-2.087313652038574,-0.511371374130249,-0.4316875636577606
1782814996794671900,6.029671875,-2.2121503353118896,-0.5402140617370605,-0.5890049934387207
1782814996814753800,6.04975390625,-2.269580841064453,-0.42883211374282837,-0.7037360668182373
1782814996834835700,6.069835693359375,-2.2443439960479736,-0.28560754656791687,-0.7604648470878601
1782814996854918700,6.089918701171875,-2.166969060897827,-0.08056493103504181,-0.6995930075645447
1782814996875000800,6.110000732421875,-2.05587100982666,0.15974099934101105,-0.5095667839050293
1782814996895082800,6.130082763671875,-1.9188942909240723,0.34741663932800293,-0.25149568915367126
1782814996915166000,6.150166015625,-1.7991280555725098,0.3723548352718353,-0.04278963804244995
1782814996935248000,6.170247802734375,-1.687996745109558,0.2197844535112381,0.04655531793832779
1782814996955329800,6.190329833984375,-1.5614033937454224,-0.027114219963550568,0.027852900326251984
1782814996975412700,6.210412841796875,-1.4561669826507568,-0.2515850365161896,-0.020860187709331512
1782814996995495000,6.230494873046875,-1.4157533645629883,-0.3684310019016266,-0.06720498204231262
1782814997015576800,6.250576904296875,-1.3932993412017822,-0.3028155565261841,-0.09447487443685532
1782814997035660800,6.270660888671875,-1.3627047538757324,-0.20252563059329987,-0.11469800025224686
1782814997055742700,6.29074267578125,-1.2972209453582764,-0.13682261109352112,-0.1442934274673462
1782814997075824600,6.31082470703125,-1.220262885093689,-0.10231621563434601,-0.15816287696361542
1782814997095907800,6.330907958984375,-1.157790184020996,-0.06647966057062149,-0.1357230842113495
1782814997115990000,6.350989990234375,-1.093241810798645,-0.009618895128369331,-0.09263842552900314
1782814997136073000,6.371072998046875,-1.0184282064437866,0.06812067329883575,-0.03421725705265999
1782814997156155000,6.39115478515625,-0.9282193779945374,0.06991928815841675,0.000757381203584373
1782814997176236800,6.41123681640625,-0.8407034277915955,0.05386343598365784,0.02070607617497444
1782814997196319700,6.43131982421875,-0.795116126537323,-0.0038242414593696594,0.026086945086717606
1782814997216402000,6.45140185546875,-0.7522034049034119,-4.568137228488922e-7,0.03302923962473869
1782814997236483800,6.47148388671875,-0.6852798461914062,0.059672001749277115,0.03785397857427597
1782814997256566800,6.49156689453125,-0.6105412244796753,0.03520944342017174,0.03569616377353668
1782814997276648700,6.511648681640625,-0.5219587087631226,-0.05221454054117203,0.018946129828691483
1782814997296731000,6.53173095703125,-0.4470635652542114,-0.1372329294681549,-0.015270977281033993
1782814997316813800,6.551813720703125,-0.3889789283275604,-0.18099559843540192,-0.03264982998371124
1782814997336895700,6.571895751953125,-0.3297100067138672,-0.14006738364696503,0.007783311419188976
1782814997356977700,6.591977783203125,-0.2468985617160797,-0.07502622902393341,0.08009472489356995
1782814997377060900,6.612060791015625,-0.1540738344192505,0.0041582235135138035,0.17099417746067047
1782814997397142800,6.632142822265625,-0.07912348955869675,0.018946465104818344,0.27923348546028137
1782814997417225000,6.652224853515625,-0.0541561096906662,-0.019066091626882553,0.39519357681274414
1782814997437308000,6.672307861328125,-0.020511457696557045,-0.00041186530143022537,0.5073276162147522
1782814997457389800,6.692389892578125,-0.01054408960044384,0.036128703504800797,0.6048032641410828
1782814997477472800,6.71247265625,0.010708487592637539,0.05426127463579178,0.6632645726203918
1782814997497554700,6.7325546875,0.043098535388708115,0.021949775516986847,0.6636778712272644
1782814997517636900,6.752636962890625,0.07434526085853577,-0.09129627048969269,0.6118085384368896
1782814997537719800,6.7727197265625,0.11884544789791107,-0.1636287271976471,0.5230427980422974
1782814997557801700,6.7928017578125,0.15965455770492554,-0.25979065895080566,0.3923080563545227
1782814997577883600,6.812883544921875,0.13164463639259338,-0.3720281720161438,0.20940053462982178
1782814997597966800,6.832966796875,0.06725936383008957,-0.4319429099559784,0.04305218905210495
1782814997618049000,6.853049072265625,0.04322027787566185,-0.44347161054611206,-0.051322728395462036
1782814997638131000,6.873130859375,0.052462346851825714,-0.44774067401885986,-0.08094636350870132
1782814997658214000,6.8932138671875,0.018056310713291168,-0.36660176515579224,-0.040402013808488846
1782814997678295800,6.9132958984375,-0.06837928295135498,-0.12336819618940353,0.07154493778944016
1782814997698377700,6.933377685546875,-0.1498352587223053,0.07963764667510986,0.1986384391784668
1782814997718460700,6.953460693359375,-0.1835348755121231,0.09643572568893433,0.24339988827705383
1782814997738542800,6.97354296875,-0.20275825262069702,0.05723148584365845,0.20134687423706055
1782814997758624800,6.993624755859375,-0.20662778615951538,0.021786265075206757,0.1143602579832077
1782814997778707700,7.013707763671875,-0.21644973754882812,-0.04147841036319733,0.044193752110004425
1782814997798789600,7.03378955078125,-0.22532233595848083,-0.07821893692016602,0.02465697005391121
1782814997818871800,7.053871826171875,-0.23145362734794617,-0.08716435730457306,0.03174499422311783
1782814997838955000,7.073955078125,-0.2682259976863861,-0.11175818741321564,0.03718407824635506
1782814997859037000,7.094036865234375,-0.3552912771701813,-0.12080983817577362,-0.0016506563406437635
1782814997879118800,7.114118896484375,-0.45023801922798157,-0.12739954888820648,-0.10939829796552658
1782814997899201800,7.134201904296875,-0.5065204501152039,-0.07410596311092377,-0.2412688434123993
1782814997919284000,7.154283935546875,-0.52082359790802,0.04842032119631767,-0.33641907572746277
1782814997939367000,7.174366943359375,-0.5157409906387329,0.2088635265827179,-0.3578985333442688
1782814997959448800,7.19444873046875,-0.4968743622303009,0.3722386360168457,-0.2876679003238678
1782814997979530800,7.21453076171875,-0.46578043699264526,0.4926072955131531,-0.17049981653690338
1782814997999613700,7.23461376953125,-0.4389681816101074,0.47606679797172546,-0.09210570901632309
1782814998019695900,7.25469580078125,-0.39732152223587036,0.38263148069381714,-0.06317194551229477
1782814998039777000,7.274777099609375,-0.363351434469223,0.2346431016921997,-0.06727138161659241
1782814998059860200,7.294860107421875,-0.35125815868377686,0.10711734741926193,-0.08408880978822708
1782814998079942100,7.314942138671875,-0.3795383870601654,0.04626448079943657,-0.1215396597981453
1782814998100024300,7.3350244140625,-0.41013264656066895,0.06799696385860443,-0.18422891199588776
1782814998120107300,7.355107177734375,-0.43701186776161194,0.07029938697814941,-0.2510862946510315
1782814998140189200,7.375189208984375,-0.4334689974784851,0.032825637608766556,-0.29035478830337524
1782814998160271000,7.39527099609375,-0.4045143127441406,-0.006889017764478922,-0.25820404291152954
1782814998180354000,7.41535400390625,-0.3770400881767273,-0.057590097188949585,-0.13724727928638458
1782814998200436200,7.435436279296875,-0.38698965311050415,-0.07452132552862167,0.04548075422644615
1782814998220518100,7.45551806640625,-0.4081413149833679,-0.114571213722229,0.21233394742012024
1782814998240601000,7.47560107421875,-0.443364679813385,-0.16818340122699738,0.3191084563732147
1782814998260683000,7.49568310546875,-0.5010278820991516,-0.2306205779314041,0.3587058186531067
1782814998280765200,7.51576513671875,-0.5554506778717041,-0.24861033260822296,0.36752796173095703
1782814998300848000,7.53584814453125,-0.5958327054977417,-0.1590927243232727,0.40192070603370667
1782814998320930300,7.555930419921875,-0.6500518918037415,-0.1376611888408661,0.4492603540420532
1782814998341012200,7.57601220703125,-0.736876904964447,-0.26261472702026367,0.4414980113506317
1782814998361095200,7.59609521484375,-0.7823537588119507,-0.2607139050960541,0.3886367678642273
1782814998381177000,7.616177001953125,-0.8304612040519714,-0.32780730724334717,0.25953006744384766
1782814998401259300,7.63625927734375,-0.7787917852401733,-0.3608323335647583,0.15808488428592682
1782814998421342200,7.65634228515625,-0.6443251967430115,-0.26287952065467834,0.19647257030010223
1782814998441424100,7.676424072265625,-0.5340890884399414,0.027571672573685646,0.3603246808052063
1782814998461506000,7.696506103515625,-0.4900004267692566,0.39905861020088196,0.4957047402858734
1782814998481589000,7.716589111328125,-0.4529094398021698,0.5071335434913635,0.49459320306777954
1782814998501671200,7.736671142578125,-0.4370567798614502,0.4498278498649597,0.380708783864975
1782814998521754400,7.75675439453125,-0.39221465587615967,0.28722649812698364,0.17530743777751923
1782814998541836300,7.776836181640625,-0.2697754204273224,0.1873759925365448,-0.017467476427555084
1782814998561918200,7.796918212890625,-0.1901797354221344,0.11354146897792816,-0.12447758764028549
1782814998582001200,7.817001220703125,-0.20414970815181732,0.03464739769697189,-0.08884281665086746
1782814998602083300,7.837083251953125,-0.26825520396232605,-0.051419422030448914,0.017178069800138474
1782814998622165200,7.857165283203125,-0.32573413848876953,-0.10419203341007233,0.08901277184486389
1782814998642248200,7.877248291015625,-0.36428505182266235,-0.1306392103433609,0.07196751981973648
1782814998662330000,7.897330078125,-0.38781267404556274,-0.10025064647197723,0.02681848779320717
1782814998682412000,7.917412109375,-0.4226020276546478,0.0182042233645916,0.01382181141525507
1782814998702495000,7.937494873046875,-0.4955194890499115,0.20151397585868835,0.03785935044288635
1782814998722577200,7.9575771484375,-0.5973953008651733,0.20176522433757782,0.026007145643234253
1782814998742659000,7.9776591796875,-0.6172236204147339,0.01721002906560898,-0.07660204917192459
1782814998762742000,7.997741943359375,-0.5347520709037781,-0.14886970818042755,-0.21754993498325348
1782814998782824000,8.017823974609374,-0.44637712836265564,-0.25301504135131836,-0.30973148345947266
1782814998802906000,8.037906005859375,-0.39486971497535706,-0.2001359909772873,-0.29582545161247253
1782814998822989300,8.0579892578125,-0.36717233061790466,0.049471329897642136,-0.15759894251823425
1782814998843071200,8.0780712890625,-0.34503626823425293,0.360268235206604,0.00534338504076004
1782814998863153200,8.098153076171876,-0.2778104841709137,0.5747599005699158,0.15232643485069275
1782814998883236000,8.118236083984375,-0.16292834281921387,0.48686984181404114,0.21136586368083954
1782814998903318300,8.138318359375,-0.08571656793355942,0.20913538336753845,0.2067483812570572
1782814998923400200,8.158400146484375,-0.07239124923944473,-0.0715567022562027,0.14292888343334198
1782814998943483100,8.178483154296876,-0.10117635875940323,-0.27835360169410706,0.025111109018325806
1782814998963565000,8.19856494140625,-0.13053247332572937,-0.3831350803375244,-0.11808623373508453
1782814998983647200,8.218647216796874,-0.1436500996351242,-0.4226815104484558,-0.235407292842865
1782814999003730200,8.238730224609375,-0.13132093846797943,-0.41029092669487,-0.2767897844314575
1782814999023812000,8.25881201171875,-0.12285840511322021,-0.3590991795063019,-0.26597878336906433
1782814999043894800,8.278894775390626,-0.11722049862146378,-0.23267963528633118,-0.2571306526660919
1782814999063977700,8.298977783203124,-0.0831490159034729,-0.08408956974744797,-0.2691473066806793
1782814999084059600,8.3190595703125,-0.03184261545538902,0.048874381929636,-0.26611924171447754
1782814999104141800,8.339141845703125,0.04035229608416557,0.127488374710083,-0.20603518187999725
1782814999124224800,8.359224853515625,0.13007301092147827,0.1647985577583313,-0.08450556546449661
1782814999144306700,8.379306640625,0.1949201077222824,0.1735488623380661,0.03700389340519905
1782814999164388600,8.399388671875,0.22651292383670807,0.15453992784023285,0.08210796862840652
1782814999184471600,8.419471435546875,0.2530664801597595,0.04664548859000206,0.05209589749574661
1782814999204553700,8.4395537109375,0.29917892813682556,-0.018617626279592514,0.012746685184538364
1782814999224635600,8.4596357421875,0.3329060971736908,0.002430375199764967,-0.0008246127981692553
1782814999244718600,8.479718505859376,0.35513952374458313,0.13466504216194153,0.01696101576089859
1782814999264800500,8.499800537109374,0.361402690410614,0.01998894475400448,0.011398518458008766
1782814999284882400,8.51988232421875,0.3694325089454651,-0.061201609671115875,0.034627288579940796
1782814999304965600,8.539965576171875,0.35828906297683716,0.015238222666084766,0.09513774514198303
1782814999325047800,8.5600478515625,0.31968000531196594,0.04166741296648979,0.1182878389954567
1782814999345129700,8.580129638671876,0.30767038464546204,0.028046436607837677,0.12231623381376266
1782814999365212700,8.600212646484374,0.33063676953315735,0.06376340240240097,0.16098202764987946
1782814999385294600,8.620294677734375,0.36570385098457336,0.14973311126232147,0.26973041892051697
1782814999405376800,8.640376708984375,0.37608852982521057,0.17208729684352875,0.4038054645061493
1782814999425459700,8.660459716796876,0.38305914402008057,0.07679826766252518,0.49633511900901794
1782814999445541600,8.680541748046876,0.36300894618034363,-0.021623507142066956,0.517401933670044
1782814999465623600,8.70062353515625,0.3406478464603424,-0.06999705731868744,0.470431387424469
1782814999485706500,8.72070654296875,0.30434828996658325,-0.08365057408809662,0.36850571632385254
1782814999505788700,8.74078857421875,0.2722085416316986,-0.022739306092262268,0.2574428617954254
1782814999525870600,8.76087060546875,0.22141948342323303,0.09951679408550262,0.17168433964252472
1782814999545953800,8.780953857421874,0.1563408225774765,0.1907200813293457,0.11103101819753647
1782814999566035700,8.80103564453125,0.08636536449193954,0.21261286735534668,0.0843527689576149
1782814999586117600,8.82111767578125,0.03822222724556923,0.1318519115447998,0.06641118973493576
1782814999606200600,8.84120068359375,0.026686908677220345,0.026113515719771385,0.054865289479494095
1782814999626282800,8.86128271484375,0.023138809949159622,-0.042575158178806305,0.06039969250559807
1782814999646364700,8.88136474609375,-0.011646272614598274,-0.047125838696956635,0.10841736942529678
1782814999666447600,8.901447509765624,-0.058372918516397476,0.0252196304500103,0.1610688716173172
1782814999686529500,8.921529541015625,-0.12687590718269348,0.06386566907167435,0.1627712845802307
1782814999706611700,8.94161181640625,-0.22361497581005096,0.08649773895740509,0.12153822928667068
1782814999726694700,8.961694580078126,-0.29502400755882263,0.09197162836790085,0.03917207941412926
1782814999746776600,8.981776611328126,-0.3444305956363678,0.08082637935876846,-0.064658984541893
1782814999766858500,9.0018583984375,-0.3907192051410675,0.009694008156657219,-0.16092818975448608
1782814999786941700,9.021941650390625,-0.43714842200279236,-0.08459995687007904,-0.22474305331707
1782814999807023900,9.04202392578125,-0.5107136368751526,-0.21987590193748474,-0.28966763615608215
1782814999827105800,9.062105712890625,-0.5902183055877686,-0.3107181489467621,-0.3672676980495453
1782814999847188700,9.082188720703124,-0.6326308250427246,-0.14141350984573364,-0.39811259508132935
1782814999867270700,9.102270751953125,-0.6381164789199829,0.20441557466983795,-0.36288753151893616
1782814999887352800,9.122352783203125,-0.5960612893104553,0.49595630168914795,-0.2804737389087677
1782814999907435800,9.142435791015625,-0.5462517142295837,0.4634912312030792,-0.1998066008090973
1782814999927517700,9.162517578125,-0.5379446744918823,0.23020201921463013,-0.17658738791942596
1782814999947599600,9.182599609375,-0.5316646695137024,0.0548197403550148,-0.2383238822221756
1782814999967682600,9.2026826171875,-0.5061772465705872,-0.11603444814682007,-0.2789228558540344
1782814999987764500,9.222764404296875,-0.4852036237716675,-0.22455187141895294,-0.23115389049053192
1782815000007846700,9.2428466796875,-0.4636284410953522,-0.2841373682022095,-0.15643060207366943
1782815000027929600,9.2629296875,-0.4106189012527466,-0.40701764822006226,-0.08620452135801315
1782815000048011500,9.283011474609374,-0.34561294317245483,-0.5717762112617493,-0.10027633607387543
1782815000068093400,9.303093505859374,-0.16834358870983124,-0.48518404364585876,-0.1387072205543518
1782815000088803600,9.323803466796875,-0.08693135529756546,-0.5907863974571228,-0.23357786238193512
1782815000108885500,9.343885498046875,-0.14024244248867035,-0.6364660859107971,-0.2811107337474823
1782815000128967400,9.363967529296875,-0.17544016242027283,-0.4910583794116974,-0.24324212968349457
1782815000149050400,9.38405029296875,-0.21911507844924927,-0.37529876828193665,-0.18066978454589844
1782815000169132500,9.404132568359374,-0.296487420797348,-0.34347090125083923,-0.12181979417800903
1782815000189214500,9.42421435546875,-0.33712083101272583,-0.24634206295013428,-0.05374496802687645
1782815000209297400,9.44429736328125,-0.3385041058063507,0.022320827469229698,0.04568002372980118
1782815000229379300,9.46437939453125,-0.34273001551628113,0.23374412953853607,0.13190625607967377
1782815000249461500,9.48446142578125,-0.3100370168685913,0.1720452755689621,0.1710449755191803
1782815000269543700,9.504543701171874,-0.25357404351234436,0.09273214638233185,0.1818527728319168
1782815000289626600,9.524626708984375,-0.20151503384113312,0.08021648228168488,0.2011253535747528
1782815000309708500,9.54470849609375,-0.1711280196905136,0.020197855308651924,0.22618480026721954
1782815000329790700,9.564790771484375,-0.14757032692432404,-0.11418674886226654,0.21696598827838898
1782815000349873700,9.584873779296874,-0.12614519894123077,-0.24068059027194977,0.20350049436092377
1782815000369955600,9.60495556640625,-0.12318892776966095,-0.2622220814228058,0.1959669142961502
1782815000390037500,9.62503759765625,-0.12808924913406372,-0.21026068925857544,0.17895078659057617
1782815000410748400,9.64574853515625,-0.14554892480373383,-0.1552760899066925,0.15050314366817474
1782815000430831400,9.665831298828126,-0.17657756805419922,-0.13992448151111603,0.09527955949306488
1782815000450913500,9.68591357421875,-0.1903582066297531,-0.2029387503862381,0.04788673296570778
1782815000470995500,9.705995361328124,-0.179977148771286,-0.18744507431983948,0.05193750560283661
1782815000491078700,9.72607861328125,-0.1523096263408661,-0.07913745939731598,0.10275956988334656
1782815000511160600,9.74616064453125,-0.1445973813533783,0.004766765981912613,0.1656796783208847
1782815000531242500,9.766242431640626,-0.13882361352443695,0.01692250743508339,0.19778768718242645
1782815000551325400,9.786325439453124,-0.10463114827871323,-0.052404001355171204,0.22358064353466034
1782815000571407600,9.80640771484375,-0.047281455248594284,-0.10321615636348724,0.2550339102745056
1782815000591489500,9.826489501953125,-0.0089676883071661,-0.047792885452508926,0.27323365211486816
1782815000611572500,9.846572509765625,-0.015181506052613258,-0.2679682970046997,0.1678498089313507
1782815000631654400,9.866654296875,-0.029678454622626305,-0.5151054859161377,0.017956102266907692
1782815000651736600,9.886736572265624,-0.009453355334699154,-0.4693937599658966,-0.08069126307964325
1782815000671819500,9.906819580078125,0.009264114312827587,-0.296294242143631,-0.1408284604549408
1782815000691901400,9.9269013671875,0.016470571979880333,-0.13291442394256592,-0.16257816553115845
1782815000711983400,9.9469833984375,0.024012897163629532,-0.03271140530705452,-0.1328592747449875
1782815000732066600,9.967066650390626,0.055315855890512466,0.07925687730312347,-0.025276413187384605
1782815000752148700,9.987148681640624,0.0866604745388031,0.14925682544708252,0.03941085562109947
1782815000772230700,10.007230712890625,0.18202689290046692,0.1356302946805954,0.01912611909210682
1782815000792313600,10.027313720703125,0.31630241870880127,0.16708773374557495,0.021097101271152496
1782815000812395500,10.0473955078125,0.41586533188819885,0.16916632652282715,0.033634234219789505
1782815000832477700,10.067477783203126,0.4379581809043884,0.022345125675201416,0.056581463664770126
1782815000852560600,10.087560546875,0.4179445803165436,-0.19040626287460327,0.11498371511697769
1782815000872642600,10.107642578125,0.3830065429210663,-0.2723899185657501,0.20627693831920624
1782815000892724500,10.127724365234375,0.3597412705421448,-0.17662183940410614,0.2844088673591614
1782815000912807400,10.147807373046875,0.32303768396377563,-0.00215916964225471,0.30649492144584656
1782815000932889300,10.167889404296876,0.28452903032302856,0.08229364454746246,0.2758409082889557
1782815000952971500,10.187971435546874,0.26162394881248474,0.09982006996870041,0.24278949201107025
1782815000973054700,10.2080546875,0.2661243975162506,0.09375257045030594,0.21727722883224487
1782815000993136600,10.22813671875,0.2660468518733978,0.06641750782728195,0.18025825917720795
1782815001013218600,10.248218505859375,0.2635077238082886,0.010886359959840775,0.14010216295719147
1782815001033301500,10.268301513671876,0.25438976287841797,0.05829145386815071,0.09227001667022705
1782815001053382700,10.288382568359374,0.23832738399505615,0.07635688781738281,-0.0058570364490151405
1782815001073464600,10.308464599609374,0.2084679901599884,0.04948299378156662,-0.15020620822906494
1782815001093547500,10.328547607421875,0.21120665967464447,0.060315873473882675,-0.28985628485679626
1782815001113629700,10.348629638671875,0.26211217045783997,0.10796785354614258,-0.3162531852722168
1782815001133711600,10.368711669921876,0.3180435597896576,0.23928867280483246,-0.20126307010650635
1782815001153794800,10.388794921875,0.3431774377822876,0.36840808391571045,-0.037067003548145294
1782815001173876700,10.408876708984375,0.33604395389556885,0.3682069480419159,0.04491572082042694
1782815001193958700,10.428958740234375,0.3520922064781189,0.22400140762329102,0.04086434096097946
1782815001214040800,10.449040771484375,0.3578280508518219,0.13452422618865967,0.039008986204862595
1782815001234123800,10.469123779296876,0.34827539324760437,0.14119753241539001,0.05578653886914253
1782815001254205700,10.489205810546874,0.3210328221321106,0.14486531913280487,0.051117777824401855
1782815001274287600,10.50928759765625,0.27105292677879333,0.15953847765922546,-0.0002573251258581877
1782815001294370600,10.52937060546875,0.22974510490894318,0.06801517307758331,-0.10026440769433975
1782815001314452700,10.54945263671875,0.1965201199054718,0.060465164482593536,-0.13755393028259277
1782815001334534700,10.56953466796875,0.1983293890953064,-0.009846944361925125,-0.2110479474067688
1782815001354617600,10.58961767578125,0.19864675402641296,-0.1141006201505661,-0.350411057472229
1782815001374699500,10.609699462890624,0.20410479605197906,0.018170170485973358,-0.4756680428981781
