time,seconds_elapsed,z,y,x
1782815247710844200,0.06984423828125,-0.4665188491344452,-0.0673661082983017,-0.03048696182668209
1782815247730926000,0.089926025390625,-0.43125152587890625,-0.1809832751750946,-0.05384014546871185
1782815247751008000,0.110008056640625,-0.4087066352367401,-0.2370847910642624,-0.10877105593681335
1782815247771090000,0.13008984375,-0.39544162154197693,-0.21216653287410736,-0.13345228135585785
1782815247791172000,0.150172119140625,-0.38473185896873474,-0.19131548702716827,-0.10786377638578415
1782815247811254000,0.17025390625,-0.39087021350860596,-0.1708088219165802,-0.027535153552889824
1782815247831336000,0.1903359375,-0.38460031151771545,-0.14775913953781128,0.06775454431772232
1782815247851418000,0.210418212890625,-0.3737189471721649,-0.18180501461029053,0.13951168954372406
1782815247871501000,0.2305009765625,-0.37223878502845764,-0.2198653370141983,0.19755668938159943
1782815247891583000,0.2505830078125,-0.372879296541214,-0.25399065017700195,0.23442652821540833
1782815247911665000,0.270664794921875,-0.371687114238739,-0.29699012637138367,0.24032078683376312
1782815247931747000,0.2907470703125,-0.3728794753551483,-0.30252572894096375,0.23677347600460052
1782815247951829000,0.3108291015625,-0.3652820587158203,-0.2939611077308655,0.2512112557888031
1782815247971911000,0.330910888671875,-0.34201759099960327,-0.24615700542926788,0.3146533966064453
1782815247991992800,0.350992919921875,-0.3023606240749359,-0.16227374970912933,0.39427444338798523
1782815248012075000,0.371074951171875,-0.28501924872398376,-0.2626710534095764,0.3922164738178253
1782815248032157000,0.391156982421875,-0.2848820090293884,-0.3212514817714691,0.38133347034454346
1782815248052238800,0.41123876953125,-0.2745479941368103,-0.2760069668292999,0.4063672423362732
1782815248072321000,0.431321044921875,-0.2669612467288971,-0.2119949907064438,0.43934422731399536
1782815248092403000,0.45140283203125,-0.24237795174121857,-0.0941409319639206,0.4579492509365082
1782815248112486000,0.47148583984375,-0.2237943410873413,0.015463737770915031,0.4299544394016266
1782815248132567800,0.49156787109375,-0.23544619977474213,0.03717862069606781,0.37420570850372314
1782815248152650000,0.51164990234375,-0.27841416001319885,-0.08056248724460602,0.2821212410926819
1782815248172732000,0.53173193359375,-0.30179911851882935,-0.1524384617805481,0.2043943703174591
1782815248192813800,0.551813720703125,-0.3128693997859955,-0.08099555969238281,0.18806789815425873
1782815248212895700,0.571895751953125,-0.31810232996940613,-0.011675041168928146,0.21174350380897522
1782815248232978000,0.59197802734375,-0.3287242352962494,0.04116472229361534,0.25870418548583984
1782815248253059800,0.612059814453125,-0.343904048204422,0.033908456563949585,0.28270408511161804
1782815248273141800,0.632141845703125,-0.36059319972991943,0.009532419964671135,0.25814691185951233
1782815248293224400,0.652224365234375,-0.36221837997436523,-0.03603105619549751,0.16735698282718658
1782815248313306600,0.672306640625,-0.3642176687717438,-0.07652241736650467,0.05139053612947464
1782815248333388500,0.692388427734375,-0.3643217980861664,-0.06598490476608276,-0.039836134761571884
1782815248353471700,0.7124716796875,-0.36836177110671997,-0.10803396999835968,-0.08761968463659286
1782815248373553700,0.7325537109375,-0.3629301190376282,-0.17008820176124573,-0.09011893719434738
1782815248393635800,0.7526357421875,-0.3217102587223053,-0.16844360530376434,-0.035989630967378616
1782815248413717800,0.7727177734375,-0.24898868799209595,-0.12738142907619476,0.04823756963014603
1782815248433799700,0.792799560546875,-0.16249249875545502,-0.05052283778786659,0.11992356926202774
1782815248453881900,0.8128818359375,-0.11277144402265549,-0.10212542116641998,0.12937088310718536
1782815248473963800,0.8329638671875,-0.09825596213340759,-0.23758094012737274,0.07876958698034286
1782815248494045700,0.853045654296875,-0.09152235835790634,-0.2975841462612152,0.005875376984477043
1782815248514127600,0.873127685546875,-0.11713739484548569,-0.29652833938598633,-0.05750637501478195
1782815248534209800,0.893209716796875,-0.15599128603935242,-0.23297756910324097,-0.051075711846351624
1782815248554291700,0.913291748046875,-0.21752731502056122,-0.09345737844705582,0.03493555635213852
1782815248574373600,0.93337353515625,-0.2692667245864868,0.047142136842012405,0.17112530767917633
1782815248594456600,0.95345654296875,-0.27925345301628113,0.0986468642950058,0.27612125873565674
1782815248614538800,0.973538818359375,-0.29516908526420593,0.0393424853682518,0.33749693632125854
1782815248634620700,0.99362060546875,-0.38406044244766235,-0.1422697901725769,0.38466572761535645
1782815248654702600,1.01370263671875,-0.5221324563026428,-0.36085274815559387,0.38688793778419495
1782815248674784800,1.03378466796875,-0.6800384521484375,-0.43499746918678284,0.34184566140174866
1782815248694866700,1.05386669921875,-0.8139329552650452,-0.37625446915626526,0.3025290071964264
1782815248714948600,1.073948486328125,-0.9344353079795837,-0.3425086438655853,0.3071231544017792
1782815248735030500,1.094030517578125,-1.0388572216033936,-0.47657081484794617,0.37228819727897644
1782815248755112700,1.11411279296875,-1.1591776609420776,-0.6671266555786133,0.5039188265800476
1782815248775194600,1.134194580078125,-1.2815985679626465,-0.8581963777542114,0.6718555688858032
1782815248795276500,1.154276611328125,-1.412988543510437,-1.0294989347457886,0.8180699944496155
1782815248815358700,1.174358642578125,-1.5638457536697388,-1.137293815612793,0.8970040082931519
1782815248835440600,1.194440673828125,-1.7874572277069092,-1.22170090675354,0.8519204258918762
1782815248855523600,1.214523681640625,-2.057141065597534,-1.2709673643112183,0.6490606665611267
1782815248875605500,1.23460546875,-2.306093692779541,-1.2973545789718628,0.32305702567100525
1782815248895687700,1.254687744140625,-2.5193288326263428,-1.2185099124908447,-0.0034946852829307318
1782815248915769600,1.27476953125,-2.7245123386383057,-1.097687005996704,-0.2667393386363983
1782815248935851500,1.2948515625,-2.932861328125,-1.023964285850525,-0.43398967385292053
1782815248955933700,1.31493359375,-3.0898900032043457,-1.0026220083236694,-0.5017394423484802
1782815248976015600,1.335015625,-3.190477132797241,-0.9937338829040527,-0.4913701117038727
1782815248996097500,1.35509765625,-3.26690673828125,-1.0065337419509888,-0.433627724647522
1782815249016179500,1.375179443359375,-3.3444111347198486,-1.0309094190597534,-0.3841424882411957
1782815249036261600,1.39526171875,-3.4210784435272217,-1.0544854402542114,-0.3914550542831421
1782815249056343600,1.415343505859375,-3.4839987754821777,-1.0548832416534424,-0.44534730911254883
1782815249076425500,1.435425537109375,-3.5263924598693848,-1.0647528171539307,-0.4916793704032898
1782815249096508700,1.4555087890625,-3.566476583480835,-1.055822491645813,-0.49056291580200195
1782815249116590800,1.4755908203125,-3.6107499599456787,-1.0198817253112793,-0.45864298939704895
1782815249136672800,1.4956728515625,-3.6148486137390137,-0.9937533736228943,-0.42753276228904724
1782815249156754700,1.515754638671875,-3.59179949760437,-0.9635589718818665,-0.39134830236434937
1782815249176836600,1.535836669921875,-3.527475357055664,-0.9354467988014221,-0.34449008107185364
1782815249196918800,1.555918701171875,-3.438169002532959,-0.9261186718940735,-0.2646971642971039
1782815249217000700,1.576000732421875,-3.355029344558716,-0.8855950832366943,-0.11874962598085403
1782815249237082600,1.59608251953125,-3.310405731201172,-0.9001435041427612,0.015287620946764946
1782815249257164800,1.616164794921875,-3.287377119064331,-0.9207084774971008,0.06485357880592346
1782815249277246700,1.636246826171875,-3.2481555938720703,-0.8590630292892456,0.029130078852176666
1782815249297327900,1.656327880859375,-3.1898539066314697,-0.7563074827194214,-0.008128632791340351
1782815249317409800,1.676409912109375,-3.135293483734131,-0.7140454053878784,-0.016105005517601967
1782815249337492700,1.69649267578125,-3.1113743782043457,-0.7237023711204529,-0.000656073447316885
1782815249357574700,1.71657470703125,-3.0891306400299072,-0.742167592048645,-0.012515168637037277
1782815249377656600,1.736656494140625,-3.0428454875946045,-0.7616930603981018,-0.06770911812782288
1782815249397738800,1.75673876953125,-2.96622633934021,-0.7912483215332031,-0.13654880225658417
1782815249417820700,1.776820556640625,-2.8513567447662354,-0.7601380348205566,-0.1599414199590683
1782815249437902600,1.796902587890625,-2.723618268966675,-0.6908456087112427,-0.1409730464220047
1782815249457984800,1.81698486328125,-2.581777811050415,-0.5630402565002441,-0.048567600548267365
1782815249478066700,1.837066650390625,-2.436917304992676,-0.504812479019165,0.04860176891088486
1782815249498148600,1.857148681640625,-2.27951979637146,-0.48739123344421387,0.07975424081087112
1782815249518231000,1.87723095703125,-2.132678508758545,-0.46751639246940613,0.028813671320676804
1782815249538313000,1.89731298828125,-1.992127776145935,-0.3712811768054962,-0.04771506041288376
1782815249558395000,1.917394775390625,-1.8468934297561646,-0.2137914001941681,-0.08977020531892776
1782815249578476800,1.937476806640625,-1.6893190145492554,-0.07780955731868744,-0.05766437202692032
1782815249598559700,1.957559814453125,-1.5321904420852661,0.02320241741836071,0.0019215433858335018
1782815249618642000,1.977641845703125,-1.3770506381988525,0.03215807303786278,0.03253677859902382
1782815249638723800,1.997723876953125,-1.226636528968811,-0.04052352160215378,0.0287281833589077
1782815249658805800,2.0178056640625,-1.0633465051651,-0.16134577989578247,-0.012868696823716164
1782815249678888000,2.037887939453125,-0.8898236751556396,-0.22060708701610565,-0.04419175162911415
1782815249698969900,2.057969970703125,-0.7469159364700317,-0.2398262321949005,-0.028756679967045784
1782815249719051800,2.0780517578125,-0.6038461923599243,-0.23563553392887115,0.013482325710356236
1782815249739134000,2.098134033203125,-0.4922711253166199,-0.22566743195056915,0.0387144573032856
1782815249759215900,2.1182158203125,-0.41075876355171204,-0.1881534904241562,0.02394847944378853
1782815249779297800,2.1382978515625,-0.33581262826919556,-0.12339535355567932,-0.02278449386358261
1782815249799379700,2.158379638671875,-0.26330557465553284,-0.0472489558160305,-0.06466013193130493
1782815249819462000,2.1784619140625,-0.20333212614059448,0.022375479340553284,-0.0852518379688263
1782815249839544800,2.198544921875,-0.13931027054786682,0.07616174966096878,-0.07829459756612778
1782815249859626800,2.218626708984375,-0.06909637898206711,0.11330524832010269,-0.0457572415471077
1782815249879708700,2.238708740234375,0.002433073241263628,0.08463224023580551,-0.030123811215162277
1782815249899790800,2.258790771484375,0.0646740198135376,0.04442973807454109,-0.04041530564427376
1782815249919872800,2.278872802734375,0.1056988462805748,0.005708368960767984,-0.07239313423633575
1782815249939954700,2.29895458984375,0.12974725663661957,-0.007720311637967825,-0.10317495465278625
1782815249960036900,2.319036865234375,0.1437137871980667,0.044107016175985336,-0.09888500720262527
1782815249980118800,2.339118896484375,0.1314314901828766,0.08040808141231537,-0.07701510190963745
1782815250000200700,2.35920068359375,0.11649352312088013,0.0788373276591301,-0.06513940542936325
1782815250020282600,2.37928271484375,0.0761241689324379,0.044033464044332504,-0.05755890533328056
1782815250040364800,2.39936474609375,0.04353277385234833,-0.06735093891620636,-0.062029603868722916
1782815250060446700,2.41944677734375,0.03576403483748436,-0.14025074243545532,-0.03385136276483536
1782815250080528600,2.439528564453125,0.024540120735764503,-0.08985434472560883,0.01748894713819027
1782815250100611600,2.459611572265625,-0.0029535768553614616,0.045307550579309464,0.02461199462413788
1782815250120693800,2.47969384765625,-0.01291060820221901,0.16191290318965912,-0.038774523884058
1782815250140775700,2.499775634765625,-0.01462553907185793,0.09983409196138382,-0.10626411437988281
1782815250160857600,2.519857666015625,-0.040053579956293106,-0.10171876847743988,-0.14568404853343964
1782815250180940000,2.53993994140625,-0.07242881506681442,-0.2150428295135498,-0.15487779676914215
1782815250201022000,2.56002197265625,-0.10052698850631714,-0.2271735817193985,-0.18956969678401947
1782815250221103900,2.580103759765625,-0.10331594944000244,-0.18535038828849792,-0.24161586165428162
1782815250241185800,2.600185791015625,-0.09291835874319077,-0.10436085611581802,-0.2576570510864258
1782815250261268000,2.62026806640625,-0.08526312559843063,0.05625366047024727,-0.21378585696220398
1782815250281350000,2.640349853515625,-0.06023889407515526,0.2373969703912735,-0.16507157683372498
1782815250301431600,2.660431640625,-0.010146595537662506,0.32649415731430054,-0.14979174733161926
1782815250321513700,2.680513671875,0.04777175560593605,0.31740498542785645,-0.11791717261075974
1782815250341595600,2.700595703125,0.06542283296585083,0.13914768397808075,-0.11220966279506683
1782815250361677600,2.720677490234375,0.0470297746360302,-0.1222638189792633,-0.1507936418056488
1782815250381760500,2.740760498046875,0.056600172072649,-0.25495728850364685,-0.26566097140312195
1782815250401842700,2.7608427734375,0.10356929153203964,-0.29470911622047424,-0.4249480664730072
1782815250421924900,2.7809248046875,0.1431439220905304,-0.4068935215473175,-0.5355584621429443
1782815250442006800,2.8010068359375,0.17452384531497955,-0.5279696583747864,-0.5806483626365662
1782815250462088700,2.821088623046875,0.181096613407135,-0.5128973722457886,-0.5639691352844238
1782815250482171000,2.8411708984375,0.21879437565803528,-0.37754926085472107,-0.5573718547821045
1782815250502252800,2.861252685546875,0.3272826075553894,-0.1732584685087204,-0.5470290780067444
1782815250522334700,2.881334716796875,0.47241100668907166,0.07504969090223312,-0.47455260157585144
1782815250542417000,2.9014169921875,0.5757190585136414,0.21777214109897614,-0.3583795428276062
1782815250562498800,2.921498779296875,0.6119101047515869,0.3433169424533844,-0.2297542840242386
1782815250582580700,2.941580810546875,0.5843861103057861,0.4184424877166748,-0.13267163932323456
1782815250602663000,2.961662841796875,0.5322121381759644,0.38992705941200256,-0.08760986477136612
1782815250622744800,2.981744873046875,0.43063247203826904,0.30839651823043823,-0.08638707548379898
1782815250642827800,3.001827880859375,0.30241116881370544,0.2512672245502472,-0.11246787756681442
1782815250662909700,3.02190966796875,0.18729373812675476,0.17284882068634033,-0.14079634845256805
1782815250682991600,3.04199169921875,0.0731431096792221,0.16017204523086548,-0.14696112275123596
1782815250703073800,3.06207373046875,-0.03399527817964554,0.1841936856508255,-0.14917390048503876
1782815250723155700,3.08215576171875,-0.11864776909351349,0.2109220325946808,-0.13663840293884277
1782815250743237600,3.102237548828125,-0.1774854212999344,0.22296713292598724,-0.09526751935482025
1782815250763319800,3.12231982421875,-0.22930151224136353,0.16632361710071564,-0.020485196262598038
1782815250783401700,3.142401611328125,-0.274625688791275,0.08654049783945084,0.08233244717121124
1782815250803483600,3.162483642578125,-0.3144952356815338,0.02101755142211914,0.1864892840385437
1782815250823565800,3.18256591796875,-0.33467915654182434,-0.042565204203128815,0.25471121072769165
1782815250843647700,3.202647705078125,-0.3263864517211914,-0.11922881752252579,0.2850930690765381
1782815250863729700,3.222729736328125,-0.3202815353870392,-0.22131717205047607,0.2829618752002716
1782815250883811800,3.242811767578125,-0.3569723963737488,-0.2684295177459717,0.2852112650871277
1782815250903893800,3.262893798828125,-0.4220498502254486,-0.21944798529148102,0.3101573586463928
1782815250923976700,3.282976806640625,-0.45920097827911377,-0.16138523817062378,0.3645971119403839
1782815250944058600,3.30305859375,-0.42411646246910095,-0.17831039428710938,0.4310491681098938
1782815250964140500,3.323140625,-0.34998783469200134,-0.22099612653255463,0.5060535669326782
1782815250984222700,3.34322265625,-0.2769777178764343,-0.3291509449481964,0.5227410793304443
1782815251004304600,3.3633046875,-0.27409547567367554,-0.5838170051574707,0.43047305941581726
1782815251024386600,3.383386474609375,-0.3469535708427429,-0.9103149771690369,0.27791765332221985
1782815251044468700,3.40346875,-0.49454647302627563,-1.1729830503463745,0.10051379352807999
1782815251064550700,3.423550537109375,-0.6227714419364929,-1.1645475625991821,0.01242860034108162
1782815251084632600,3.443632568359375,-0.7113186120986938,-0.7136091589927673,0.040173567831516266
1782815251104714800,3.46371484375,-0.7185479998588562,0.01971295289695263,0.08016084879636765
1782815251124796700,3.483796630859375,-0.6397337317466736,0.6988067626953125,0.12073930352926254
1782815251144878600,3.503878662109375,-0.5174610614776611,1.130673885345459,0.1711844652891159
1782815251164960500,3.52396044921875,-0.36853834986686707,1.1526868343353271,0.1270386427640915
1782815251185042700,3.544042724609375,-0.26337680220603943,1.1487582921981812,-0.0006960993632674217
1782815251205124600,3.56412451171875,-0.18799959123134613,0.962888777256012,-0.24918387830257416
1782815251225207800,3.584207763671875,-0.16963492333889008,0.6692032217979431,-0.5133724212646484
1782815251245289700,3.604289794921875,-0.1516302227973938,0.41247856616973877,-0.7375057935714722
1782815251265372000,3.624371826171875,-0.07329446077346802,0.17209461331367493,-0.9212295413017273
1782815251285454300,3.644454345703125,0.11231566965579987,-0.09187290817499161,-0.9876676797866821
1782815251305536300,3.664536376953125,0.3370061218738556,-0.2854277789592743,-0.8759039640426636
1782815251325618200,3.6846181640625,0.5200735330581665,-0.25037631392478943,-0.6607294678688049
1782815251345700400,3.704700439453125,0.6555397510528564,-0.10813724249601364,-0.3830689489841461
1782815251365782300,3.7247822265625,0.7519459128379822,-0.05660933628678322,-0.0846625491976738
1782815251385864200,3.7448642578125,0.8017634749412537,-0.10901087522506714,0.18154709041118622
1782815251405946400,3.7649462890625,0.7862555980682373,-0.15401680767536163,0.3540230095386505
1782815251426028300,3.7850283203125,0.7154309749603271,-0.15117910504341125,0.40639883279800415
1782815251446110200,3.805110107421875,0.6111006736755371,-0.09257248044013977,0.3325401246547699
1782815251466192100,3.825192138671875,0.4869547486305237,0.07133656740188599,0.17242661118507385
1782815251486274300,3.8452744140625,0.3774351179599762,0.2441152185201645,0.039781954139471054
1782815251506357200,3.865357177734375,0.2976718246936798,0.42880964279174805,-0.017033815383911133
1782815251526439200,3.885439208984375,0.20635941624641418,0.5199737548828125,-0.04802529886364937
1782815251546521000,3.90552099609375,0.10936518013477325,0.4820001423358917,-0.092117078602314
1782815251566603300,3.925603271484375,0.01723291352391243,0.4189068675041199,-0.14388816058635712
1782815251586685200,3.945685302734375,-0.07331331074237823,0.33894506096839905,-0.19967320561408997
1782815251606767000,3.96576708984375,-0.151401549577713,0.2966707646846771,-0.24988996982574463
1782815251626849500,3.985849609375,-0.18878372013568878,0.2886698246002197,-0.31268075108528137
1782815251646931500,4.005931396484375,-0.180644690990448,0.26504021883010864,-0.34920576214790344
1782815251667013400,4.026013427734375,-0.12672947347164154,0.21774552762508392,-0.3389643430709839
1782815251687095300,4.04609521484375,-0.05892779305577278,0.1530618667602539,-0.3244844675064087
1782815251707177500,4.066177490234375,0.00010381671017967165,0.10320010781288147,-0.3458859920501709
1782815251727259400,4.08625927734375,0.028924768790602684,0.09518015384674072,-0.374175101518631
1782815251747341300,4.10634130859375,0.04669956862926483,0.11363136768341064,-0.4225282073020935
1782815251767423500,4.126423583984375,0.06621548533439636,0.22096581757068634,-0.5248945355415344
1782815251787506400,4.14650634765625,0.09031623601913452,0.322276771068573,-0.6583232283592224
1782815251807588400,4.16658837890625,0.09348058700561523,0.3508768081665039,-0.7267805933952332
1782815251827670300,4.186670166015625,0.1147831454873085,0.38297906517982483,-0.7275961637496948
1782815251847752400,4.20675244140625,0.16214784979820251,0.34590595960617065,-0.6682198643684387
1782815251867834400,4.22683447265625,0.22435246407985687,0.23788270354270935,-0.5531241297721863
1782815251887916300,4.246916259765625,0.3042691946029663,0.1054738461971283,-0.38162073493003845
1782815251907998200,4.266998291015625,0.3921210765838623,-0.010560926049947739,-0.21742625534534454
1782815251928080400,4.287080322265625,0.49330759048461914,-0.11035376042127609,-0.10407397150993347
1782815251948162300,4.307162353515625,0.5533164143562317,-0.12762682139873505,-0.039530087262392044
1782815251968244200,4.327244140625,0.5570148825645447,-0.09388154000043869,-0.02698388136923313
1782815251988326400,4.347326416015625,0.541538655757904,-0.057758867740631104,-0.05106915533542633
1782815252008408300,4.367408203125,0.5612276792526245,-0.03452271223068237,-0.07337057590484619
1782815252028490200,4.387490234375,0.5870436429977417,-0.03485807403922081,-0.055664777755737305
1782815252048572400,4.407572509765625,0.6159164309501648,-0.062385354191064835,0.014176363125443459
1782815252068654300,4.427654296875,0.6427168846130371,-0.13543669879436493,0.09275732934474945
1782815252088737300,4.4477373046875,0.6667755842208862,-0.1955844610929489,0.1321987509727478
1782815252108819200,4.467819091796875,0.6781485676765442,-0.22943054139614105,0.12450237572193146
1782815252128901000,4.487901123046875,0.6672859787940979,-0.2304368019104004,0.116248220205307
1782815252148983300,4.5079833984375,0.6345758438110352,-0.18564926087856293,0.12171760946512222
1782815252169065200,4.528065185546875,0.6048976182937622,-0.09406778961420059,0.12239329516887665
1782815252189147100,4.548147216796875,0.5817344188690186,-0.021464630961418152,0.1136556938290596
1782815252209229300,4.568229248046875,0.562957763671875,0.05810929089784622,0.1470394730567932
1782815252229311200,4.588311279296875,0.5548955202102661,0.14402808248996735,0.18506494164466858
1782815252249393200,4.60839306640625,0.5783458948135376,0.22817838191986084,0.2338217943906784
1782815252269475300,4.628475341796875,0.6206932663917542,0.28913694620132446,0.33054423332214355
1782815252289557200,4.64855712890625,0.6686481237411499,0.2681066691875458,0.42854535579681396
1782815252309639200,4.66863916015625,0.6560937166213989,0.029212284833192825,0.3998781442642212
1782815252329721000,4.68872119140625,0.572175145149231,-0.09501770883798599,0.26620006561279297
1782815252349803300,4.70880322265625,0.36877816915512085,-0.09408751875162125,0.004760813433676958
1782815252369885200,4.72888525390625,0.09946977347135544,-0.11446575075387955,-0.27807149291038513
1782815252389967000,4.748967041015625,-0.026949351653456688,-0.18047082424163818,-0.23116996884346008
1782815252410050000,4.769050048828125,0.08111654222011566,-0.04070368781685829,0.2835337221622467
1782815252430132200,4.78913232421875,0.3076312839984894,0.1901186853647232,0.9503068327903748
1782815252450214100,4.809214111328125,0.4215967059135437,0.36959102749824524,1.4716198444366455
1782815252470296000,4.829296142578125,0.4453549087047577,0.24052947759628296,1.6895415782928467
1782815252490378200,4.849378173828125,0.3219659626483917,0.08324697613716125,1.618165135383606
1782815252510460200,4.869460205078125,0.12700772285461426,0.02003244310617447,1.3723642826080322
1782815252530542000,4.8895419921875,-0.07192792743444443,0.0402521938085556,1.091698408126831
1782815252550624300,4.909624267578125,-0.2041274905204773,0.08497724682092667,0.8580639958381653
1782815252570706200,4.9297060546875,-0.2475300282239914,0.10290144383907318,0.7037721872329712
1782815252590788000,4.9497880859375,-0.23519310355186462,0.09798849374055862,0.6353110671043396
1782815252610870000,4.9698701171875,-0.2094365954399109,0.1111387386918068,0.5725820064544678
1782815252630952200,4.9899521484375,-0.15571413934230804,0.11032211780548096,0.4754468500614166
1782815252651034000,5.0100341796875,-0.15392950177192688,0.05013515055179596,0.3982889950275421
1782815252671116000,5.030115966796875,-0.19012008607387543,-0.04081070050597191,0.36087116599082947
1782815252691198200,5.0501982421875,-0.24507999420166016,-0.09237402677536011,0.3408606946468353
1782815252711281200,5.07028125,-0.33551451563835144,-0.1748095154762268,0.2755918502807617
1782815252731363000,5.090363037109375,-0.43095123767852783,-0.35622328519821167,0.14901021122932434
1782815252751445000,5.110445068359375,-0.5616414546966553,-0.5117335915565491,0.05395779758691788
1782815252771527200,5.130527099609375,-0.6898951530456543,-0.5701786875724792,-0.014473935589194298
1782815252791609300,5.150609375,-0.7465376257896423,-0.5415177345275879,-0.20153863728046417
1782815252811691300,5.170691162109375,-0.6934226155281067,-0.42546436190605164,-0.46419745683670044
1782815252831773200,5.190773193359375,-0.6345597505569458,-0.3450522720813751,-0.6504755616188049
1782815252851855400,5.21085546875,-0.643713116645813,-0.3947147727012634,-0.6899275183677673
1782815252871937300,5.230937255859375,-0.6805323958396912,-0.46697235107421875,-0.6399179697036743
1782815252892019200,5.251019287109375,-0.6873741149902344,-0.4463191032409668,-0.5384978652000427
1782815252912101400,5.271101318359375,-0.6643328666687012,-0.33571287989616394,-0.42110610008239746
1782815252932183300,5.291183349609375,-0.6113576889038086,-0.24400737881660461,-0.3279443681240082
1782815252952265200,5.31126513671875,-0.5722310543060303,-0.24001097679138184,-0.27966076135635376
1782815252972974000,5.33197412109375,-0.5837156772613525,-0.32256510853767395,-0.28315240144729614
1782815252993056000,5.352055908203125,-0.6134463548660278,-0.40746429562568665,-0.29150867462158203
1782815253013138200,5.37213818359375,-0.6406207084655762,-0.4646952152252197,-0.29723119735717773
1782815253033220000,5.39222021484375,-0.6976957321166992,-0.48946282267570496,-0.28859227895736694
1782815253053302300,5.41230224609375,-0.7869293689727783,-0.45276767015457153,-0.2953389585018158
1782815253073384200,5.43238427734375,-0.8327111601829529,-0.475320428609848,-0.368164986371994
1782815253093466400,5.45246630859375,-0.8597298264503479,-0.33332929015159607,-0.42564618587493896
1782815253113549300,5.47254931640625,-0.875848114490509,-0.13822536170482635,-0.4639470875263214
1782815253133631200,5.49263134765625,-0.8450301289558411,0.03790077567100525,-0.5013347268104553
1782815253153713200,5.512713134765625,-0.7843527793884277,0.12141278386116028,-0.5215556025505066
1782815253173795300,5.53279541015625,-0.7321087718009949,-0.006262311711907387,-0.5246924757957458
1782815253193877200,5.552877197265625,-0.7057083249092102,-0.17864345014095306,-0.5141400098800659
1782815253213959200,5.572959228515625,-0.6666389107704163,-0.24494807422161102,-0.49493905901908875
1782815253234041000,5.593041015625,-0.6125290989875793,-0.2007320076227188,-0.44632700085639954
1782815253254123300,5.613123291015625,-0.5331200957298279,-0.11341267079114914,-0.3678901195526123
1782815253274205200,5.633205078125,-0.4365951120853424,-0.04017988592386246,-0.28191402554512024
1782815253293661400,5.652661376953125,-0.34450963139533997,-0.009545250795781612,-0.1735575944185257
1782815253313743400,5.672743408203125,-0.24547559022903442,-0.042198363691568375,-0.027144506573677063
1782815253333825300,5.6928251953125,-0.14790812134742737,-0.10917790979146957,0.15127040445804596
1782815253353907500,5.712907470703125,-0.06898001581430435,-0.16347354650497437,0.3247879445552826
1782815253373989400,5.7329892578125,-0.022958526387810707,-0.20299915969371796,0.44361841678619385
1782815253394071300,5.7530712890625,-0.0017036772333085537,-0.21631859242916107,0.4918362498283386
1782815253414153200,5.7731533203125,-0.005627025384455919,-0.19659076631069183,0.503129243850708
1782815253434235400,5.7932353515625,-0.011406204663217068,-0.17568041384220123,0.4974425435066223
1782815253454317300,5.8133173828125,0.012053413316607475,-0.1615259200334549,0.460462361574173
1782815253474399200,5.833399169921875,0.02133535034954548,-0.13624273240566254,0.4173107445240021
1782815253494481400,5.8534814453125,-0.028226997703313828,-0.281065970659256,0.358936071395874
1782815253514563300,5.873563232421875,-0.11585783213376999,-0.3994511365890503,0.3515322506427765
1782815253534645200,5.893645263671875,-0.1911247819662094,-0.4427928626537323,0.41166990995407104
1782815253554728400,5.913728515625,-0.24577273428440094,-0.3412909507751465,0.5386245250701904
1782815253574810600,5.933810546875,-0.23092438280582428,-0.21406513452529907,0.6695935130119324
1782815253594892500,5.953892578125,-0.1928209811449051,-0.15282000601291656,0.687760591506958
1782815253614974500,5.973974365234375,-0.2087550163269043,-0.10707476735115051,0.617929220199585
1782815253635056400,5.994056396484375,-0.24282433092594147,-0.030240627005696297,0.5408710837364197
1782815253655138600,6.014138671875,-0.2525475025177002,0.02545158937573433,0.4539687931537628
1782815253675220500,6.034220458984375,-0.23991863429546356,0.05995570495724678,0.31651434302330017
1782815253695302400,6.054302490234375,-0.1968584954738617,0.08770327270030975,0.12343171238899231
1782815253715384600,6.074384521484375,-0.14365626871585846,0.11513952165842056,-0.0559142604470253
1782815253735466500,6.094466552734375,-0.11262994259595871,0.10078070312738419,-0.1544186770915985
1782815253755548400,6.11454833984375,-0.0926748663187027,0.07549355924129486,-0.16377247869968414
1782815253775630600,6.134630615234375,-0.05354985222220421,0.08730420470237732,-0.12280352413654327
1782815253795713500,6.154713623046875,0.01036566961556673,0.1198311299085617,-0.07925938814878464
1782815253815795500,6.17479541015625,0.09531937539577484,0.06872529536485672,-0.05111648887395859
1782815253835877400,6.19487744140625,0.18716618418693542,0.0022725756280124187,0.013213385827839375
1782815253855959300,6.214959228515625,0.26346996426582336,-0.013228394091129303,0.1063656434416771
1782815253876041500,6.23504150390625,0.3296000063419342,0.009680553339421749,0.1772700846195221
1782815253896123400,6.255123291015625,0.40190795063972473,-0.0015722992829978466,0.22582826018333435
1782815253916205300,6.275205322265625,0.4515918791294098,-0.07074421644210815,0.269186794757843
1782815253936287500,6.29528759765625,0.47235387563705444,-0.1487393081188202,0.313374787569046
1782815253956369400,6.315369384765625,0.43958109617233276,-0.21715906262397766,0.35278233885765076
1782815253976451300,6.335451416015625,0.3657626509666443,-0.27058643102645874,0.3644024729728699
1782815253996533500,6.355533447265625,0.27240604162216187,-0.25931316614151,0.3403018116950989
1782815254016615400,6.375615478515625,0.19573085010051727,-0.13594207167625427,0.25815197825431824
1782815254036697300,6.395697265625,0.1392717808485031,-0.006203016731888056,0.13228853046894073
1782815254056780300,6.4157802734375,0.08343629539012909,0.010701716877520084,0.0037845997139811516
1782815254076862200,6.4358623046875,0.011313259601593018,-0.0343131385743618,-0.08188007026910782
1782815254096944400,6.4559443359375,-0.06748846918344498,-0.05295765772461891,-0.16981156170368195
1782815254117026300,6.4760263671875,-0.12090379744768143,-0.032599858939647675,-0.27675458788871765
1782815254137108200,6.496108154296875,-0.12798824906349182,-0.004383794032037258,-0.37435829639434814
1782815254157190400,6.5161904296875,-0.11234079301357269,0.04826250299811363,-0.41484615206718445
1782815254177272300,6.536272216796875,-0.08714601397514343,0.13528898358345032,-0.38271036744117737
1782815254197354200,6.556354248046875,-0.07131368666887283,0.20955359935760498,-0.31093889474868774
1782815254217436400,6.5764365234375,-0.06375702470541,0.24950337409973145,-0.2804878354072571
1782815254237518300,6.596518310546875,-0.05698971077799797,0.2567901015281677,-0.3016171157360077
1782815254257600300,6.616600341796875,-0.05987493693828583,0.20270709693431854,-0.3298119604587555
1782815254277683500,6.636683349609375,-0.08283554017543793,0.1161193698644638,-0.3431980609893799
1782815254297765400,6.656765380859375,-0.08268096297979355,0.08751532435417175,-0.3465832769870758
1782815254317847600,6.67684765625,-0.0707857757806778,0.12508642673492432,-0.32657453417778015
1782815254337929500,6.696929443359375,-0.06461796909570694,0.11142560839653015,-0.31248149275779724
1782815254358011400,6.717011474609375,-0.04474341496825218,0.07703172415494919,-0.2808350622653961
1782815254378093600,6.737093505859375,-0.015122678130865097,0.020800655707716942,-0.2357359379529953
1782815254398175500,6.757175537109375,0.011334388516843319,-0.029565736651420593,-0.1885679066181183
1782815254418257400,6.77725732421875,0.025829995051026344,-0.06613260507583618,-0.1759984791278839
1782815254438339600,6.797339599609375,0.01889716275036335,-0.09831936657428741,-0.19363312423229218
1782815254458421500,6.81742138671875,0.0015188518445938826,-0.1126255914568901,-0.19951049983501434
1782815254478503400,6.83750341796875,-0.007651519030332565,-0.08097963035106659,-0.19735275208950043
1782815254498585300,6.85758544921875,-0.025050539523363113,-0.0527585968375206,-0.20700640976428986
1782815254518668500,6.87766845703125,-0.04809930548071861,-0.03290262073278427,-0.20800605416297913
1782815254538750700,6.897750732421875,-0.05632617697119713,-0.000292106531560421,-0.1703963726758957
1782815254558832600,6.91783251953125,-0.04919983819127083,0.03262854740023613,-0.10665035992860794
1782815254578914600,6.93791455078125,-0.03334059938788414,0.05093475431203842,-0.06608034670352936
1782815254598996700,6.957996826171875,-0.007014922332018614,0.014447891153395176,-0.06349062919616699
1782815254619078700,6.97807861328125,0.024550193920731544,-0.08352767676115036,-0.06435269862413406
1782815254639160600,6.99816064453125,0.0599149651825428,-0.13003872334957123,-0.014393622986972332
1782815254659242800,7.01824267578125,0.07163867354393005,-0.0998554676771164,0.08637376129627228
1782815254679324700,7.03832470703125,0.07872247695922852,-0.04383690282702446,0.16287578642368317
1782815254699406600,7.058406494140625,0.09495244175195694,0.03160414099693298,0.2159990519285202
1782815254719488500,7.078488525390625,0.12055516988039017,0.05437329784035683,0.26276928186416626
1782815254739571500,7.098571533203125,0.1444883793592453,0.048404742032289505,0.3255369961261749
1782815254759653600,7.118653564453125,0.14513680338859558,-0.07644127309322357,0.35287168622016907
1782815254779735600,7.138735595703125,0.056811995804309845,-0.16690370440483093,0.31390655040740967
1782815254799817500,7.1588173828125,-0.03955584019422531,-0.035105831921100616,0.22716470062732697
1782815254819899600,7.178899658203125,-0.13254989683628082,0.006652576848864555,0.07845598459243774
1782815254839981600,7.198981689453125,-0.22659067809581757,0.014900801703333855,-0.03276289999485016
1782815254860063500,7.2190634765625,-0.3075524568557739,0.025510601699352264,-0.06223041191697121
1782815254880145700,7.239145751953125,-0.3036755621433258,0.05972247198224068,0.04126753285527229
1782815254900227600,7.2592275390625,-0.20015490055084229,0.19673916697502136,0.27336499094963074
1782815254920309500,7.2793095703125,-0.024509472772479057,0.2551442086696625,0.5101710557937622
1782815254940392400,7.299392333984375,0.12968921661376953,0.17816676199436188,0.6707776784896851
1782815254960474400,7.319474365234375,0.13723570108413696,0.026041772216558456,0.7241021394729614
1782815254980556500,7.339556640625,0.03958122432231903,-0.12383053451776505,0.6562103033065796
1782815255000638500,7.359638427734375,-0.055739663541316986,-0.15264466404914856,0.5316335558891296
1782815255020720400,7.379720458984375,-0.11789950728416443,-0.06166011095046997,0.39930352568626404
1782815255040802600,7.399802490234375,-0.1450701206922531,0.07208739966154099,0.3017151653766632
1782815255060884500,7.419884521484375,-0.16539384424686432,0.1516467183828354,0.2685898244380951
1782815255080966400,7.43996630859375,-0.1904125213623047,0.07774461060762405,0.2689622640609741
1782815255101048600,7.460048583984375,-0.2209452986717224,-0.04357331991195679,0.2714739739894867
1782815255121130500,7.480130615234375,-0.2513402998447418,-0.1140398234128952,0.23484566807746887
1782815255141212400,7.50021240234375,-0.2673051357269287,-0.1319122016429901,0.1891206055879593
1782815255161295600,7.520295654296875,-0.2945103049278259,-0.12178637832403183,0.13397416472434998
1782815255181377500,7.54037744140625,-0.3198157846927643,-0.04265521839261055,0.06755385547876358
1782815255201459700,7.560459716796875,-0.3407500684261322,0.004356689751148224,-0.03568214178085327
1782815255221541600,7.580541748046875,-0.36324915289878845,-0.01854119263589382,-0.1661103516817093
1782815255241623600,7.60062353515625,-0.4107040464878082,-0.026718869805336,-0.31596341729164124
1782815255261705700,7.620705810546875,-0.4818648099899292,-0.04223237931728363,-0.4805121421813965
1782815255281787600,7.64078759765625,-0.5409872531890869,-0.04498553276062012,-0.6348591446876526
1782815255301869300,7.660869384765625,-0.5672270655632019,-0.09793671220541,-0.8263816237449646
1782815255321951500,7.680951416015625,-0.5269649028778076,-0.1725529581308365,-1.0015463829040527
1782815255342033400,7.701033447265625,-0.4156169593334198,-0.2588382363319397,-0.9820111393928528
1782815255362116400,7.721116455078125,-0.29854080080986023,-0.24256013333797455,-0.6744300127029419
1782815255382198300,7.7411982421875,-0.15825988352298737,0.015653640031814575,-0.2700705826282501
1782815255402280400,7.761280517578125,0.012250015512108803,0.255212664604187,-0.0003524213097989559
1782815255422362400,7.7813623046875,0.1119304746389389,0.3708604872226715,0.0985475480556488
1782815255442444300,7.8014443359375,0.12881605327129364,0.4206937551498413,0.10083038359880447
1782815255462526200,7.821526123046875,0.09056057780981064,0.36568906903266907,0.03609404340386391
1782815255482608400,7.8416083984375,0.009204735048115253,0.21801970899105072,-0.06111506000161171
1782815255502690300,7.861690185546875,-0.07070636749267578,0.009880428202450275,-0.15493834018707275
1782815255522772200,7.881772216796875,-0.11947143077850342,-0.1343647539615631,-0.22223180532455444
1782815255542854400,7.9018544921875,-0.15446700155735016,-0.16169288754463196,-0.2563180923461914
1782815255562937300,7.921937255859375,-0.20231930911540985,-0.1442541480064392,-0.25088152289390564
1782815255583019300,7.942019287109375,-0.2761507034301758,-0.14596080780029297,-0.24105848371982574
1782815255603101200,7.96210107421875,-0.3477365970611572,-0.1741609424352646,-0.25179141759872437
1782815255623183400,7.982183349609375,-0.37138864398002625,-0.1402183175086975,-0.23933899402618408
1782815255643265300,8.002265380859376,-0.3537910580635071,-0.0322764553129673,-0.16773509979248047
1782815255663347200,8.02234716796875,-0.3035390377044678,0.11897028982639313,-0.031548872590065
1782815255683429000,8.04242919921875,-0.26573646068573,0.17291834950447083,0.11355946213006973
1782815255703511300,8.06251123046875,-0.2421892285346985,0.11899124830961227,0.21522563695907593
1782815255723593200,8.08259326171875,-0.2194896936416626,0.05643560364842415,0.26292717456817627
1782815255743675100,8.102675048828125,-0.21064601838588715,0.004762548953294754,0.27603158354759216
1782815255763757300,8.12275732421875,-0.22681580483913422,-0.006787764839828014,0.2926974892616272
1782815255783840300,8.14284033203125,-0.23953431844711304,-0.005191241391003132,0.2967340052127838
1782815255803922400,8.16292236328125,-0.2461823672056198,-0.030415713787078857,0.26674050092697144
1782815255824004400,8.18300439453125,-0.26014605164527893,-0.07025062292814255,0.21787512302398682
1782815255844086500,8.20308642578125,-0.2594982385635376,-0.12271711230278015,0.15503378212451935
1782815255864168400,8.22316845703125,-0.25375744700431824,-0.14873233437538147,0.11299826204776764
1782815255884250400,8.24325048828125,-0.23361144959926605,-0.1579301953315735,0.09116112440824509
1782815255904332300,8.263332275390624,-0.20734910666942596,-0.15722569823265076,0.08107078820466995
1782815255924414500,8.28341455078125,-0.16927066445350647,-0.11604247987270355,0.08929172158241272
1782815255944496400,8.303496337890625,-0.13746878504753113,-0.12370801717042923,0.06133521348237991
1782815255964579300,8.323579345703125,-0.13883915543556213,-0.2896488308906555,-0.010895137675106525
1782815255984661200,8.3436611328125,-0.1048487052321434,-0.27008309960365295,0.04638892412185669
1782815256004743400,8.363743408203124,0.05986831709742546,-0.0414101742208004,0.3151012361049652
1782815256024825300,8.383825439453124,0.21397951245307922,0.12142014503479004,0.6016700863838196
1782815256044907300,8.4039072265625,0.266273558139801,0.0731504037976265,0.6868446469306946
1782815256064989400,8.423989501953125,0.2357712984085083,-0.031115904450416565,0.606211245059967
1782815256085071400,8.4440712890625,0.18589675426483154,-0.1769779920578003,0.41902515292167664
1782815256105153300,8.4641533203125,0.13961374759674072,-0.28582629561424255,0.21980346739292145
1782815256125235200,8.484235107421876,0.09137699753046036,-0.25598087906837463,0.1105913445353508
1782815256145317400,8.5043173828125,0.04366069287061691,-0.11758796870708466,0.09207260608673096
1782815256165399300,8.5243994140625,0.034072838723659515,0.054984115064144135,0.13248559832572937
1782815256185482200,8.544482177734375,0.05324243754148483,0.12071140110492706,0.1851251870393753
1782815256205564200,8.564564208984375,0.10692275315523148,0.07402833551168442,0.21704889833927155
1782815256225646300,8.584646240234376,0.1588800996541977,0.015433035790920258,0.25190120935440063
1782815256245728300,8.604728271484374,0.18763908743858337,-0.01957818679511547,0.2864116430282593
1782815256265810200,8.62481005859375,0.1921495646238327,-0.04107104614377022,0.2963903844356537
1782815256285892400,8.644892333984375,0.18849076330661774,-0.03635743260383606,0.2813875675201416
1782815256305974000,8.66497412109375,0.16372299194335938,0.03256189450621605,0.2177211344242096
1782815256326056000,8.685055908203125,0.13738590478897095,0.0988861545920372,0.13405083119869232
1782815256346138000,8.70513818359375,0.1124553456902504,0.08381235599517822,0.07420364767313004
1782815256366221000,8.725220947265624,0.08898434787988663,0.03845071792602539,0.052474986761808395
1782815256386303000,8.745302978515625,0.052217792719602585,-0.015549764037132263,0.03540649637579918
1782815256406385000,8.765385009765625,0.025762876495718956,0.009807340800762177,0.02188468538224697
1782815256426466800,8.785466796875,0.019518805667757988,0.05893625691533089,0.007561210542917252
1782815256446549000,8.805549072265626,0.01406750176101923,0.08318144083023071,0.002110881032422185
1782815256466631000,8.825630859375,0.012901962734758854,0.06459975987672806,0.007909150794148445
1782815256486712800,8.845712890625,0.014240422286093235,0.02644515596330166,0.02355455793440342
1782815256506795000,8.865794921875,0.018465429544448853,0.002469805534929037,0.0409528873860836
1782815256526877000,8.885876953125,0.01917511597275734,-0.03141646087169647,0.03611547872424126
1782815256546958800,8.905958740234375,0.0004009198455605656,-0.06690919399261475,-0.02548297308385372
1782815256567041800,8.926041748046876,-0.013170860707759857,-0.1118324026465416,-0.08861830085515976
1782815256587124000,8.9461240234375,-0.028692644089460373,-0.13785651326179504,-0.14079219102859497
1782815256607206000,8.966205810546874,-0.09123940020799637,-0.18163374066352844,-0.20116190612316132
1782815256627287800,8.986287841796875,-0.21665897965431213,-0.06331722438335419,-0.1825016438961029
1782815256647370000,9.006369873046875,-0.2516506612300873,-0.2029372751712799,-0.2164953500032425
1782815256667452000,9.026451904296875,-0.27268365025520325,-0.24541451036930084,-0.20732833445072174
1782815256687533800,9.046533935546876,-0.25444743037223816,-0.28408968448638916,-0.2148757129907608
1782815256707615700,9.06661572265625,-0.16237124800682068,-0.2623753845691681,-0.22428575158119202
1782815256727698000,9.086697998046875,-0.042294859886169434,-0.11254803836345673,-0.15987306833267212
1782815256747781000,9.106781005859375,0.09583432972431183,0.03486517071723938,-0.06665845215320587
1782815256767863000,9.126863037109375,0.24364688992500305,0.11737066507339478,-0.005587431602180004
1782815256787945000,9.146945068359376,0.34953758120536804,0.23058824241161346,-0.002348822308704257
1782815256808027100,9.167027099609374,0.3813287317752838,0.2787594795227051,-0.10806518793106079
1782815256828109000,9.187109130859374,0.3640156090259552,0.21443095803260803,-0.21236301958560944
1782815256848191000,9.20719091796875,0.3151024580001831,0.053278859704732895,-0.25062698125839233
1782815256868273000,9.22727294921875,0.2503831684589386,-0.08733732998371124,-0.2628553509712219
1782815256888355000,9.24735498046875,0.17217577993869781,-0.08148206025362015,-0.23453712463378906
1782815256908437000,9.26743701171875,0.12345325201749802,0.034227222204208374,-0.15365585684776306
1782815256928519000,9.287518798828126,0.11801072210073471,0.15407118201255798,-0.03132914751768112
1782815256948601900,9.307601806640625,0.1133173331618309,0.15071818232536316,0.07870421558618546
1782815256968684000,9.32768408203125,0.08447889983654022,0.0952313169836998,0.10756148397922516
1782815256990020900,9.349020751953125,0.048841480165719986,0.1430908739566803,0.08990644663572311
1782815257010103000,9.36910302734375,0.026438046246767044,0.20610357820987701,0.09833016246557236
1782815257030185000,9.38918505859375,0.005302955396473408,0.19269821047782898,0.12271364778280258
1782815257050267000,9.409266845703126,0.008255419321358204,0.15752172470092773,0.1466536819934845
1782815257070349000,9.42934912109375,-0.0020444164983928204,0.08748799562454224,0.15621623396873474
1782815257090431000,9.449430908203125,-0.03531014919281006,-0.03785175830125809,0.14495772123336792
1782815257110513000,9.469512939453125,-0.09321341663599014,-0.11167140305042267,0.09875539690256119
1782815257130595000,9.489594970703125,-0.11747327446937561,-0.08232767879962921,0.017896175384521484
1782815257150677000,9.509677001953126,-0.08853325992822647,-0.02326534315943718,-0.03313995525240898
1782815257170759000,9.529759033203124,-0.04195497930049896,-0.03686113655567169,-0.02689329907298088
1782815257190841900,9.549841796875,-0.0000037614081520587206,-0.06917351484298706,0.023661084473133087
1782815257210924000,9.569924072265625,0.0461173951625824,-0.07615391910076141,0.0762457326054573
1782815257231006000,9.590005859375,0.08004739880561829,-0.06841389089822769,0.08446859568357468
1782815257251088000,9.610087890625,0.11458029597997665,-0.03371034935116768,0.09604673832654953
1782815257271169800,9.630169677734376,0.14890341460704803,0.018493298441171646,0.14434239268302917
1782815257291252000,9.650251953125,0.17681850492954254,0.023354526609182358,0.15173719823360443
1782815257311335400,9.67033544921875,0.19186629354953766,-0.01732693985104561,0.11203467100858688
1782815257331418400,9.69041845703125,0.20565472543239594,-0.04674943909049034,0.07171040773391724
1782815257351500300,9.710500244140626,0.20215864479541779,-0.014479951933026314,0.05328143388032913
1782815257371582200,9.730582275390624,0.20365655422210693,0.055710356682538986,0.03473827242851257
1782815257391664400,9.750664306640624,0.21705804765224457,0.15099821984767914,0.0230645090341568
1782815257411746300,9.770746337890625,0.2425410896539688,0.2638579308986664,0.020370054990053177
1782815257431828200,9.790828125,0.2546006143093109,0.39859533309936523,0.029280681163072586
1782815257451910100,9.81091015625,0.2596372961997986,0.47177231311798096,0.011107375845313072
1782815257471992300,9.830992431640626,0.2745426893234253,0.5043503046035767,-0.05086282640695572
1782815257492075500,9.851075439453124,0.304440438747406,0.516559362411499,-0.1514304280281067
1782815257512157400,9.871157470703125,0.3720730245113373,0.4985450804233551,-0.2619526982307434
1782815257532239400,9.8912392578125,0.4499746859073639,0.343869686126709,-0.3548828661441803
1782815257552321500,9.911321533203125,0.505643904209137,0.12838557362556458,-0.3437004089355469
1782815257572403500,9.931403564453126,0.5554877519607544,-0.025622187182307243,-0.23046791553497314
1782815257592485400,9.9514853515625,0.601410448551178,-0.11344810575246811,-0.12185791879892349
1782815257612567600,9.971567626953124,0.6012284755706787,-0.09533832967281342,-0.050155337899923325
1782815257632649500,9.9916494140625,0.5660738945007324,-0.030769405886530876,-0.036442697048187256
1782815257652731400,10.0117314453125,0.5153534412384033,0.005213170312345028,-0.06469815224409103
1782815257672814300,10.031814453125,0.4644622802734375,0.04930809512734413,-0.08931136876344681
1782815257692896300,10.051896240234376,0.4487228989601135,0.10772713273763657,-0.085609570145607
1782815257712978400,10.071978515625,0.4262738823890686,0.15907125174999237,-0.023433374240994453
1782815257733060400,10.092060302734374,0.3681848347187042,0.10655837506055832,0.04237927868962288
1782815257753142300,10.112142333984375,0.2905433773994446,-0.0678207203745842,0.07869495451450348
1782815257773224400,10.132224365234375,0.18592989444732666,-0.20874056220054626,0.09495195001363754
1782815257793306400,10.152306396484375,0.06003212928771973,-0.2904028296470642,0.046518001705408096
1782815257813388300,10.17238818359375,-0.053259506821632385,-0.30799373984336853,-0.029059290885925293
1782815257833471200,10.19247119140625,-0.14956922829151154,-0.23676446080207825,-0.0961502268910408
1782815257853553400,10.212553466796875,-0.21897011995315552,-0.09950360655784607,-0.14716483652591705
1782815257873635300,10.23263525390625,-0.26951366662979126,0.06696140766143799,-0.18207021057605743
1782815257893717200,10.25271728515625,-0.2657603621482849,0.11069566756486893,-0.19210167229175568
1782815257913799200,10.272799072265625,-0.21908682584762573,0.025112150236964226,-0.17395460605621338
1782815257933881300,10.29288134765625,-0.17614948749542236,-0.03616159409284592,-0.1185842975974083
1782815257953963300,10.31296337890625,-0.16484028100967407,-0.09122122079133987,-0.06147145852446556
1782815257974045200,10.333045166015625,-0.16964781284332275,-0.045728571712970734,-0.046345505863428116
1782815257994128100,10.353128173828125,-0.17168232798576355,0.009285420179367065,-0.09353302419185638
1782815258014210300,10.373210205078125,-0.18836532533168793,0.12137430161237717,-0.14426356554031372
1782815258034292200,10.393292236328126,-0.16277597844600677,0.38487550616264343,-0.18186907470226288
1782815258054374400,10.41337451171875,-0.11255257576704025,0.4178907573223114,-0.20284509658813477
1782815258074456600,10.43345654296875,-0.05146662890911102,0.05101780220866203,-0.24690218269824982
1782815258094538500,10.45353857421875,-0.03459375724196434,-0.27677229046821594,-0.2457219809293747
1782815258114620400,10.473620361328125,-0.09969150274991989,-0.4063243269920349,-0.19302812218666077
