time,seconds_elapsed,z,y,x
1782814954018300000,0.0652998046875,-0.747953040999174,-0.3680212653569877,-0.07498498875964432
1782814954038381800,0.0853818359375,-0.32381752810180187,-0.5501705611430108,-0.16044073732495306
1782814954058465000,0.105465087890625,0.25636194846630095,-0.6162566059909761,-0.16432086669392884
1782814954078548000,0.1255478515625,0.6157406192928552,-0.4939285955697298,0.07489595876932144
1782814954098631000,0.145630859375,0.9763052850335836,-0.3899319222614169,0.44210093930736183
1782814954118712800,0.165712890625,1.0192764117538928,-0.36090295778438447,0.5244174034662544
1782814954138795800,0.185795654296875,0.9981664037078618,-0.3935512818023562,0.4985420807145536
1782814954158878700,0.205878662109375,0.6837199305415154,-0.5918002101264893,0.17929028962571172
1782814954178962000,0.2259619140625,0.11525602620840072,-0.5973907236099243,-0.17545323221348225
1782814954199044000,0.246044189453125,-0.3232815215289593,-0.4427911135286092,-0.2220039527199231
1782814954219127000,0.266126953125,-0.563836244532466,-0.5269818471267819,0.05813691247440874
1782814954239210000,0.2862099609375,-0.5453279434174299,-0.5552731449790299,0.14501555171599612
1782814954259293000,0.30629296875,-0.5894727900922299,-0.6993634898751974,0.05798754886528477
1782814954279374800,0.326374755859375,-0.7594511710911989,-0.7174738777138292,-0.1719700297402218
1782814954299457800,0.346457763671875,-0.5018845230102539,-0.7525748555809258,-0.14386486557722092
1782814954319541000,0.366541015625,-0.032623920229077334,-0.727970429547876,-0.002445995779475197
1782814954339624000,0.3866240234375,0.11928045941889286,-0.7501936595328151,-0.02609222603854723
1782814954359705900,0.406705810546875,-0.15060440296530722,-0.8101393019296228,-0.2869125512863509
1782814954379788800,0.426788818359375,-0.3136228818237781,-0.7799607290260493,-0.42584618927277623
1782814954399871700,0.446871826171875,-0.3103700175076723,-0.7493141002193093,-0.40479828667752443
1782814954419954000,0.466953857421875,-0.1994908912092447,-0.8395224866718053,-0.35537944512255487
1782814954440037000,0.487037109375,-0.019593758264183997,-0.8822244410619139,-0.4356538455272093
1782814954460120000,0.5071201171875,-0.30883155589401723,-0.8778994174696505,-0.40185514589771626
1782814954480203000,0.527203125,-0.6061942077904939,-0.6391643111087382,-0.45059919346366073
1782814954500285000,0.547284912109375,-0.5661193870335817,-0.5326869269005954,-0.3670749974828213
1782814954520367900,0.567367919921875,-0.5765016648381948,-0.46497415763363237,-0.2791541922445409
1782814954540450800,0.587450927734375,-0.842768336725235,-0.35500133252516386,-0.31381873318944126
1782814954560534000,0.607533935546875,-1.3525409826368093,0.04694134552553296,-0.42727483383640646
1782814954580616000,0.627615966796875,-1.3664093489915132,0.4610768579341471,-0.39168548793047664
1782814954600699000,0.647698974609375,-0.747559657767415,0.7068064993575215,-0.1730148078191094
1782814954620781800,0.66778173828125,-0.025970892080664634,0.7248850307531655,-0.014952124737109988
1782814954640864800,0.68786474609375,0.46864627027511596,0.6056045713342726,0.12388250985424965
1782814954660947000,0.707947021484375,0.5608312174975871,0.6433864588484167,0.1446514128450304
1782814954681030000,0.72802978515625,0.4372545221894979,0.7403935655303299,0.08701474151033907
1782814954701113000,0.748113037109375,0.15078326666355132,0.9061929072789847,-0.14859616841543466
1782814954721196000,0.768196044921875,0.0017196633994579313,1.0194346710555255,-0.41011283276379107
1782814954741278000,0.78827783203125,0.169985979783535,1.0841507427245378,-0.4428283037338406
1782814954761361000,0.80836083984375,0.4419090699970722,1.164114214016497,-0.40990087051354346
1782814954781443800,0.82844384765625,0.596609802365303,1.1649781373694539,-0.482658173286356
1782814954801527000,0.848527099609375,0.7262520813226699,1.0041703202977776,-0.7022196099586785
1782814954821609000,0.86860888671875,1.0308961223989725,0.6957035060629249,-0.825465465877205
1782814954841692000,0.88869189453125,1.5834809050768612,0.268307237803936,-0.5895229859095067
1782814954861774800,0.90877490234375,2.0380086336284875,-0.01980623197108507,-0.3714467828262597
1782814954881857000,0.92885693359375,1.9757114596694707,-0.5976911678612232,-0.10011647087410092
1782814954901940000,0.94893994140625,1.644159537923336,-1.0090519548594952,0.19784772711209953
1782814954922023000,0.96902294921875,0.5342465774327516,-1.0614686630561947,0.3810848912000656
1782814954942106000,0.989106201171875,-0.7803326310783624,-0.5350633006431162,0.1658119089692831
1782814954962188000,1.00918798828125,-2.1513696398705244,0.05895970009937882,0.0790347025418654
1782814954982271000,1.02927099609375,-3.27746801148653,0.4353359752170741,-0.02587744164355099
1782814955002353700,1.049353759765625,-2.8591636889606713,0.5581096835792064,-0.027704200412984936
1782814955022435600,1.069435546875,-1.6544126363903282,0.5065669817380607,0.26592964021870863
1782814955042518800,1.089518798828125,-0.23963527007102964,0.4009105585239827,0.295975069995597
1782814955062601700,1.109601806640625,0.9346674527436494,0.1150458905890584,0.3118865595504641
1782814955082684700,1.1296845703125,1.4710621481209993,-0.18977526061981914,0.18063940267972647
1782814955102766800,1.149766845703125,1.5070207657307386,-0.4057528839886188,0.1608601317808032
1782814955122849800,1.169849853515625,0.9971972664147615,-0.524031180627644,0.030637130326032637
1782814955142933000,1.18993310546875,0.4489139803230762,-0.4754677868582308,-0.1995548232909292
1782814955163016000,1.210015869140625,0.14922668487131593,-0.3264363322980702,-0.22728603957500307
1782814955183097900,1.230097900390625,-0.039192777225375175,-0.31269056940972806,-0.060359666557796295
1782814955203180800,1.250180908203125,-0.2575017661511898,-0.2138729061745107,0.03767660050876438
1782814955223263700,1.270263671875,-0.4034638962686062,-0.2939553276710212,0.05674980549756437
1782814955243345700,1.290345703125,-0.47750002333819863,-0.4071900771848857,0.06251626006979495
1782814955263428600,1.3104287109375,-0.37218379186391826,-0.4431114315241575,0.040272389155626295
1782814955283511800,1.33051171875,-0.29101825130581854,-0.502023200828582,0.1477379076182842
1782814955303594800,1.3505947265625,-0.47440673349797724,-0.4066600619614124,0.07905271312259138
1782814955323677000,1.370677001953125,-0.49070554186999793,-0.5003178582154214,-0.015037629329785704
1782814955343760000,1.390759765625,-0.12288871304392814,-0.6716245652087033,-0.19713351442813873
1782814955363842800,1.4108427734375,0.3005623247206211,-0.9152141258634626,-0.21705643158145246
1782814955383925800,1.43092578125,0.5259896212190389,-1.1151916315458714,-0.29922742285504933
1782814955404007700,1.451007568359375,0.3962520651936531,-1.2048358082443476,-0.22866145611405372
1782814955424091000,1.4710908203125,0.40655250993371006,-1.1347532411061227,-0.1748871227633208
1782814955444173800,1.491173828125,0.4251999272584915,-1.1953433188863098,-0.04480922886766493
1782814955464255700,1.511255859375,-0.045912440869212146,-1.0473812471233308,0.055232423204556104
1782814955484338700,1.531338623046875,-0.5719686975836753,-0.6177997437797487,0.23432455990966408
1782814955504421600,1.551421630859375,-1.0351531953215598,-0.2989655570484698,0.44674376014452427
1782814955524504600,1.571504638671875,-1.7183084777176378,0.11337854189872741,0.5928879322979599
1782814955544587000,1.5915869140625,-1.9864912123590706,0.4851959846682846,0.6103462859686464
1782814955564670000,1.611669921875,-1.1815823584288359,0.6081742756918073,0.7825780719175934
1782814955584753000,1.6317529296875,-0.1010965679526329,0.41959918464198703,0.9795096340328454
1782814955604834800,1.651834716796875,0.2432183892548084,0.5412389205381274,0.9332469914864748
1782814955624917800,1.671917724609375,0.09345978946387767,0.8126236660912632,0.932928573187068
1782814955645000700,1.692000732421875,0.4670592933446169,0.613752952606976,1.0609151208266616
1782814955665082600,1.71208251953125,0.46207215258181095,0.3227341167792678,1.2098263830732554
1782814955685165800,1.732165771484375,0.30561025575995443,0.24539237229302524,0.8771489644285291
1782814955705248800,1.752248779296875,0.2472977675229311,0.036359015104174615,0.7413469207324087
1782814955725331700,1.772331787109375,0.053577860930562014,0.07567439579591155,0.5933695418024435
1782814955745414000,1.792413818359375,-0.34431612625122066,0.5137333662360907,0.4692224627278745
1782814955765496800,1.812496826171875,-0.4381301359802484,1.1411268677912652,0.13825385729502887
1782814955785579800,1.832579833984375,-0.15103285751044748,1.2575519377790392,0.14584230313003063
1782814955805661700,1.85266162109375,0.5594733731478453,1.1003158417142926,0.0823060888953507
1782814955825745000,1.872744873046875,1.0421657044321297,0.9457232458956539,0.10208134120628237
1782814955845827800,1.892827880859375,1.474928760421276,0.7531596697315573,0.17060520766042173
1782814955865910800,1.912910888671875,1.5935744290679692,0.5050822961382567,0.1256577393658459
1782814955885992700,1.93299267578125,1.4413216743737458,0.4070391244068742,-0.06833893834128975
1782814955906075600,1.95307568359375,0.9353998586714267,0.44527007086277004,-0.025448914033174515
1782814955926158600,1.97315869140625,0.3031114246815443,0.6306403745219111,0.08888502889424561
1782814955946240800,1.99324072265625,-0.30636370447576045,0.7213949966803193,0.2510350543551147
1782814955966324000,2.013323974609375,-0.9766536600798368,0.760918613295257,0.6864323313053697
1782814955986407000,2.033406982421875,-1.5210972218781709,0.8054743788585066,0.8492806412287056
1782814956006489300,2.0534892578125,-1.3719406796336173,0.8150025240518152,0.9379176136460154
1782814956026571300,2.0735712890625,-0.821167914813757,0.6872782075449824,0.8596616769243032
1782814956046654200,2.093654296875,-0.2999550064772367,0.39795974589437244,0.7403341634932905
1782814956066737400,2.1137373046875,-0.020081834042072293,0.22678981702327727,0.6016706659514457
1782814956086819300,2.1338193359375,0.04975917942523956,0.15932035499289632,0.5757774422168731
1782814956106902300,2.15390234375,-0.043320670810341834,0.18057532446756958,0.5466988664444535
1782814956126985200,2.173985107421875,-0.08874503590166569,0.21987828406915066,0.5556942199353129
1782814956147067400,2.1940673828125,-0.06519990966320037,0.2681562850259244,0.5536570880845189
1782814956167150300,2.214150390625,0.15266542714834214,0.31754414692074057,0.6084388449121266
1782814956187233300,2.2342333984375,0.4448708424121141,0.40943361832797526,0.7181715045891702
1782814956207316500,2.25431640625,0.8420400224506854,0.5059497266225517,0.6866600756466388
1782814956227398400,2.2743984375,0.8766969098120927,0.48047100197300313,0.6497373622450977
1782814956247481300,2.2944814453125,0.6489660125464201,0.46936070215478537,0.4996114635117352
1782814956267564300,2.314564208984375,0.3099070761710405,0.5390234364457428,0.45027452808655793
1782814956287646200,2.334646240234375,0.21220424230992793,0.6384666842333973,0.41942963676135986
1782814956307729200,2.354729248046875,0.31750352264940734,0.7638511596158146,0.5900197929831221
1782814956327812400,2.374812255859375,0.3907692498683929,0.769240451438725,0.7618459572732448
1782814956347894500,2.39489453125,0.26222645658552646,0.896449511899799,0.7349313546016812
1782814956367977500,2.4149775390625,0.01906768856346607,0.9377633729323744,0.6133699446387588
1782814956388060400,2.435060302734375,-0.11358312456011771,0.9079464729480445,0.539573508076556
1782814956408143400,2.455143310546875,-0.14715397025048732,0.8239239355236292,0.6279005742944777
1782814956428225300,2.475225341796875,-0.2522083359181881,0.6795623724706471,0.6430970474477857
1782814956448308200,2.49530810546875,-0.20245558623373508,0.6286695128403603,0.5314161397797986
1782814956468391400,2.515391357421875,-0.9497335044503211,0.7138106790311635,0.6586746288731694
1782814956488473300,2.535473388671875,-2.2993401872009036,1.3331839557379483,0.8008326174672693
1782814956508556300,2.555556396484375,-3.023840456420183,1.9748557196229695,0.7316001643523573
1782814956528639200,2.57563916015625,-2.393507832673192,2.2954864343822,0.48484117988124487
1782814956548721400,2.595721435546875,-1.1618424696922303,1.8997792897202073,0.3845500100273639
1782814956568804400,2.615804443359375,-0.26639234409332274,1.5978706649571657,0.14607205676529555
1782814956588887300,2.63588720703125,0.5493079529643058,1.4123375719517468,-0.024264270825870335
1782814956608970500,2.655970458984375,1.0956804369986057,1.2687941934138536,-0.22248470370788126
1782814956629052400,2.676052490234375,1.264298635560274,1.038991166049242,-0.2515340899184346
1782814956649135400,2.69613525390625,1.0672077912300824,0.8896411470592022,-0.2067021377623081
1782814956669218300,2.71621826171875,0.5079705649256706,0.8781162750907242,-0.1899098102523014
1782814956689300200,2.73630029296875,-0.04652385076582431,1.0171035977594554,-0.14187285150978712
1782814956709383200,2.756383056640625,-0.46657940087318417,1.2121816409625112,0.05744502122011035
1782814956729466400,2.77646630859375,-0.9648714523494243,1.4695232481159268,0.18854579189009962
1782814956749548500,2.796548583984375,-1.2708797675162553,1.6452791896030305,0.19128007569219915
1782814956769631500,2.816631591796875,-0.9588871172428131,1.6208821227103472,0.12472086037453263
1782814956789714400,2.83671435546875,-0.25019056635499,1.4159279976591468,0.03999755426961928
1782814956809796400,2.85679638671875,0.260550632327795,1.2733026107490062,-0.041950259239971636
1782814956829879300,2.87687939453125,0.42547523706853385,1.2120977620713411,-0.013169241642020641
1782814956849962200,2.896962158203125,0.510920062381029,1.2245093537464737,-0.04108092905953526
1782814956870045400,2.91704541015625,0.4814128128677606,1.138049213911593,-0.09557334755174815
1782814956890127400,2.93712744140625,0.2192541608214378,1.1119511883199213,-0.11337971094250679
1782814956910210300,2.957210205078125,0.007189034721255302,1.128849862281233,-0.1297580873567611
1782814956930293200,2.977293212890625,0.07167991933226585,1.160148086864501,-0.029772476320713757
1782814956950375400,2.99737548828125,0.23428514121472835,1.1275605531230568,0.10158453413266688
1782814956970458400,3.017458251953125,0.09316402138769626,1.0251162968885152,0.08023589502517134
1782814956990541300,3.037541259765625,-0.12366378906965254,0.9456303069151938,0.008951806610077618
1782814957010623200,3.057623291015625,-0.20887071397304532,0.9130124511007219,-0.027032895288988945
1782814957030706200,3.0777060546875,-0.15939444314241408,0.8703161957990377,0.02259359766729176
1782814957050789400,3.097789306640625,-0.27371289623975753,0.9316152986314147,0.09034889090172946
1782814957070871300,3.117871337890625,-0.569091680842638,1.0346097360946238,0.028250892776623366
1782814957090954200,3.137954345703125,-0.9281319134950637,1.119727740605548,-0.01657579868249595
1782814957111037200,3.158037109375,-1.1758014369398355,1.1667265154067425,-0.05073839972093701
1782814957131120000,3.1781201171875,-1.2074766781419515,1.1814034216653555,-0.09198438314907252
1782814957151202300,3.198202392578125,-0.9846931741505861,1.160282819160074,-0.20601802795566618
1782814957171285500,3.218285400390625,-0.5371405453085899,1.0788337854854761,-0.3684452629227191
1782814957191368400,3.238368408203125,-0.14506021284162998,1.0007594158757478,-0.4487965644884854
1782814957211450400,3.258450439453125,0.06223053846359253,1.0008048624526709,-0.5695229118667543
1782814957231533300,3.278533203125,0.1931172645241022,0.9682320878889411,-0.7172163227561861
1782814957251616300,3.2986162109375,0.1652852547466755,0.9381355672456324,-0.7862341832723468
1782814957271698200,3.3186982421875,0.24821546688973903,0.950334392952919,-0.7700535944525152
1782814957291781000,3.338781005859375,0.3749532565772533,0.9357382968455552,-0.83407255070284
1782814957311864300,3.3588642578125,0.4407090465575456,0.7323274557135999,-0.9441385339874774
1782814957331946500,3.378946533203125,0.5126707054406404,0.4373926154859364,-1.078294125650823
1782814957352029400,3.399029541015625,0.6301718802273273,0.2782210213139653,-1.2003653848320246
1782814957372112400,3.4191123046875,0.6037655193388461,0.1469898657299578,-1.1846587701994924
1782814957392194300,3.4391943359375,0.07895254068374634,0.10533310954384505,-1.1554698659203946
1782814957412277200,3.45927734375,-0.5818313354283571,0.16607706271149217,-1.1814380545873193
1782814957432360200,3.479360107421875,-1.1118430517703295,0.19757139438875018,-1.1079853534288704
1782814957452443400,3.499443359375,-1.5460487077832221,0.2173590677898377,-1.2299775560244917
1782814957472525300,3.519525390625,-1.6825930212140083,0.25861615713387726,-1.4652401639692485
1782814957492608300,3.539608154296875,-1.4755688118904828,0.26184118359498676,-1.5809301976807415
1782814957512691200,3.559691162109375,-0.8419564358204603,0.3225691354759037,-1.452811621159315
1782814957532773400,3.5797734375,-0.3014472908616066,0.32356852177679535,-1.3353110308945177
1782814957552856300,3.599856201171875,0.13150690378546714,0.21798238731995223,-1.2839669203653932
1782814957572939500,3.619939453125,0.697066318848729,0.07038418043330312,-1.20346978058815
1782814957593021400,3.640021484375,1.145576394546032,-0.11413681292012333,-0.9883957549955695
1782814957613104400,3.6601044921875,1.323611825272441,-0.19039967612847686,-0.6487995699383318
1782814957633187300,3.680187255859375,1.1876333290308714,-0.20228680553808806,-0.45531069562286136
1782814957653269200,3.700269287109375,0.9249000919669866,-0.19197277066409588,-0.3222787011619657
1782814957673352200,3.720352294921875,0.56662616751194,-0.2694143222630024,-0.3066409139819443
1782814957693435100,3.74043505859375,0.1386924313753843,-0.3521726849704981,-0.4062599567279219
1782814957713517300,3.760517333984375,-0.14267477900981904,-0.3684869101073593,-0.3552862869463861
1782814957733600300,3.780600341796875,-0.1378390294164419,-0.26394400109313426,-0.19576799822859464
1782814957753683500,3.800683349609375,0.08521218560039996,-0.23098887614831326,-0.0411696302562952
1782814957773765400,3.820765380859375,0.22922610425949094,-0.3346902928370982,-0.005552592625841498
1782814957793848300,3.840848388671875,0.18626959058642387,-0.5098423501469195,0.003920461379364133
1782814957813931300,3.86093115234375,0.1544406201273203,-0.5284076421462,0.055371539414301514
1782814957834013200,3.88101318359375,0.014558102184534072,-0.5448063306961208,0.25257256612069906
1782814957854096100,3.90109619140625,-0.03949146791100502,-0.5989299889411777,0.30971644896976647
1782814957874179300,3.921179443359375,-0.020244331127405167,-0.7733843463104217,0.26091310896463693
1782814957894261200,3.94126123046875,-0.15243571004569528,-0.9545804330248385,0.14496106331609188
1782814957914344200,3.96134423828125,-0.571861145555973,-1.0417548586089163,0.12708733377754688
1782814957934427100,3.98142724609375,-1.379351248151064,-1.0181810177326203,0.3108786611495539
1782814957954509300,4.00150927734375,-1.9566525389343499,-0.7907412854332476,0.3545503738872707
1782814957974592300,4.02159228515625,-2.0209154600083825,-0.6477038105908781,0.38298714462481437
1782814957994675500,4.041675537109375,-1.5131991621047258,-0.6110560416731983,0.3676756302570924
1782814958014759200,4.06175927734375,-0.8350339430809021,-0.6685065793186425,0.48399508444592354
1782814958034841000,4.081841064453125,-0.18554361439943312,-0.596517594037205,0.5242444215195253
1782814958054924000,4.101924072265625,0.5987386310875416,-0.618666297481209,0.4051620054233819
1782814958075007000,4.122007080078125,1.3416191911280155,-0.6809501735672354,0.41010618382729586
1782814958095089000,4.1420888671875,1.7304583497166632,-0.7136541002299637,0.4725196045771241
1782814958115172000,4.162172119140625,1.8873738355249166,-0.7575214451376349,0.40714952597878873
1782814958135255000,4.182255126953125,1.791616290512681,-0.8755759429581463,0.2728410087760538
1782814958155337200,4.202337158203125,1.5764695650100706,-0.8767103538155555,0.1195224514812231
1782814958175420200,4.222420166015625,1.385292913159728,-0.9581519348360598,0.09907353769242763
1782814958195503000,4.242503173828125,1.004531262564659,-0.978641326765716,0.07952537213563919
1782814958215585000,4.2625849609375,0.3442664418905973,-0.9782049811750649,-0.08969543196167797
1782814958235668000,4.28266796875,-0.4577683179080486,-0.9038672408103943,-0.2618554313160479
1782814958255751200,4.302751220703125,-1.1958084521800278,-0.8924703791357577,-0.2229751541059464
1782814958275833000,4.3228330078125,-1.7446914577305317,-0.9756162798561155,-0.4081188824675977
1782814958295916000,4.342916015625,-2.0626158361405134,-0.9477122277557849,-0.5032624602999538
1782814958315999000,4.3629990234375,-2.092736249116063,-0.6903155294142663,-0.5636619108788669
1782814958336081200,4.3830810546875,-1.7394453737705946,-0.3498725182693451,-0.34954167887978255
1782814958356164000,4.4031640625,-1.3691758910953997,0.0741774352364242,-0.10014646415356546
1782814958376247000,4.4232470703125,-1.056345036432147,0.47985155490040776,0.1312102589264512
1782814958396329000,4.443328857421875,-0.6128852298617362,0.6174291569016873,0.26115787750594316
1782814958416412200,4.463412109375,-0.000803133076429367,0.5927821338359266,0.25951062175557016
1782814958436495000,4.4834951171875,0.5090262114584445,0.4868860566470772,0.25506445600166916
1782814958456577000,4.503576904296875,0.8172662312000989,0.3906318141590804,0.23892770632356403
1782814958476660000,4.523659912109375,0.8917249675959348,0.4173633884139359,0.22864596628397701
1782814958496743000,4.543742919921875,0.5439765288084745,0.5927474278487265,0.12992789096571505
1782814958516825000,4.5638251953125,0.29110885219871996,0.7780247925274074,-0.03832425076253712
1782814958536908000,4.583907958984375,0.38435821378231044,0.7640561806686222,0.01873991791382432
1782814958556991000,4.603990966796875,0.53689796872437,0.8334595333710312,0.09187916920892894
1782814958577073200,4.6240732421875,0.5214157374322415,0.96956530925408,0.15577866379804908
1782814958597156000,4.644156005859375,0.5350736759066581,1.0784311960339545,0.16274558020122348
1782814958617239000,4.664239013671875,0.5172714772343635,1.077179150146246,0.1540351080663502
1782814958637321000,4.684321044921875,0.4873164839535951,1.1506168729312718,0.13351119281258433
1782814958657404000,4.70440380859375,0.42262627737820146,1.2717163644708693,0.13098708116244523
1782814958677487000,4.724487060546875,0.6653168433666229,1.2521233368590474,0.05092471607327461
1782814958697569000,4.744569091796875,0.9942390011310577,0.9705252403274178,-0.16344598355554044
1782814958717652000,4.76465185546875,1.2603268093198536,0.6370007033340632,-0.3889565378906205
1782814958737735000,4.78473486328125,1.2786346194267273,0.4259082216583192,-0.43792230191584675
1782814958757817000,4.804817138671875,0.9401876774698495,0.38002149975225324,-0.26267262945044784
1782814958777900000,4.824900146484375,0.1688268728762865,0.4110027673408389,-0.028079627862945197
1782814958797983000,4.84498291015625,-0.5365519317656755,0.4223581279613077,0.10988335672672837
1782814958818065000,4.86506494140625,-1.1534545805752277,0.38746334019079803,0.27817298092115667
1782814958838148000,4.885148193359375,-1.5118810652434824,0.30116562437601385,0.5268902963858098
1782814958858231000,4.90523095703125,-1.7342612491309641,0.22757146892026064,0.7260941142819821
1782814958878313000,4.92531298828125,-1.562134750187397,0.0887734582785517,0.6432056954540312
1782814958898396000,4.94539599609375,-1.049670380973816,-0.1858829293563962,0.47626748586855827
1782814958918478800,4.965478759765625,-0.6682897216975688,-0.5412566753905266,0.14207553447503596
1782814958938561000,4.98556103515625,-0.4657335976988077,-0.8118247707985341,-0.26192392997499553
1782814958958644000,5.00564404296875,-0.2084720700442791,-1.0659285650745034,-0.5406564444750547
1782814958978727200,5.02572705078125,0.21088848353624343,-1.089107780610025,-0.7078732518061995
1782814958998809000,5.04580908203125,0.715960988932848,-1.132709971775487,-0.731627417685464
1782814959018892000,5.06589208984375,1.0458949540883302,-1.1253249030254782,-0.7543657575856894
1782814959038975000,5.08597509765625,1.1376719050318003,-0.9823836550991981,-0.6632422290496528
1782814959059057000,5.106056884765625,1.0222539662599563,-0.8120246772848069,-0.5732308995392174
1782814959079139800,5.126139892578125,0.6873924815744161,-0.6234225520975888,-0.4338238170884549
1782814959099223000,5.14622314453125,0.46754853816628456,-0.46912703952938317,-0.1833298108074814
1782814959119305200,5.16630517578125,0.4368406806915998,-0.40069552753381427,0.07355733057670295
1782814959139388200,5.18638818359375,0.29301439355909825,-0.29403511490896345,0.3077420070916414
1782814959159471000,5.20647119140625,-0.015002923342585562,-0.25451975466571747,0.44360199152007695
1782814959179553000,5.226552978515625,-0.2852648023456335,-0.21338307683095334,0.4305975485183298
1782814959199636000,5.246635986328125,-0.5629729057013988,-0.10428484259992837,0.4011257356446236
1782814959219719000,5.266718994140625,-0.674095193105936,-0.21970789593830703,0.32894824205376205
1782814959239800800,5.28680078125,-0.6130120711117982,-0.4453351719882339,0.061248468623682856
1782814959259884000,5.306884033203125,-0.35631636064648625,-0.5765848861422389,-0.22742972236201167
1782814959279967000,5.326967041015625,-0.07746200986504555,-0.7168352144841105,-0.32914120734259483
1782814959300049200,5.347049072265625,0.07200608254671097,-0.7959443339690565,-0.48341187773048877
1782814959320132000,5.367132080078125,0.1911778208941221,-0.954581967394799,-0.48872963868714864
1782814959340215000,5.387215087890625,0.07126490879058837,-0.9996337728466838,-0.6898528803385794
1782814959360297000,5.407296875,-0.5869879875391721,-1.0697634670622647,-0.8944488396018743
1782814959380380000,5.4273798828125,-0.8456617200791835,-1.026338897486031,-1.1344278085440396
1782814959400463000,5.447463134765625,-0.930035701289773,-0.9036118047446012,-1.1650645735438911
1782814959420545000,5.467544921875,-1.117964749521017,-0.5548097652509808,-0.9153970081496984
1782814959440628000,5.4876279296875,-1.5831933203071356,-0.11397446196526288,-0.624892113193497
1782814959460711000,5.5077109375,-2.054859815186262,0.41398280606493354,-0.5270818734351546
1782814959480793000,5.52779296875,-1.789149023616314,0.8555359022311866,-0.48608928024619813
1782814959500876000,5.5478759765625,-0.8632984990566969,1.0247139266327023,-0.43039099309556184
1782814959520959200,5.567959228515625,0.04926876555979252,1.113695986160636,-0.33227029914855954
1782814959541041200,5.588041259765625,0.43978959362506864,1.1900940200559795,-0.3393010745681822
1782814959561124000,5.6081240234375,0.42440030131340023,1.3009664243526755,-0.44934068130254745
1782814959581207000,5.62820703125,0.47112931926250456,1.406757141470909,-0.52780949358996
1782814959601289000,5.6482890625,0.7591974885910749,1.5974061161853372,-0.5685044920718297
1782814959621372000,5.668371826171875,1.174174127998948,1.5521550618343054,-0.41649387557040896
1782814959641454800,5.688454833984375,1.420755856207013,1.469859494332969,-0.28494850293807683
1782814959661537000,5.708537109375,1.3828519497483969,1.2811647224262357,-0.3558919246893376
1782814959681620200,5.7286201171875,1.2959861517220734,1.1145147551976144,-0.39185105375573037
1782814959701703200,5.748703125,1.287180329453945,0.92730437662974,-0.42731333921588954
1782814959721785000,5.76878515625,1.1781880398154259,0.7146992984339594,-0.24959055463522672
1782814959741868000,5.788867919921875,0.7722644754350185,0.587177518761903,-0.228471632630378
1782814959761950000,5.808949951171875,0.2483943305879831,0.45078795750141143,-0.3344592605601996
1782814959782033000,5.829032958984375,-0.2264233217984438,0.4187662409491837,-0.3915602906482294
1782814959802115800,5.84911572265625,-0.5824439143687486,0.48756914354041214,-0.35077049002237615
1782814959822198000,5.869197998046875,-0.6596195085078478,0.4095994764141738,-0.3139556209094822
1782814959842281200,5.88928125,-0.5682283420115709,0.2983792815931141,-0.2617643554991111
1782814959862364200,5.9093642578125,-0.6047422554165125,0.359942442189157,-0.27592350322762504
1782814959882446000,5.929446044921875,-0.8251952706336975,0.43664574264138933,-0.24090417576199397
1782814959902529000,5.949529052734375,-0.8628805659055709,0.47757031209543344,-0.1994211869738996
1782814959922612000,5.969612060546875,-0.5523989047169685,0.4401856072053313,-0.22830913554504512
1782814959942694000,5.98969384765625,-0.20740940924882886,0.34853140585869546,-0.03592350063058548
1782814959962777000,6.009777099609375,0.0824567494124174,0.07679360908418893,0.26323798998193815
1782814959982860000,6.029860107421875,0.3637356969922781,-0.06426292107403278,0.3021913872271776
1782814960002941700,6.049941650390625,0.5753139163583517,-0.19912658794149754,0.2819192182447761
1782814960023024600,6.070024658203125,0.6589782879948616,-0.2925526212662458,0.2185179737676866
1782814960043107800,6.09010791015625,0.3612123159945011,-0.3867070419307798,0.09331624367418699
1782814960063189800,6.110189697265625,0.0037958851516246795,-0.4619167428243905,0.004046444112900644
1782814960083272700,6.130272705078125,-0.015281155762076377,-0.4888338297139853,-0.07813280353238805
1782814960103355600,6.150355712890625,0.14141045816242695,-0.5758668010007589,-0.11935082124136387
1782814960123437600,6.1704375,0.19912731859385965,-0.7665717436861247,-0.07567653295407072
1782814960143520500,6.1905205078125,-0.09697861123979092,-0.783543117557466,-0.09604112946027889
1782814960163603500,6.210603515625,-0.463474420595169,-0.7922380267970264,-0.21122673904728143
1782814960183685600,6.230685546875,-0.5840700542658567,-0.714704339935258,-0.24328064083606002
1782814960203768800,6.250768798828125,-0.5866144780516624,-0.6253924639310687,-0.15408811689522117
1782814960223851800,6.270851806640625,-0.5834779335916042,-0.5390431640595197,-0.031494697003439064
1782814960243933700,6.29093359375,-0.5780833810716867,-0.5046957079734653,0.05167352514658123
1782814960264016600,6.3110166015625,-0.4940431618601083,-0.4953714147891849,0.04330048653883859
1782814960284099600,6.331099609375,-0.2515449035733938,-0.4786865297090262,0.03955123527422547
1782814960304181500,6.351181396484375,-0.2546574826359749,-0.4245229778449982,0.03642179640838876
1782814960324264700,6.3712646484375,-0.24072891052663326,-0.2513039344243705,-0.059237612858461214
1782814960344347600,6.39134765625,-0.10240940411686897,-0.22473734147287905,-0.17125336937084792
1782814960364429800,6.411429931640625,-0.020679215413331984,-0.2824956298932433,-0.30329131129309533
1782814960384512800,6.4315126953125,0.27267829249501224,-0.30795689195133746,-0.38198848897628485
1782814960404595700,6.451595703125,0.5856535240650177,-0.2905089866094291,-0.5313133004598319
1782814960424677600,6.471677734375,0.13691314674317837,-0.283819425842911,-0.2932916395979002
1782814960444760600,6.491760498046875,-0.23417583562135694,-0.11504479461051523,-0.35424507079776374
1782814960464843800,6.51184375,-0.4841039516478777,-0.05687734086737036,-0.24915117683727292
1782814960484925700,6.53192578125,-0.7175918050050735,-0.015265227540582418,-0.2245055420110002
1782814960505008600,6.552008544921875,-0.9486685055673122,0.0420594187028706,-0.052138521442981436
1782814960525091600,6.572091552734375,-1.0747083761185408,0.24553265754655001,0.20884252905817702
1782814960545173800,6.592173828125,-0.9405226085126399,0.3374777315985411,0.5784980993524194
1782814960565256700,6.612256591796875,-0.5174836586803198,0.4365948161717504,0.8389437369357794
1782814960585338600,6.632338623046875,0.06058160221278667,0.3633840340103954,0.8955300589673221
1782814960605421600,6.652421630859375,0.4534159679174423,0.1357941526506096,0.9578445493873208
1782814960625504800,6.6725048828125,0.4090262065708637,0.07210216333232819,0.7353075675029307
1782814960645586700,6.692586669921875,0.010483400091528892,0.08784560284391045,0.4711368815144524
1782814960665669600,6.712669677734375,-0.17885142328441142,0.10899930390119551,0.19463766075810415
1782814960685752600,6.732752685546875,-0.19961422532796858,0.199635852637887,0.14677642390867696
1782814960705834800,6.752834716796875,-0.17697744610607624,0.3876109319679439,0.23543931621853262
1782814960725917700,6.772917724609375,-0.21721710203588007,0.5871132213540375,0.23879085513614118
1782814960746000600,6.793000732421875,-0.2180605671226978,0.7683224598109721,0.15120110848313198
1782814960766082800,6.813082763671875,-0.21877543739378452,0.8028200649574398,0.023660907238395885
1782814960786165800,6.833165771484375,-0.14161971699893475,0.9301901611991226,0.009242907644296064
1782814960806248700,6.853248779296875,0.31288521519899365,0.9716701725788414,0.125056987860566
1782814960826330600,6.87333056640625,0.8480477384328842,0.7396376325964927,0.15152708903448656
1782814960846413600,6.89341357421875,1.004068905749917,0.46462285997793074,0.09227848899113014
1782814960866496500,6.91349658203125,0.7828834846049547,0.21212124020159243,-0.20986052872799335
1782814960886578400,6.933578369140625,0.4728998360663652,0.09140008045509457,-0.4253714113678783
1782814960906661600,6.95366162109375,0.16137071165144443,0.08598229319006204,-0.5234393887469545
1782814960926744600,6.97374462890625,0.032715105643868446,0.13355726044401525,-0.4335697692621499
1782814960946826800,6.99382666015625,0.08602057937383652,0.13222747314497826,-0.3209244370087981
1782814960966909700,7.01390966796875,0.24878771381974218,0.08723696942627429,-0.06500720923584885
1782814960986991600,7.03399169921875,0.3499468256145716,-0.002222790616005659,0.1361880564721767
1782814961007074600,7.054074462890625,0.09485095156133175,0.030734453220665453,0.2465767597720027
1782814961027157800,7.07415771484375,-0.03296820362210274,0.07390051799118519,0.15812851485982538
1782814961047239700,7.09423974609375,0.0038204350709915157,-0.11912862985804676,-0.02251137644366827
1782814961067322600,7.114322509765625,0.12694471043646335,-0.3101211573131382,-0.18948597708335146
1782814961087405600,7.134405517578125,0.03588087619841099,-0.36446108865737914,-0.20979318084651602
1782814961107487700,7.15448779296875,0.047398295512795445,-0.28638036237210035,-0.07377727520400658
1782814961127570700,7.17457080078125,0.18752572812736032,-0.37188700087442994,0.044251115494291296
1782814961147653600,7.194653564453125,0.31884792299568654,-0.6078489892601967,-0.01820034484413918
1782814961167735800,7.21473583984375,0.44414428170323367,-0.7868830756351352,-0.03404679720562417
1782814961187818800,7.23481884765625,0.4997603704631328,-0.7982857825286686,0.05026501005552709
1782814961207901700,7.254901611328125,0.4210872312426567,-0.67917454219684,0.15976934086941183
1782814961227983600,7.274983642578125,0.03450315810441971,-0.7190342588983476,0.24113433125605804
1782814961248066600,7.295066650390625,-0.35461306385993957,-0.7862969463102519,0.21366920029595493
1782814961268148700,7.315148681640625,-0.4522404943972826,-0.8665328048028051,0.27573822805490344
1782814961288231700,7.335231689453125,-0.2766577175199985,-0.9449801724433898,0.26625180311147123
1782814961308315000,7.35531494140625,-0.28731355156898497,-1.028207613967359,0.22489012088179586
1782814961328396800,7.375396728515625,-0.6284323430836201,-0.9925788128338754,0.17049195654429494
1782814961348479700,7.395479736328125,-1.0435106893002986,-0.8358570960320532,0.11510691832760349
1782814961368562700,7.415562744140625,-1.3614280534476042,-0.6586246522516012,-0.08613493560166098
1782814961388644600,7.43564453125,-1.3668746284157036,-0.6033506549276412,-0.2486004293530248
1782814961408727600,7.4557275390625,-0.9363555519610642,-0.7008566510424018,-0.07486397902874742
1782814961428810500,7.475810546875,-0.6657289312988519,-0.702830435333401,-0.16202124798204748
1782814961448892700,7.495892578125,-1.337722183689475,-0.25705446077510713,-0.3677041256992146
1782814961468975900,7.515975830078125,-1.8932237305969,0.6132585932187735,-0.3022447248496115
1782814961489058800,7.536058837890625,-1.5550450841873884,1.3855128395207226,-0.016793578752176835
1782814961509140700,7.556140625,-0.19947744720578192,1.5045859397992492,0.297040087144915
1782814961529223700,7.5762236328125,0.9659177465319633,1.1548723384186625,0.47909408759661015
1782814961549305600,7.5963056640625,1.6511568494647741,0.850493085758388,0.4118689191835001
1782814961569388500,7.616388427734375,1.8815864842951298,0.7593240375801921,0.3570356148317456
1782814961589471500,7.636471435546875,1.277051734149456,0.9570406125932931,0.0692444586465368
1782814961609554000,7.656553955078125,0.24755904880762097,1.316651338610053,-0.14985802331110462
1782814961629636900,7.676636962890625,-0.698845603480935,1.5887977161854505,-0.04703976439870894
1782814961649719800,7.6967197265625,-1.135374734005332,1.8829922594398258,0.010604396122694015
1782814961669801700,7.7168017578125,-0.5581418322831392,1.8672098761573432,0.21190023612836376
1782814961689884700,7.736884765625,0.6012421383410692,1.626674734637141,0.3916000746693462
1782814961709967600,7.756967529296875,1.2671201227217912,1.2874062471643088,0.4211014789637178
1782814961730049500,7.777049560546875,1.610684553822875,1.0153455020457505,0.48015061091221867
1782814961750132700,7.7971328125,1.6336574331313372,0.8669318871229886,0.41363380996417254
1782814961770215000,7.81721484375,1.5899077232539653,0.779744017535448,0.2956304030100815
1782814961790297900,7.8372978515625,1.457104934439063,0.5272597872853279,0.08472838413883
1782814961810380800,7.857380859375,1.1471382370352745,0.15603680327758193,-0.118783350951178
1782814961830462700,7.877462646484375,0.21138883427381513,0.1370158764652908,-0.2568916896951385
1782814961850545700,7.897545654296875,-0.6645148793339729,0.2806466410256922,-0.2217876978870481
1782814961870628600,7.917628662109375,-1.2951461937665938,0.3121772130601108,-0.20812670893901958
1782814961890710500,7.93771044921875,-1.2485703205525875,0.1929438076533377,-0.30016105044335123
1782814961910793700,7.957793701171875,-0.6152250709861516,-0.140531921762228,0.04209023396624252
1782814961930876700,7.977876708984375,-0.07286182259321212,-0.33433205398395655,0.26430702571924775
1782814961950958800,7.997958740234375,0.21040800654292105,-0.5375570171549916,0.2851463087988086
1782814961971041800,8.018041748046874,0.2204401557356119,-0.7373325705245137,0.254128672988899
1782814961991123700,8.038123779296875,0.04692074112892151,-0.7547565835341811,0.20592388339880852
1782814962011207400,8.05820751953125,-0.09859773687422276,-0.7025041259884834,0.23552604465391486
1782814962031290400,8.078290283203126,-0.11669979527592658,-0.688529522780329,0.19208408555146306
1782814962051372300,8.098372314453124,-0.15649872170090676,-0.8310324523545801,0.06459904399348888
1782814962071455200,8.118455322265625,-0.29871289746165275,-0.8838168248198925,-0.0829449621876236
1782814962091538200,8.1385380859375,-0.4985743755489587,-0.8304324406348168,-0.11693011516677215
1782814962111620000,8.1586201171875,-0.4095002538233995,-0.8064427854992449,-0.060779609002918004
1782814962131703300,8.178703369140624,-0.43764147568047046,-0.7895733376324177,0.11787534186132252
1782814962151785500,8.198785400390625,-0.4080015396982431,-0.714743137575686,0.17435228523425758
1782814962171868400,8.218868408203125,-0.326922508379817,-0.6883385302528738,0.24853720965739337
1782814962191951400,8.238951416015626,-0.2716904505014419,-0.684087887071073,0.19468325346549972
1782814962212033300,8.259033203125,-0.348012058159709,-0.6953405179694294,0.06932598575041629
1782814962232116200,8.2791162109375,-0.4939630823612213,-0.5965902208819985,-0.0007755874823778868
1782814962252199200,8.29919921875,-0.5379062689840793,-0.4843517889291048,-0.05550940894845407
1782814962272281000,8.319281005859375,-0.301938873770833,-0.5493778033301234,0.02502650106975343
1782814962292364300,8.3393642578125,0.36027298931777474,-0.5590642078250646,0.20355439605480058
1782814962312447200,8.359447265625,0.4069301110744476,-0.6733750621378422,0.3166308680007234
1782814962332529400,8.379529296875,0.2983832271158695,-0.60114262348935,0.16677425119541583
1782814962352612400,8.3996123046875,-0.08219839073717594,-0.3671947514049709,0.13667872606595047
1782814962372694300,8.4196943359375,-1.0733873566478491,0.19549349213615058,0.13163864953950977
1782814962392777200,8.439777099609374,-1.6974223415553569,0.7110841766767203,0.15502298659253866
1782814962412860400,8.4598603515625,-1.4875257916659115,0.9109903706885873,0.2569070516610518
1782814962432942300,8.4799423828125,-0.5030734405338764,0.8809706416085362,0.5334713187439367
1782814962453025300,8.500025390625,0.33254034826159473,0.7024499115832149,0.6193520877882838
1782814962473108200,8.520108154296874,0.808638688108325,0.6751612149022519,0.466142324630171
1782814962493190400,8.5401904296875,0.8307084810972213,0.6598539017856121,0.37747093848660584
1782814962513273300,8.5602734375,0.40099429128468034,0.7344805420942604,0.24092465229444204
1782814962533355300,8.580355224609375,-0.17020634453594682,0.8469536595858633,-0.01100871174042113
1782814962553438200,8.600438232421874,-0.40429391735196113,0.9275063289426266,-0.1579176120555028
1782814962573521400,8.620521484375,-0.30855449251830575,0.9616074821174144,-0.17145020711719988
1782814962593603300,8.640603271484375,-0.2439034489095211,1.000838545526564,-0.19410022941315547
1782814962613686300,8.660686279296876,-0.35709377475976944,1.018808940372616,-0.33506785744521767
1782814962633769200,8.680769287109374,-0.32779578408300875,1.0039933562956749,-0.40783513362277296
1782814962653851400,8.700851318359375,-0.03065583502650261,0.9585304127596318,-0.4799868717178702
1782814962673934300,8.720934326171875,0.5155769482761621,0.8154910382211208,-0.5649201673116535
1782814962694017300,8.741017333984376,1.1176485231786966,0.5885768641658127,-0.6508622015565634
1782814962714099200,8.76109912109375,1.4856699346661566,0.3500112691529095,-0.5273919622976333
1782814962734182400,8.781182373046875,1.2384475704669953,0.22459946737214923,-0.3041044908395037
1782814962754264300,8.801264404296875,0.4202981266915798,0.38951428137123584,-0.33421653784550726
1782814962774347300,8.82134716796875,-0.15274375308156013,0.5314541702352464,-0.3421913891822099
1782814962794430200,8.84143017578125,-0.236173146918416,0.5759489993914961,-0.22533748105680568
1782814962814512000,8.86151220703125,-0.3536351587384939,0.4484624371632933,-0.07868378847865387
1782814962834595300,8.88159521484375,-0.5400210691809654,0.3748626556843519,-0.08387151158116757
1782814962854677200,8.90167724609375,-0.5396072276830672,0.2167946388401091,-0.06797142020314932
1782814962874760400,8.921760498046876,-0.35818683069348334,-0.013312193776667118,-0.22289969598324968
1782814962894843400,8.941843505859374,-0.05883914245963096,-0.3028330461315811,-0.3335982963493094
1782814962914925300,8.96192529296875,0.17041560337245462,-0.41157574492320415,-0.3592204845901578
1782814962935008300,8.98200830078125,0.26974340808689595,-0.48492228229343887,-0.3563489842744544
1782814962955091200,9.00209130859375,0.40734745970368386,-0.5734396469190717,-0.352257221448794
1782814962975173000,9.022173095703126,0.4289478816151619,-0.6641248571030796,-0.3593993117557838
1782814962995256000,9.042256103515625,0.2818529480755329,-0.6208462718687952,-0.3151923230975866
1782814963015337200,9.062337158203125,0.17764204749464987,-0.5087019479401409,-0.23583595085330306
1782814963035420200,9.082420166015625,0.3056523413360119,-0.4306520551845431,-0.08057608676496893
1782814963055503400,9.10250341796875,0.37567747919857497,-0.373239000005275,0.052226217992743476
1782814963075585300,9.122585205078124,0.482764227476716,-0.40635114214271306,0.04635553586105816
1782814963095668200,9.142668212890625,0.5491495475322008,-0.4832601943001151,0.138106786107691
1782814963115751200,9.162751220703125,0.3890501709908247,-0.4252198010027408,0.24496172579079864
1782814963135833300,9.182833251953125,0.30097791978418825,-0.4324976830512285,0.3019747853344306
1782814963155916300,9.202916259765624,0.11164251188635825,-0.5208982894293963,0.31183252780828624
1782814963175998200,9.222998291015625,-0.2126578312963247,-0.5358176261417568,0.2880488801062107
1782814963196081200,9.2430810546875,-0.5337392124325037,-0.541690025306493,0.3368734820950776
1782814963216164400,9.263164306640626,-0.7838894467771053,-0.5006466517783701,0.44141010749898846
1782814963236246300,9.283246337890626,-0.8409475510388612,-0.3966268898554146,0.6510954257905482
1782814963256329200,9.3033291015625,-0.6998883905321359,-0.42167949804738164,0.8202948583062738
1782814963276412200,9.323412109375,-0.5726566798478364,-0.5382204494997859,0.9597653613820671
1782814963296494300,9.343494384765625,-0.24867314752936362,-0.4992154499314725,1.0618157959934322
1782814963316577300,9.363577392578126,-0.06018763445913791,-0.5381441693931818,1.2776546684786676
1782814963336659200,9.3836591796875,-0.32349779462814326,-0.3797996736951172,1.1240319406054913
1782814963356742400,9.403742431640625,-1.0089783051013945,-0.0775001499183476,0.8873952678285538
1782814963376825300,9.423825439453125,-1.5895628553390502,0.4307413409031927,0.9172771228078752
1782814963396907300,9.4439072265625,-1.591536201238632,0.9192470346413553,0.9338194576121867
1782814963416990200,9.463990234375,-0.8937263705462217,1.0747460777804254,1.1948341272551566
1782814963437072400,9.484072265625,-0.30305764866769314,1.015522758308798,1.3638552805945277
1782814963457155300,9.5041552734375,-0.024026772275567054,0.9559617313154041,1.3013298508375883
1782814963477238300,9.52423828125,-0.039563948625326154,0.9787740132346748,1.10245394972153
1782814963497320200,9.5443203125,-0.11241349625885486,1.0679306986771524,1.0122987547609954
1782814963517403400,9.5644033203125,0.008495441144704819,1.1328873011037706,0.929785160594806
1782814963537486300,9.584486328125,0.05314063855707645,1.07834644035995,0.7891369920417666
1782814963557568300,9.604568359375,0.11572539728581904,0.9469811370022594,0.6587128419917077
1782814963577651200,9.624651123046876,0.09278408215939998,0.8822690108560025,0.6768146811977028
1782814963597733400,9.6447333984375,-0.020160744497179982,0.938750630404055,0.7313148446049541
1782814963617816300,9.66481640625,-0.2006681182950735,1.1009928641930222,0.8161148692078888
1782814963637899500,9.6848994140625,-0.4913783265650272,1.318902332407236,0.9067519294012337
1782814963657981400,9.7049814453125,-0.642207185935974,1.4907359858840703,0.9837952754627912
1782814963678064400,9.725064453125,-0.5252086999744177,1.5445629992701113,1.0300366560254246
1782814963698147300,9.745147216796875,-0.26098142496049404,1.4939818359375,0.9374866018176078
1782814963718229200,9.765229248046875,-0.061979194051027295,1.4024800486735998,0.7949857911352067
1782814963738312200,9.785312255859376,0.05218962144255638,1.348478409373015,0.658176470092684
1782814963758394400,9.805394287109374,0.10972703365385532,1.265816200516373,0.4578463515803218
1782814963778477300,9.825477294921875,0.1539391003459692,1.0515978419050573,0.2735018290386535
1782814963798560300,9.845560302734375,0.2737210795462131,0.8523204473160206,0.10550188110633753
1782814963818642400,9.865642333984376,0.14052198489010334,0.7995935041263699,-0.0222227459277492
1782814963838725400,9.885725341796874,-0.03331774771213531,0.804231685321033,-0.3140549165654927
1782814963858808300,9.905808349609375,-0.12164309689700603,0.776057876368612,-0.5440312912030145
1782814963878890200,9.92589013671875,-0.10526654711365699,0.6372782051011919,-0.7436107740111648
1782814963898973200,9.94597314453125,-0.2460503978103399,0.4875234047025442,-0.8784270215403288
1782814963919055000,9.96605517578125,-0.5452291592180729,0.48580914813056586,-0.8640944717399776
1782814963939138000,9.986137939453124,-0.5725806920021772,0.6429236636422574,-0.9229024884089827
1782814963959221200,10.00622119140625,-0.25656711564958096,0.6057838734239339,-0.8536779994048178
1782814963979303400,10.026303466796875,-0.00215630125105381,0.530315521594137,-0.7924708126395941
1782814963999386400,10.046386474609376,0.15092647452652452,0.5202013932064176,-0.7161242166705429
1782814964019470000,10.066469970703125,0.21834289119541644,0.5142835474647581,-0.5601313986651599
1782814964039552000,10.086552001953125,0.20282558858990668,0.5046627555519342,-0.49612384059168396
1782814964059635000,10.106635009765625,0.25848727005720135,0.3859232711419463,-0.5209864791695028
1782814964079716900,10.126716796875,0.43126784899532794,0.2715853826917708,-0.5587922955485061
1782814964099800000,10.146800048828124,0.44071313821077346,0.1916239572264254,-0.4391241519862786
1782814964119883000,10.166883056640625,0.13443418940901755,0.25157164544984695,-0.45480154052432625
1782814964139965200,10.186965087890625,0.022611644780635834,0.35994273445010183,-0.4433278872864321
1782814964160048000,10.207048095703126,0.14654840557277202,0.36159079391807314,-0.43249527189843356
1782814964180130000,10.227130126953124,0.36996143963932987,0.276304374037683,-0.37181992698758837
1782814964200213000,10.247212890625,0.44102351933419703,0.30988705629631874,-0.3005029592161998
1782814964220296200,10.267296142578125,0.4557078782469034,0.15551789397001264,-0.22607165881656108
1782814964240378000,10.287378173828126,0.435555317056179,0.1917353086464107,-0.3146644267659634
1782814964260461000,10.3074609375,0.4249813160717487,0.21188421657532452,-0.20295911530908195
