time,seconds_elapsed,z,y,x
1782814990830213400,0.06521337890625,-2.61261177136898,-0.26558248901516196,-0.5362278143778443
1782814990850295300,0.08529541015625,-1.878269907093048,-0.6391168187052011,-1.0128354189209638
1782814990870378500,0.10537841796875,-0.5857160679072141,-1.1090372005693614,-0.6469108335822821
1782814990890460400,0.12546044921875,0.07981763308048248,-1.3239679452337323,-0.31040421203821894
1782814990910542600,0.14554248046875,0.24024141927063464,-1.1687617475613952,-0.25362733587063846
1782814990930625500,0.16562548828125,0.33706863934099673,-1.2148020525939762,-0.2654234625285491
1782814990950707500,0.18570751953125,0.31669805148541924,-1.2692495359659195,-0.3757713314944878
1782814990970789400,0.205789306640625,0.40442718834280966,-1.1650123319000005,-0.40690391718726604
1782814990990872300,0.225872314453125,0.65614627943933,-1.0541270681217312,-0.22936174987051636
1782814991010954500,0.24595458984375,0.5458738868623971,-0.8908747805073857,-0.07042765424884856
1782814991031036700,0.26603662109375,0.11943009702265261,-0.6578275105245411,-0.049443866398371755
1782814991051119600,0.28611962890625,-0.5959335105389356,-0.5805369117036462,-0.35139424794390794
1782814991071201500,0.306201416015625,-0.995879754075408,-0.6034551382154226,-0.7415565448950976
1782814991091284500,0.326284423828125,-0.9874597162544727,-0.7050080716334283,-1.0011918890088796
1782814991111366400,0.346366455078125,-0.7712655275255441,-0.7392291979260742,-1.1234580131750553
1782814991131448600,0.366448486328125,-0.5820955393224955,-0.75469798521474,-1.109854946693033
1782814991151531500,0.386531494140625,-0.18847440715432165,-0.6434374583832919,-0.9976056280199438
1782814991171613400,0.406613525390625,0.11848024895191192,-0.6984276703298091,-0.777368593640998
1782814991191695400,0.4266953125,0.12138590726554394,-0.6666523297540843,-0.632964798881486
1782814991211778600,0.446778564453125,-0.060005263629555695,-0.5178641093652695,-0.6201522982552647
1782814991231860700,0.46686083984375,-0.08888999733030796,-0.7099237545952201,-0.5828425582975149
1782814991251943700,0.486943603515625,0.031091303834319114,-0.6906061098586768,-0.8309951890841126
1782814991272025600,0.507025634765625,-0.04126256923675537,-0.8953789600588381,-0.5241876863636076
1782814991292107500,0.527107421875,-0.16405892782211304,-0.8555224582277238,-0.4299258598018437
1782814991312190500,0.5471904296875,-0.3405956444233656,-0.8332382187705486,-0.17865926171317695
1782814991332272600,0.567272705078125,-0.746414579385519,-0.961632324297726,-0.12897468189410866
1782814991352354600,0.5873544921875,-1.061442067310214,-1.0957263950321823,-0.2936507187012583
1782814991372437500,0.6074375,-1.0125532409787177,-0.9562186286859213,-0.44952725338321176
1782814991392519400,0.62751953125,-1.0570791959255934,-0.3922029359333217,-0.2836815882747993
1782814991412602400,0.647602294921875,-1.028050669839978,0.4177019727185368,0.09218114783018827
1782814991432684500,0.6676845703125,-0.7246668579578399,1.0672706273332238,0.40629462618250395
1782814991452766500,0.687766357421875,-0.115949269169569,1.2917004372268914,0.5281233087794855
1782814991472849700,0.707849609375,0.49318040755093095,1.2643680475346744,0.5332618041791022
1782814991492931600,0.727931640625,0.8411141397774219,1.2173190038509667,0.43023711770810186
1782814991513013500,0.748013427734375,0.9914993470340967,1.1498116940282284,0.23922961187958716
1782814991533096400,0.768096435546875,1.1369909370303153,0.9383607543036341,0.15555245382674038
1782814991553178600,0.7881787109375,1.4132465034902095,0.761447459474951,0.17838957792632282
1782814991573260500,0.808260498046875,1.4175152668505906,0.5401880963109433,0.4615935022193938
1782814991593343500,0.828343505859375,0.9591244331300258,0.28231851976066824,0.6203644066359847
1782814991613425400,0.84842529296875,-0.01095452473461628,0.12276114114150405,0.6464788719058037
1782814991633508400,0.86850830078125,-1.272932023870945,0.415166170630604,0.24363970167310908
1782814991653590500,0.888590576171875,-2.2351865717202424,0.7753405218794941,-0.10218151364512741
1782814991673672400,0.90867236328125,-2.1433535066753624,0.8149205448567867,-0.12141137963351793
1782814991693755600,0.928755615234375,-1.312002051499486,0.7310761404782533,0.16768146570082754
1782814991713837600,0.948837646484375,-0.3982219039618969,0.5832737893216312,0.5113486995892599
1782814991733919700,0.968919677734375,0.04678805465996265,0.6148815182454884,0.715405108615756
1782814991754002700,0.989002685546875,0.12315467050373553,0.7304488023601472,0.5803484033942222
1782814991774084600,1.009084716796875,0.12228139480054377,0.7389296304576098,0.364456193286553
1782814991794166500,1.02916650390625,0.2849082439929247,0.6034457858651876,0.20649368264339862
1782814991814249500,1.04924951171875,0.5593968007802963,0.3666603522673249,0.2317323879919946
1782814991834331400,1.069331298828125,0.751480046081543,0.09614669046029448,0.4170557837694883
1782814991854414300,1.089414306640625,0.8789350441277026,-0.025273411335796116,0.6149931619264185
1782814991874496500,1.10949658203125,0.8479963005065917,-0.05271145335957408,0.619264117243886
1782814991894578400,1.129578369140625,0.7839291942656039,-0.22797858841642735,0.41704372800551354
1782814991914661600,1.14966162109375,0.7429547943204641,-0.4964940621435642,0.2683840293671936
1782814991934743600,1.16974365234375,0.40831951960623264,-0.7391913501337171,0.2513620212871581
1782814991954825700,1.18982568359375,0.09435527699887752,-0.8163736662745475,0.16096125406771897
1782814991974908700,1.20990869140625,-0.043318917244672774,-0.8054549435056746,0.08988098112903535
1782814991994990600,1.229990478515625,-0.08846037374138832,-0.7734231439508498,0.09009951925054192
1782814992015072500,1.250072509765625,-0.2917296144455671,-0.7396154207646847,0.1805100772116333
1782814992035155200,1.2701552734375,-0.6456587876945734,-0.5170587112665176,0.21872078459709882
1782814992055237400,1.2902373046875,-0.7377595637649297,-0.3239151432573795,0.34592582647018133
1782814992075320300,1.3103203125,-0.6497481028348208,-0.2900317244865,0.5255152817055583
1782814992095402200,1.33040234375,-0.42154608092606066,-0.2614528418645263,0.5648305162668228
1782814992115484200,1.350484130859375,-0.17778759344518183,-0.29701734559014437,0.5003736800558864
1782814992135567400,1.3705673828125,-0.021674656191468238,-0.36963439964205025,0.3999905941348523
1782814992155649500,1.3906494140625,-0.06784896286725997,-0.4341827135287225,0.23398140902779996
1782814992175731500,1.4107314453125,0.02694002937376499,-0.47978608844876286,0.12297748730592428
1782814992195814400,1.430814453125,0.1634767440199852,-0.563658111486584,-0.050733723545819516
1782814992215896300,1.450896240234375,0.3317582579731941,-0.7373511290945113,-0.2480660484816879
1782814992235978200,1.470978271484375,0.4422182820767164,-0.9126775931231677,-0.3533928013499826
1782814992256061400,1.4910615234375,0.4081424094736576,-1.017159565730393,-0.31819260089211165
1782814992276143400,1.511143310546875,-0.04250000207722187,-0.9312370399035513,-0.3382807916097343
1782814992296226300,1.531226318359375,-0.2989215717762708,-0.9463014841750264,-0.4035536934439093
1782814992316308200,1.55130810546875,-0.08848550818264483,-0.9742191264092922,-0.4456679841391742
1782814992336390100,1.57139013671875,-0.37562604127228255,-1.035633964575827,-0.3403097036214545
1782814992356473000,1.59147314453125,-0.9408271444171666,-0.7144755726806818,-0.2943595245577395
1782814992376555300,1.61155517578125,-1.3063959020555018,-0.4385322870403528,-0.4357859840068966
1782814992396637200,1.63163720703125,-1.6273638859450816,-0.13783464550226926,-0.6568294393979013
1782814992416720400,1.651720458984375,-1.6959984462320803,0.2810091907277703,-0.5549114355271682
1782814992436802300,1.67180224609375,-1.3704647618621586,0.8600234229087829,-0.034526534413429906
1782814992456884500,1.691884521484375,-0.7004091995358467,1.3835153820931911,0.5350544232169165
1782814992476967400,1.711967529296875,-0.04616378528177738,1.6355466078788041,0.9089603261657059
1782814992497049300,1.73204931640625,0.6417097578078508,1.694672750586271,1.0518350116617976
1782814992517131300,1.75213134765625,1.1201871017456053,1.5672781044252215,0.8472815033007413
1782814992537214200,1.772214111328125,1.1256009434878826,1.4989434038676321,0.6054205200042575
1782814992557296400,1.79229638671875,0.982626889270544,1.5669399585120378,0.3999077746896073
1782814992577379300,1.81237939453125,0.9439736257493495,1.5004408028185368,0.21882988926107064
1782814992597461200,1.832461181640625,0.8676315598249434,1.2949334277987479,0.014883936605416237
1782814992617543200,1.852543212890625,0.8926987810641527,1.2070754038646816,-0.0552202213101089
1782814992637626400,1.87262646484375,1.0108259787946938,1.243509530031681,-0.04745574305476621
1782814992657708300,1.892708251953125,1.0789870763510465,0.9341717781811952,-0.18655765028018503
1782814992677790500,1.91279052734375,0.8654875335335731,0.6285653218135238,-0.3832304518613964
1782814992697873400,1.932873291015625,0.5010287829637528,0.563360443714261,-0.398275314649567
1782814992717955300,1.952955322265625,-0.04322071756720543,0.73394526617378,-0.15991671345084904
1782814992738037200,1.973037353515625,-0.5517798960357904,1.017679497951269,0.22499907941529526
1782814992758120200,1.9931201171875,-0.929158918455243,1.177615208363533,0.4725025073118508
1782814992778202400,2.013202392578125,-0.8920470391571521,1.050295965526253,0.48518053137082606
1782814992798285300,2.033285400390625,-0.3853407950788736,0.6989459951154887,0.2802253103410825
1782814992818367200,2.0533671875,0.16841653850972652,0.35321021132469177,0.23020448430497198
1782814992838449200,2.07344921875,0.3839303437590599,0.23579525351673364,0.3066902330163866
1782814992858532400,2.093532470703125,0.2275906120121479,0.2360110882245004,0.30395017706062644
1782814992878614500,2.113614501953125,0.16285189011991022,0.1352135032184422,0.01985821788664907
1782814992898696400,2.133696533203125,0.3658504971891641,-0.03723229080736637,-0.16596304441038517
1782814992918779400,2.153779296875,0.600744710212946,-0.214595959752053,-0.15983035034164786
1782814992938861300,2.173861328125,0.7107587441146374,-0.24198913972079752,0.06203223941251635
1782814992958943500,2.193943603515625,0.600032178029418,-0.20329466740638016,0.25543595619518306
1782814992979026400,2.2140263671875,0.18397008147239685,-0.25040844688937064,0.20482070792987941
1782814992999108400,2.2341083984375,-0.27013912940621376,-0.3995391240403056,0.1327964138730429
1782814993019190300,2.254190185546875,-0.5321604188084602,-0.5023438110850751,0.1300099432259798
1782814993039273500,2.2742734375,-0.761558372503519,-0.5210171665687113,0.1759841242197901
1782814993059355400,2.29435546875,-0.9179051185131073,-0.5051522926345468,0.20424873499451204
1782814993079437600,2.3144375,-0.7876315559148788,-0.5547681180663406,0.26475716237323355
1782814993099520800,2.334520751953125,-0.558185086902976,-0.677372022819519,0.27964973894283174
1782814993119602700,2.354602783203125,-0.2842541639983654,-0.7711353252746165,0.23328157192906362
1782814993139685600,2.374685546875,0.0006423895567655563,-0.8292367280442268,0.18389120754990726
1782814993159767600,2.394767578125,0.2721440394878387,-0.845933595823124,0.1466860239451751
1782814993179849700,2.414849609375,0.34933366215229034,-0.9054984222088008,0.20640056099984794
1782814993199932700,2.4349326171875,0.02824585127532482,-0.9182498402975499,0.07553129753079264
1782814993220014600,2.4550146484375,-0.3313216201215982,-0.9971193058077246,-0.23793431137204168
1782814993240096500,2.475096435546875,-0.4066138847321272,-1.0785933277931063,-0.42141441737040874
1782814993260179500,2.495179443359375,-0.3824035725831985,-1.1400009325012563,-0.4096208845283836
1782814993280261600,2.51526171875,-0.3539320958584547,-1.0088892385784536,-0.39368729273956266
1782814993300343600,2.535343505859375,-0.5448322688549757,-0.7864568130470811,-0.30573673168383536
1782814993320426500,2.555426513671875,-0.7957213388681411,-0.49328839797005053,-0.17025717967404053
1782814993340508400,2.57550830078125,-0.6082616617143154,-0.3559885169316083,-0.11057294642608612
1782814993360590300,2.59559033203125,-0.2866629787057638,-0.27308577731736,0.05730802390221506
1782814993380673500,2.615673583984375,0.02499766313433647,-0.10400916746370494,0.17666096403542905
1782814993400755700,2.635755615234375,0.25511925492882725,-0.03616349253207445,0.24943368357308207
1782814993420838700,2.655838623046875,0.09494681315124034,0.1288036361761391,0.1620361898228526
1782814993440920600,2.675920654296875,-0.365955126607418,0.3357317647140473,-0.02429725978001952
1782814993461002500,2.69600244140625,-0.6873036342471838,0.47799898583628236,-0.25896160957068204
1782814993481085400,2.71608544921875,-0.7128682836145163,0.5025795195370912,-0.4752881925076246
1782814993501167600,2.736167724609375,-0.3694336163729429,0.5083836757712066,-0.46327824043594296
1782814993521249500,2.75624951171875,-0.033924481433629985,0.5293464573662727,-0.30738844441361723
1782814993541332500,2.77633251953125,-0.027605215284228324,0.4961265440054238,-0.2225154276397079
1782814993561414400,2.796414306640625,-0.20401976681053638,0.583784588387981,-0.17481683400608597
1782814993581496600,2.81649658203125,-0.3676917411416769,0.6209628839857876,-0.28287681123055514
1782814993601579800,2.836579833984375,-0.38739538952112196,0.514258559153974,-0.45588696114085614
1782814993621661700,2.85666162109375,-0.29516601863503455,0.34228315911889073,-0.6889154533579945
1782814993641743600,2.87674365234375,-0.14621990427076817,0.23600063989572226,-0.8955691488686949
1782814993661826600,2.89682666015625,0.021674656191468238,0.19507585124596952,-0.9061267832402139
1782814993681908500,2.916908447265625,0.22189619976282118,0.3167345841035247,-0.8792381187275051
1782814993701990700,2.93699072265625,0.5031809925615787,0.4094514462456107,-0.7239354749433696
1782814993722073600,2.957073486328125,0.5653554169237613,0.4846656771838665,-0.4807335253667086
1782814993742155500,2.977155517578125,0.45893034742474553,0.5819596379831433,-0.37419133229404683
1782814993762237400,2.997237548828125,0.23400047905445098,0.5724453751847147,-0.36246443494744596
1782814993782320400,3.0173203125,0.20928981616795062,0.5711689255081117,-0.29967246320880947
1782814993802402600,3.037402587890625,0.28670915593504903,0.5375317365832627,-0.04262362845689058
1782814993822485800,3.05748583984375,0.3943447702676058,0.5827284303985536,0.03935746626779437
1782814993842567700,3.077567626953125,0.6097621294051409,0.5257160649746656,0.182153752765432
1782814993862649600,3.097649658203125,0.7488251476585864,0.49223523565530775,0.3298356193475425
1782814993882732500,3.117732666015625,0.8195306690007448,0.5669795109942555,0.5647449568752199
1782814993902814700,3.137814697265625,0.7608312272727489,0.5718988472178578,0.7894153705917298
1782814993922896600,3.157896728515625,0.6149667123109102,0.5276369500346482,0.8520807933412492
1782814993942979600,3.1779794921875,0.264894214490056,0.49982569078430533,0.8387856968298554
1782814993963061500,3.1980615234375,0.10034896445572376,0.46850583889111874,0.8200055199708789
1782814993983143700,3.218143798828125,0.05151099152863026,0.4321965081475675,0.7603828989833593
1782814994003226600,3.2382265625,-0.14407646250128744,0.3777286395747214,0.669640332588926
1782814994023308500,3.25830859375,-0.5473170714080333,0.2938108046337962,0.5136828416252508
1782814994043390500,3.278390380859375,-0.7404267371475696,0.29403869510553776,0.4652396036367863
1782814994063473400,3.298473388671875,-0.5083399827599525,0.21953356228470802,0.5102461086422204
1782814994083555600,3.3185556640625,-0.041673488125205035,0.005960479306988418,0.5455864482231438
1782814994103637500,3.338637451171875,0.316866393789649,-0.261827739591524,0.42853915468379855
1782814994123720400,3.358720458984375,0.3581353927671909,-0.5815279320349916,0.2923505958881229
1782814994143802400,3.37880224609375,0.07925415397882461,-0.7489305077292024,0.08943860765639693
1782814994163884300,3.39888427734375,-0.07679390134513378,-0.8193708022639155,-0.024612280545942482
1782814994183967200,3.41896728515625,-0.11835691483318805,-0.9358360581316053,0.017281791527383027
1782814994204049400,3.43904931640625,-0.11657061593830585,-1.110488130030036,-0.011918839722126722
1782814994224131300,3.45913134765625,-0.30298692151904105,-1.3429147838965056,-0.06252108237538487
1782814994244214300,3.47921435546875,-0.6545102026700973,-1.432351455324143,-0.15822971021197735
1782814994264296200,3.499296142578125,-0.9376625429064035,-1.4283736377343534,-0.29713110816292465
1782814994284379400,3.51937939453125,-1.0896130997836588,-1.4063909385070203,-0.4184923559112474
1782814994304461600,3.539461669921875,-1.2652198420584202,-1.3302519939392805,-0.4925280080568045
1782814994324543500,3.55954345703125,-1.3310750007599592,-1.188779284195602,-0.35051059697717424
1782814994344626400,3.57962646484375,-0.97593878980875,-0.9925347544964402,-0.1986972018145956
1782814994364708400,3.599708251953125,-0.7958142778486013,-0.9493104567326605,0.024980218809191136
1782814994384790500,3.61979052734375,-0.7720990557402372,-0.7190345511592924,0.01588305804482661
1782814994404873500,3.63987353515625,-1.1618301947325467,-0.32198549036905166,0.08576021140459925
1782814994424955400,3.659955322265625,-1.5742261699974536,0.32175862281061707,0.21439501208616418
1782814994445037300,3.680037353515625,-1.2363725177586078,0.9030915071975439,0.2884200515061617
1782814994465120300,3.700120361328125,-0.18998714980483053,1.0025712876033037,0.1446604546680115
1782814994485202400,3.720202392578125,0.919052534982562,0.8489719406057149,-0.06112422118950635
1782814994505284400,3.740284423828125,1.7082675606966018,0.7169288110516965,0.09526625436395406
1782814994525367600,3.760367431640625,2.145370691716671,0.9320841582521796,0.29114311979450286
1782814994545449500,3.780449462890625,2.0304887595176697,1.2576003069654107,0.5417554917581379
1782814994565531400,3.800531494140625,1.634782053247094,1.5783203074432908,0.3963966612961143
1782814994585614300,3.8206142578125,1.37167472217381,1.4108875192739068,0.06048296414390206
1782814994605696500,3.840696533203125,1.1873837381839751,1.0404235369399188,-0.43320977684333917
1782814994625778400,3.8607783203125,0.9270330123424529,0.8581661046043038,-0.8243678798988461
1782814994645861400,3.880861328125,0.5445937839239835,0.8820958462461829,-0.9842331554234027
1782814994665943300,3.900943359375,-0.004046645042300224,0.8840677308410405,-1.0387225051756948
1782814994686025500,3.921025390625,-0.6505728632211685,0.9146506467618047,-1.0697782262399793
1782814994706108400,3.9411083984375,-1.4359627776890993,1.0014365114197135,-1.0571209892407059
1782814994726190300,3.9611904296875,-2.229362395611405,1.3060013497799634,-0.9016261838853359
1782814994746272300,3.981272216796875,-2.553295659047365,1.5124182408601046,-0.5697093012843281
1782814994766355500,4.00135546875,-2.2411194689005614,1.4017476427458226,-0.24047493576556442
1782814994786437600,4.021437744140625,-1.3397685948252678,1.0951916305683553,-0.1413581434533
1782814994806520600,4.0415205078125,-0.17426175740659236,0.7197874153532088,-0.2662009131744504
1782814994826602500,4.0616025390625,0.9097773416370153,0.22766649025995284,-0.4928722183845937
1782814994846684400,4.081684326171875,1.6621920382201671,-0.2012782860826701,-0.5859701887987554
1782814994866767400,4.101767333984375,1.9233014734745024,-0.3873089533466845,-0.7793858517475426
1782814994886849300,4.121849365234375,1.928209119260311,-0.540595873394236,-1.0281335258178412
1782814994906931500,4.141931396484375,1.6560878761261701,-0.7058350970420986,-1.227730800011009
1782814994927014400,4.162014404296875,1.1418640960246325,-0.8105597192987799,-1.3536302391782402
1782814994947096300,4.182096435546875,0.49620530833005905,-0.6871724090829491,-1.5337860230594873
1782814994967178200,4.20217822265625,-0.06102408528327941,-0.49549781764782963,-1.607325306522846
1782814994987261200,4.22226123046875,-0.4343757518827915,-0.3385847429923713,-1.3880653004825114
1782814995007343400,4.24234326171875,-0.8835890074133872,-0.2595535110492259,-0.8983851561374961
1782814995027425300,4.26242529296875,-1.3743559240818022,-0.053995282625034446,-0.5398888211034238
1782814995047508200,4.28250830078125,-1.5485335103362798,0.12206154150478542,-0.26635756504088637
1782814995067590100,4.302590087890625,-1.1250035621166228,0.17079930546041577,0.010601400448009371
1782814995087672300,4.32267236328125,-0.4733095859110355,0.015508096385747194,0.32531711900979277
1782814995107755300,4.34275537109375,0.04165887507796287,-0.2198216219784692,0.44792635752521454
1782814995127837200,4.362837158203125,0.5386608867436647,-0.38853312484677877,0.5075161722216754
1782814995147919000,4.382919189453125,0.8914549184828996,-0.4591514428295195,0.620750264148414
1782814995168002000,4.403001953125,1.0864590196669102,-0.4262275532731786,0.6480250784344971
1782814995188084200,4.423084228515625,0.9888754282712936,-0.439951908047311,0.699694694590941
1782814995208166100,4.443166259765625,0.49318157659471035,-0.4316538891708478,0.44119040033370255
1782814995228249000,4.4632490234375,-0.052120063337683674,-0.517350972211361,-0.05762523662522435
1782814995248331000,4.4833310546875,-0.4590554351091385,-0.6026070334861054,-0.3468176607433706
1782814995268413200,4.5034130859375,-0.6524187833487987,-0.6250998376600444,-0.35064616952296346
1782814995288496000,4.52349609375,-0.6553367166221141,-0.6460531938396394,-0.28000425146892666
1782814995308578300,4.543578369140625,-0.5528010557770728,-0.6670208708055317,-0.39789033391997214
1782814995328660200,4.56366015625,-0.9369394893288612,-0.8048574890691786,-0.41689683034811165
1782814995348743200,4.5837431640625,-1.416188402161002,-0.6736680537350476,-0.534772793263942
1782814995368825000,4.6038251953125,-1.6092571513682603,-0.6100670306358486,-0.49102136635351923
1782814995388907300,4.6239072265625,-1.5119430245637893,-0.37576011598072945,-0.43828978352136905
1782814995408990200,4.643990234375,-1.1626064398020506,-0.24734463887196032,-0.3788634888235479
1782814995429072100,4.664072021484375,-0.7308475924193859,-0.2399253025261685,-0.4193100655023008
1782814995449155000,4.684155029296875,-0.44609892290234565,-0.18143259888403115,-0.49969307738058266
1782814995469237000,4.704237060546875,-0.2600380066305399,-0.021211824452690778,-0.5912525861810892
1782814995489319200,4.724319091796875,-0.10402385357618331,0.2491059129234403,-0.6133335581511259
1782814995509402000,4.744402099609375,-0.03568915301859379,0.5723135654985905,-0.5207055433362722
1782814995529484300,4.764484375,-0.06380056425929069,0.85357826535739,-0.5643729086924344
1782814995549566200,4.784566162109375,-0.08745733417868613,0.8724781230732798,-0.8378428630217909
1782814995569649200,4.804649169921875,-0.15357085155546665,0.8650262726973742,-1.0925925539858639
1782814995589731300,4.8247314453125,-0.23746377125084397,1.0277669575277715,-1.1523257226757704
1782814995609813200,4.844813232421875,-0.19082710776031017,1.1839162082038819,-1.0780858897276222
1782814995629896200,4.864896240234375,0.04919394675791263,1.2656164401605725,-1.0888799632035195
1782814995649978000,4.88497802734375,0.4270347414702177,1.183504850924015,-1.0753021042279898
1782814995670060000,4.90506005859375,0.8823732018828392,1.1343934678830205,-0.9931672071810811
1782814995690143200,4.925143310546875,1.1362275514423847,0.8656643514052033,-0.9519431433238088
1782814995710225200,4.94522509765625,1.2609306204319,0.7221858547970652,-1.0228816697042435
1782814995730307000,4.96530712890625,1.2634575085610151,0.5781013551197945,-1.000361648729816
1782814995750390000,4.98539013671875,1.0195511370420456,0.552817714650929,-0.8866506600063294
1782814995770472000,5.005471923828125,0.5373953968524933,0.6587818886399269,-0.8907033694632351
1782814995790554000,5.02555419921875,0.11974983049631117,0.7957320063926279,-0.9243049756180495
1782814995810637300,5.04563720703125,-0.10239537559151649,0.6692373778112233,-0.8595428728502243
1782814995830719200,5.06571923828125,-0.03652443479895592,0.5891511569224298,-0.8282260166317224
1782814995850801200,5.08580126953125,0.09465981290340424,0.52215968766734,-0.6677060765907168
1782814995870884000,5.105884033203125,0.1997322987496853,0.5365256282806397,-0.551593287422508
1782814995890966300,5.12596630859375,0.04817395606040954,0.709229927112162,-0.33942302044741807
1782814995911048200,5.146048095703125,-0.3202291482210159,0.9786588624224066,-0.17231950076501815
1782814995931131100,5.166131103515625,-0.5976397299349308,1.0606012325718999,-0.24735654850546268
1782814995951213000,5.186213134765625,-1.0975696117460727,1.0630771211661398,-0.2376948400603607
1782814995971296000,5.2062958984375,-1.8174515735149384,1.3082166877418755,-0.33550920800454914
1782814995991378200,5.226378173828125,-2.2210995941787957,1.4686615167200565,-0.2979165046532638
1782814996011460000,5.246460205078125,-2.0068740751743315,1.4235850882835686,-0.17427023297399283
1782814996031542800,5.266542724609375,-1.0125438886284828,1.1948239711873232,-0.128910000893753
1782814996051624700,5.286624755859375,0.19266952075660226,0.9885944193728268,0.07650722989086062
1782814996071707000,5.306706787109375,1.2229045488983392,0.823010327810049,0.3001196589870378
1782814996091788800,5.326788818359375,1.85254802133739,0.658805854037404,0.18784812848214058
1782814996111871700,5.346871826171875,2.2995739959567785,0.33039778327494856,-0.026020612973906097
1782814996131953700,5.36695361328125,2.4563053573697804,-0.02351765370965004,-0.07272847853712737
1782814996152035800,5.387035888671875,2.1588556117117403,-0.07199775310978293,0.02549574884958565
1782814996172118800,5.407118896484375,1.6134534340143203,-0.06456847989186644,0.24580077043082563
1782814996192201000,5.427200927734375,0.9547697450518607,-0.18745178610831498,0.5556254655480385
1782814996212283000,5.447282958984375,0.27109365365207194,-0.4429728998363018,0.433396166260913
1782814996232365800,5.46736572265625,-0.5430278497815132,-0.7434401666846125,0.01930348834702745
1782814996252447700,5.48744775390625,-1.0212158553838728,-0.7586905619822442,-0.1943345313593745
1782814996272530000,5.507530029296875,-1.9221698390960693,-0.5473584263317287,-0.007174330342467874
1782814996292612900,5.52761279296875,-3.178337190648913,0.16643004086762667,0.08922185050002299
1782814996312694800,5.54769482421875,-4.319966893395781,0.7192563041511922,0.28585772673748433
1782814996332776700,5.567776611328125,-4.23550231129229,1.163175033470243,0.08263109219917096
1782814996352859600,5.587859619140625,-2.926517561787367,1.1842821919720619,-0.13463891820088028
1782814996372941800,5.60794189453125,-1.273060618686676,1.055522687198594,-0.33660328685157
1782814996393023700,5.628023681640625,0.03727671447098255,0.9951691946532577,-0.49662813685201107
1782814996413107000,5.64810693359375,0.6843488760948181,1.0270894235923886,-0.5157660776400939
1782814996433188900,5.66818896484375,0.7749825022220611,1.3945369807146488,-0.3931219870069995
1782814996453271000,5.68827099609375,0.7479962956190109,1.9115375320531427,-0.32460988405589014
1782814996473354000,5.70835400390625,0.9222562994599341,2.168225059211999,-0.2515017585514113
1782814996493436000,5.728435791015625,1.2433517091214656,2.0270517708063123,-0.32966870181541885
1782814996513518800,5.748518798828125,1.2858885360777377,1.7358835896357894,-0.6416867422584444
1782814996533600800,5.768600830078125,1.054692593050003,1.6217070292271674,-1.0229800885774194
1782814996553682700,5.7886826171875,0.8167939375132321,1.6952771462202072,-1.22486364707686
1782814996573765600,5.808765625,0.6762216837406158,1.8325106109589337,-1.183706584041193
1782814996593847800,5.828847900390625,0.44395431208908553,1.8190739140197634,-1.1759885570097715
1782814996613929700,5.8489296875,0.21002865183651445,1.7221891185432672,-1.2665411537900566
1782814996634013000,5.869012939453125,0.03463233744204044,1.6401935569018125,-1.1432375763349234
1782814996654094800,5.8890947265625,-0.056771104013919826,1.6266177437528966,-1.018596466665715
1782814996674177000,5.909177001953125,0.17417817077636719,1.5062410135298967,-1.061061835820973
1782814996694260000,5.929260009765625,0.6648784519493579,1.1962423135526477,-1.1386655922442674
1782814996714342000,5.949341796875,1.1341694498687982,0.8514965637125075,-1.1623583833251148
1782814996734423800,5.969423828125,1.478766731148958,0.5440602615691721,-1.2111145231876521
1782814996754506800,5.9895068359375,1.4718337170153855,0.2463129942692816,-1.16733975193426
1782814996774589000,6.0095888671875,0.8614192611813545,0.19052607898712157,-1.2763611215367912
1782814996794671900,6.029671875,0.12741408151388167,0.28963571090623735,-1.224990488326922
1782814996814753800,6.04975390625,-0.5333896683424711,0.46628516716696317,-0.996610698698461
1782814996834835700,6.069835693359375,-1.1524795980632305,0.5929674272749572,-0.629980449308455
1782814996854918700,6.089918701171875,-1.7430144644290209,0.6582838759899139,-0.3845189573019743
1782814996875000800,6.110000732421875,-1.8990671959280967,0.6717560095686466,-0.1623521969694644
1782814996895082800,6.130082763671875,-1.514559929063916,0.6439926080480217,0.08578523624800145
1782814996915166000,6.150166015625,-0.6753016462862491,0.4296338911179453,0.25082082708254455
1782814996935248000,6.170247802734375,0.0631815555781126,0.1598110245866701,0.3656931877356022
1782814996955329800,6.190329833984375,0.49712183865308757,-0.12774736858885735,0.4147123624484986
1782814996975412700,6.210412841796875,0.4488327317804098,-0.39695615834239867,0.30200178293921054
1782814996995495000,6.230494873046875,0.1402268013358116,-0.5387509396472946,0.08368263794556259
1782814997015576800,6.250576904296875,-0.24916063878536224,-0.5293991739341989,-0.06395078638494014
1782814997035660800,6.270660888671875,-0.3492383850842714,-0.4269322309438139,-0.010761778641492128
1782814997055742700,6.29074267578125,-0.3207710000127554,-0.36648324213474986,0.12410181516073643
1782814997075824600,6.31082470703125,-0.39661037711203095,-0.3612310937602073,0.18135555159244685
1782814997095907800,6.330907958984375,-0.4881535192996263,-0.38300599545575675,0.16058091298062355
1782814997115990000,6.350989990234375,-0.5273650012254715,-0.39084479932263494,0.2283750769207254
1782814997136073000,6.371072998046875,-0.38076048155128955,-0.3826564513657242,0.3032827261278406
1782814997156155000,6.39115478515625,-0.09195347655415534,-0.4513219182476401,0.4084969585323706
1782814997176236800,6.41123681640625,0.13817337593734264,-0.5742951312372461,0.386741090330854
1782814997196319700,6.43131982421875,0.24048341133296489,-0.7108544595740736,0.31611944787986573
1782814997216402000,6.45140185546875,0.1581084949851036,-0.7066608072765171,0.27966928389351814
1782814997236483800,6.47148388671875,0.13342179749608038,-0.6395642702117562,0.3280771583076566
1782814997256566800,6.49156689453125,0.17832360001802444,-0.6957774480819702,0.4415192304292693
1782814997276648700,6.511648681640625,0.08784078053832053,-0.7159602582804858,0.42282519748378544
1782814997296731000,6.53173095703125,-0.1799596767872572,-0.7531395767915994,0.168833631410636
1782814997316813800,6.551813720703125,-0.7369219438970088,-0.8295218285959214,-0.047189767328649754
1782814997336895700,6.571895751953125,-1.3428092776954172,-0.7463388838008046,-0.20244652614444494
1782814997356977700,6.591977783203125,-1.645537840539217,-0.6781964178796858,-0.2577254553718492
1782814997377060900,6.612060791015625,-1.6744886252135038,-0.5843174166230485,-0.30141864928901196
1782814997397142800,6.632142822265625,-1.5351877065509556,-0.6264816474072635,-0.37152806790154425
1782814997417225000,6.652224853515625,-1.2735475254207849,-0.5472590941431,-0.38047435808628793
1782814997437308000,6.672307861328125,-0.9700696055144071,-0.35723953990601,-0.2205442006319761
1782814997457389800,6.692389892578125,-0.3916244053930044,-0.07718881894685327,-0.1718012855771929
1782814997477472800,6.71247265625,0.3400497009783983,0.21340989177264272,-0.07885879798568785
1782814997497554700,6.7325546875,1.0350433052062988,0.3261266818270087,0.03497223692089319
1782814997517636900,6.752636962890625,1.4064403306066988,0.3646168637409806,0.09780311589781195
1782814997537719800,6.7727197265625,1.5936071622937917,0.5297247891593724,0.056593738153018054
1782814997557801700,6.7928017578125,1.6056050586014985,0.5254906587209552,-0.20314053629059342
1782814997577883600,6.812883544921875,1.3709335484176874,0.20003522721901534,-0.5687785963054746
1782814997597966800,6.832966796875,0.7255565002739429,0.18451704783067105,-0.9033009852297603
1782814997618049000,6.853049072265625,0.024698387926816938,0.3763149733845144,-0.9809194277655333
1782814997638131000,6.873130859375,-0.5588087717592716,0.41371641021370886,-1.0520589566107839
1782814997658214000,6.8932138671875,-1.0595926400512456,0.2150144774250686,-1.1690479440916328
1782814997678295800,6.9132958984375,-1.2772294288039208,0.14518909991830586,-1.1215460420738905
1782814997698377700,6.933377685546875,-0.8193471291273832,0.31779702570326623,-0.7066494090996682
1782814997718460700,6.953460693359375,-0.03321311829388141,0.3977684611059725,-0.08430630453554913
1782814997738542800,6.97354296875,0.4778647649973631,0.45802053910344837,0.2433894897717051
1782814997758624800,6.993624755859375,0.7513052740365266,0.6101509825922549,0.5126769525183364
1782814997778707700,7.013707763671875,0.6356827526032924,0.7158762332588434,0.5914643292356282
1782814997798789600,7.03378955078125,0.352454424521327,0.8719386093690991,0.6160642982892691
1782814997818871800,7.053871826171875,0.20947452508509157,0.8482599198788404,0.6154319186698645
1782814997838955000,7.073955078125,0.1792658493041992,0.624233283958584,0.5589371108466759
1782814997859037000,7.094036865234375,0.24034137251377105,0.3778938400737941,0.4494660247152671
1782814997879118800,7.114118896484375,0.2650327461779117,0.2564054953470826,0.5198201753364876
1782814997899201800,7.134201904296875,0.04659983861148357,0.30906390334516765,0.6269592017911374
1782814997919284000,7.154283935546875,-0.3009948709189892,0.37262035665027793,0.7193165829710662
1782814997939367000,7.174366943359375,-0.5929214692413807,0.39710239841267464,0.7233768912125378
1782814997959448800,7.19444873046875,-0.6823650088012219,0.3797635794684291,0.6831557207874953
1782814997979530800,7.21453076171875,-0.3275713276773691,0.31291473355442284,0.6349645943965763
1782814997999613700,7.23461376953125,0.3456728015571832,0.17628354555778206,0.6416691335365176
1782814998019695900,7.25469580078125,0.8293629117071628,-0.017201310169696806,0.6702053460605442
1782814998039777000,7.274777099609375,1.0950912389338017,-0.19913762079216538,0.6301176658220589
1782814998059860200,7.294860107421875,1.1094354061067104,-0.3541866551414132,0.45180013021863996
1782814998079942100,7.314942138671875,0.8973153349488973,-0.5050508780866861,0.24931761944536118
1782814998100024300,7.3350244140625,0.7051151852697134,-0.6272961055953056,0.14949863368049263
1782814998120107300,7.355107177734375,0.5063292274594307,-0.7379968065869063,0.17191457322593778
1782814998140189200,7.375189208984375,0.14123627063930033,-0.8115927886735648,0.2516352852705866
1782814998160271000,7.39527099609375,-0.36961481815874575,-0.8732091407615691,0.1992395467966795
1782814998180354000,7.41535400390625,-0.9166308607935905,-1.0093971150353551,0.05748557242620736
1782814998200436200,7.435436279296875,-1.2232605227291584,-1.098385238977894,-0.19039149282202122
1782814998220518100,7.45551806640625,-1.190273029884696,-1.2516763237439095,-0.26190314291529354
1782814998240601000,7.47560107421875,-1.0546966847032309,-1.3910031075000762,-0.4096412331966683
1782814998260683000,7.49568310546875,-0.9407552482247352,-1.4138837784804403,-0.5712305195022374
1782814998280765200,7.51576513671875,-0.9389572588920593,-1.3172091186232864,-0.6358005337640643
1782814998300848000,7.53584814453125,-1.1532447372168302,-1.2668702396139502,-0.5997373232686892
1782814998320930300,7.555930419921875,-0.8773848920762538,-1.1271725767187772,-0.6789283854160457
1782814998341012200,7.57601220703125,-0.6730494834452867,-1.0909683137848973,-0.5213197297118604
1782814998361095200,7.59609521484375,-0.6188198806077242,-0.7905131027005612,-0.34607593899797645
1782814998381177000,7.616177001953125,-0.3933972602844238,-0.2141192090857774,-0.25009760910822076
1782814998401259300,7.63625927734375,-0.7167816576659679,0.41973946989551186,0.20336495616361497
1782814998421342200,7.65634228515625,-1.1284843899697066,0.956299584967643,0.41774120875038206
1782814998441424100,7.676424072265625,-1.1090431919187307,1.138965598104149,0.412769630882889
1782814998461506000,7.696506103515625,-0.32517244984209537,0.9927915788017213,0.37514804849699135
1782814998481589000,7.716589111328125,0.85691435097754,0.8080546046100556,0.5331081845199689
1782814998501671200,7.736671142578125,1.7182108625620602,0.591691927446425,0.7218436902958899
1782814998521754400,7.75675439453125,2.1099089177131654,0.6235242589063942,1.0036837788898498
1782814998541836300,7.776836181640625,1.913492611643672,0.7910293816596269,1.1167942444369197
1782814998561918200,7.796918212890625,1.4130115256905555,0.7302804600559175,0.7827065936680883
1782814998582001200,7.817001220703125,0.7278034024178981,0.4803557050302624,0.3293608414426446
1782814998602083300,7.837083251953125,0.37958442350924015,0.44519861306175584,0.10121106117777526
1782814998622165200,7.857165283203125,0.28766309565901754,0.5064657133206725,0.04825637364685535
1782814998642248200,7.877248291015625,0.1987894649416208,0.5146477046020329,-0.03222608001790941
1782814998662330000,7.897330078125,-0.11488602385222911,0.3754951083689928,-0.17449030546545982
1782814998682412000,7.917412109375,-0.49020928278565407,0.3195329826503992,-0.4464326118361205
1782814998702495000,7.937494873046875,-0.5485235245883464,0.32820816427618266,-0.7073716589596122
1782814998722577200,7.9575771484375,-0.12829437147974967,0.3302542831510305,-0.6832178993035107
1782814998742659000,7.9776591796875,0.09561258358359337,0.4202010960578918,-0.35953495736680924
1782814998762742000,7.997741943359375,-0.18407763350009917,0.5112484175525606,-0.355348976919055
1782814998782824000,8.017823974609374,-0.8393535598456859,0.18154183141216634,-0.556682354189828
1782814998802906000,8.037906005859375,-1.4793845707863569,-0.004711100300401449,-0.874329230832681
1782814998822989300,8.0579892578125,-1.6492869639396666,0.09688844873830675,-0.9021841100290418
1782814998843071200,8.0780712890625,-1.1722481283724306,0.23455650550201534,-0.7941200411513447
1782814998863153200,8.098153076171876,-0.1265495736390352,0.2499367377243936,-0.49239188752174373
1782814998883236000,8.118236083984375,1.0610258877247571,0.1881343615449965,-0.23719006887599825
1782814998903318300,8.138318359375,1.7582926975816486,-0.09369096787124871,-0.19299948336333037
1782814998923400200,8.158400146484375,2.034630097106099,-0.2957328587375581,-0.32752770773135126
1782814998943483100,8.178483154296876,1.9307249014735222,-0.4006130368821323,-0.4959939306017011
1782814998963565000,8.19856494140625,1.477853123435378,-0.45906420293748373,-0.5669512347478419
1782814998983647200,8.218647216796874,0.7943348529458045,-0.4387302938304841,-0.5623237941429019
1782814999003730200,8.238730224609375,0.10891980892419814,-0.38340807345062494,-0.4993506206184625
1782814999023812000,8.25881201171875,-0.3680751875013113,-0.3558274080857634,-0.48383171057775615
1782814999043894800,8.278894775390626,-0.6164893918335438,-0.4745370818793773,-0.3887757379636168
1782814999063977700,8.298977783203124,-0.639963790923357,-0.5720842867873609,-0.15250424523726105
1782814999084059600,8.3190595703125,-0.5735054056316614,-0.6152248517904431,0.04035283398069441
1782814999104141800,8.339141845703125,-0.5203653515964746,-0.6387789650529623,0.27603892803452906
1782814999124224800,8.359224853515625,-0.4399702108889818,-0.6208755710285156,0.4293930680993944
1782814999144306700,8.379306640625,-0.06996902376115322,-0.7853964172739535,0.4434975082322955
1782814999164388600,8.399388671875,0.4167161765515804,-0.9036305825103074,0.4064752799790352
1782814999184471600,8.419471435546875,0.6458078407764435,-1.0127939909320325,0.49418395857028663
1782814999204553700,8.4395537109375,0.42853520916104315,-0.9236154589839279,0.49542234125882384
1782814999224635600,8.4596357421875,0.12204232534766196,-0.7587724681120366,0.218866403612867
1782814999244718600,8.479718505859376,-0.2235334455758333,-0.7510924350034445,0.02073306449241936
1782814999264800500,8.499800537109374,-0.19566461091935633,-0.7605133204299956,-0.09018588235974312
1782814999284882400,8.51988232421875,-0.9256500335514545,-0.8999097353562712,0.007459449160471558
1782814999304965600,8.539965576171875,-1.2764321409463881,-0.6452286526490002,-0.22025084370858966
1782814999325047800,8.5600478515625,-1.3054735265135764,-0.46591852581165727,-0.3776628808621317
1782814999345129700,8.580129638671876,-1.2647826196849346,-0.15333616601675748,-0.30859219418019057
1782814999365212700,8.600212646484374,-1.3292945470839739,0.16418255420178174,-0.19026823176853358
1782814999385294600,8.620294677734375,-1.1525783822625875,0.5739088718660176,-0.20310433246605097
1782814999405376800,8.640376708984375,-0.6970949604213237,0.7551455828517675,-0.25143654782809316
1782814999425459700,8.660459716796876,-0.21804595407545566,0.7533673211328685,-0.2780076708242297
1782814999445541600,8.680541748046876,0.1675274807155132,0.8476616617247462,-0.39483226152360434
1782814999465623600,8.70062353515625,0.37997079247832294,0.9191795223630964,-0.5174037983771413
1782814999485706500,8.72070654296875,0.4481044175058603,0.9525975155793129,-0.5821051839336753
1782814999505788700,8.74078857421875,0.29048166021108623,0.9783901284836232,-0.6334200683683157
1782814999525870600,8.76087060546875,0.14624270062446593,0.9701898708932101,-0.7582929409667849
1782814999545953800,8.780953857421874,0.19484861836135386,0.9153104258447885,-0.833438636713475
1782814999566035700,8.80103564453125,0.3231535112351179,0.8992728987574576,-0.849056184823066
1782814999586117600,8.82111767578125,0.48287177950441834,0.9320411958932876,-0.6906961262296885
1782814999606200600,8.84120068359375,0.46098611091077324,0.9612848260343074,-0.5473411098707467
1782814999626282800,8.86128271484375,0.2802186248719692,0.9653739950440824,-0.5729807241704314
1782814999646364700,8.88136474609375,-0.022469021439552306,0.8996934622570871,-0.714773313518241
1782814999666447600,8.901447509765624,-0.05911503679156303,0.8851593254700303,-0.7444407220292836
1782814999686529500,8.921529541015625,0.08033785756230354,0.5947228195749222,-0.7851211805291474
1782814999706611700,8.94161181640625,0.2593535314977169,0.5010261526152491,-0.7718497571542858
1782814999726694700,8.961694580078126,0.44900808834731576,0.4938739427730441,-0.5687791808273643
1782814999746776600,8.981776611328126,0.48099721780419347,0.47411198833510276,-0.4183519610598683
1782814999766858500,9.0018583984375,0.2922176902234554,0.39428178803399205,-0.27330263493843376
1782814999786941700,9.021941650390625,-0.03734685709774494,0.4455405583672225,-0.2616912537302822
1782814999807023900,9.04202392578125,-0.3940338046222925,0.46022199467048047,-0.3845116507783532
1782814999827105800,9.062105712890625,-0.8282534891605376,0.39967531764060255,-0.28684966038428245
1782814999847188700,9.082188720703124,-1.1938117254048586,0.591230301284045,-0.24478059707023203
1782814999867270700,9.102270751953125,-1.1474649847716092,0.7827484600484371,-0.12281572087295353
1782814999887352800,9.122352783203125,-0.6098018768936395,0.8241954459413886,0.05710092049017548
1782814999907435800,9.142435791015625,0.2275730763554573,0.5871309031412005,0.3176628779295832
1782814999927517700,9.162517578125,0.8931628914445638,0.22542715036794542,0.39881943146362897
1782814999947599600,9.182599609375,1.2622615767747163,0.0335883813470602,0.3560236613102257
1782814999967682600,9.2026826171875,1.1092606340616942,-0.025103315465897322,0.4565373148083687
1782814999987764500,9.222764404296875,0.6438122830450534,-0.018215017256885766,0.4604315457679331
1782815000007846700,9.2428466796875,0.40168753424584863,-0.004140606936067342,0.533597246678546
1782815000027929600,9.2629296875,0.26937223668694493,-0.1363455759882927,0.7119228194579482
1782815000048011500,9.283011474609374,0.16259060883522033,-0.19261311439424753,0.6634825406115502
1782815000068093400,9.303093505859374,-0.05923135664761066,-0.31910759684517975,0.8104611542951315
1782815000088803600,9.323803466796875,0.05880640923380851,0.08821158661209047,0.24603096245750783
1782815000108885500,9.343885498046875,-0.31808687549531456,-0.02355411326251924,0.018433336182683707
1782815000128967400,9.363967529296875,-0.7667302221834659,-0.21088950644955037,0.004397431241348386
1782815000149050400,9.38405029296875,-0.9237345553189515,-0.2689187207657844,-0.08512523796930908
1782815000169132500,9.404132568359374,-0.9167167855113744,-0.2535116736017167,-0.15405498181059957
1782815000189214500,9.42421435546875,-1.1195306836634873,-0.20656711320579052,-0.06610003684069961
1782815000209297400,9.44429736328125,-1.0428671306997537,-0.04369958712533116,-0.09864205093998461
1782815000229379300,9.46437939453125,-0.6280424669831991,-0.014819529599696396,-0.04674436164870858
1782815000249461500,9.48446142578125,-0.2460983286052942,-0.20838563386984169,0.3090717578580603
1782815000269543700,9.504543701171874,-0.021088380736112595,-0.2541642192263156,0.43723256608601657
1782815000289626600,9.524626708984375,0.12382570163309574,-0.2746246773224324,0.386652352601476
1782815000309708500,9.54470849609375,0.33246143780648707,-0.3305086232382804,0.3136940838964656
1782815000329790700,9.564790771484375,0.4953700265496969,-0.38140981230549514,0.27066947342325
1782815000349873700,9.584873779296874,0.40845454416275023,-0.4562350439261645,0.2507751978425309
1782815000369955600,9.60495556640625,0.2395809095352888,-0.4382115306533873,0.11180679906997829
1782815000390037500,9.62503759765625,0.13747487227916716,-0.45526042674034833,-0.016309841222688554
1782815000410748400,9.64574853515625,0.18502338991761205,-0.5092378083825111,-0.03285750978924334
1782815000430831400,9.665831298828126,0.2755687532395124,-0.6417682099968195,-0.07201411972269416
1782815000450913500,9.68591357421875,0.10583119525909424,-0.6252978444501758,0.028493177099898456
1782815000470995500,9.705995361328124,-0.1625526149123907,-0.45723391877040265,0.08028402674952521
1782815000491078700,9.72607861328125,-0.330952786809206,-0.3958554670915007,0.13252939696731045
1782815000511160600,9.74616064453125,-0.14822130722105503,-0.4667161789953708,0.17950469956137238
1782815000531242500,9.766242431640626,0.1494511412769556,-0.5717927564948797,0.2884164347769692
1782815000551325400,9.786325439453124,0.25100655891299245,-0.5798559437021613,0.5664270647432654
1782815000571407600,9.80640771484375,0.1772527559161186,-0.5196519426301122,0.7110300353366881
1782815000591489500,9.826489501953125,0.26570903800427914,-0.7002500634513795,0.735810183262825
1782815000611572500,9.846572509765625,0.5948527295649051,-0.8314797577306627,0.6154001352921128
1782815000631654400,9.866654296875,0.1183592529207468,-0.8941362665213644,0.7473450651686638
1782815000651736600,9.886736572265624,-0.47345279377400873,-0.4638724800020456,0.5033861597448587
1782815000671819500,9.906819580078125,-0.8001531838357449,-0.19452450097352264,0.29044010435799134
1782815000691901400,9.9269013671875,-0.7094476615160703,-0.16054507448226213,0.11811500496924854
1782815000711983400,9.9469833984375,-0.6708598644465208,-0.06957856313884257,0.15299056744948028
1782815000732066600,9.967066650390626,-0.5930693532794714,0.14622034266218542,0.2892574156457558
1782815000752148700,9.987148681640624,-0.15078268214166163,0.2264969715565443,0.4573970369102433
1782815000772230700,10.007230712890625,0.1207335808366537,0.33027138041630383,0.7267465868413447
1782815000792313600,10.027313720703125,0.13417173908054827,0.5063520238131285,0.6899040990691632
1782815000812395500,10.0473955078125,0.14782792398929595,0.4083237573899329,0.4658092202182859
1782815000832477700,10.067477783203126,0.12163783619999885,0.1335642747066915,0.28288870259774845
1782815000852560600,10.087560546875,-0.1407020176321268,0.16289017630368471,0.1414270531042013
1782815000872642600,10.107642578125,-0.43819910956323144,0.31503786318823696,0.014066290946444496
1782815000892724500,10.127724365234375,-0.5044342074930668,0.4065487105414271,-0.05180547183002345
1782815000912807400,10.147807373046875,-0.1994037974476814,0.4507191300489008,-0.2034730196479708
1782815000932889300,10.167889404296876,0.15354337902665138,0.3448449724309146,-0.1394831616279669
1782815000952971500,10.187971435546874,0.358549234265089,0.39547216686233877,-0.07309163102740421
1782815000973054700,10.2080546875,0.43903556038737296,0.4375472215257585,-0.1244187812885735
1782815000993136600,10.22813671875,0.44827626694142814,0.2826980205975473,-0.1969773740183562
1782815001013218600,10.248218505859375,0.34713293723762034,0.35301658844873307,-0.32540943693574514
1782815001033301500,10.268301513671876,0.2667547476649284,0.39485783435627814,-0.449458024071902
1782815001053382700,10.288382568359374,0.38959260730445383,0.3238609288521111,-0.48425183568596836
1782815001073464600,10.308464599609374,0.39733284616768355,0.2899342554613948,-0.4553837243264541
1782815001093547500,10.328547607421875,0.1750882713586092,0.3516578673161566,-0.353917994267866
1782815001113629700,10.348629638671875,-0.3996639194637537,0.5351463027514517,-0.1911264560330659
1782815001133711600,10.368711669921876,-0.6933207025796174,0.6272286663822829,-0.284288340262603
1782815001153794800,10.388794921875,-0.4878495679169893,0.4392174928255379,-0.3486334049284458
1782815001173876700,10.408876708984375,0.16446867766678333,0.14638459331318734,-0.3474459852421656
1782815001193958700,10.428958740234375,0.6053302844375371,0.027694062611460683,-0.151169407303771
1782815001214040800,10.449040771484375,0.6223199976831674,0.005866846206784248,-0.24224408259624614
1782815001234123800,10.469123779296876,0.5076736278057098,-0.03486103163138032,-0.3587902764793485
1782815001254205700,10.489205810546874,0.5906552778750658,-0.11165537136793136,-0.4778212546491995
1782815001274287600,10.50928759765625,0.812633310702443,-0.20770693089067935,-0.5150238079054281
1782815001294370600,10.52937060546875,0.867960645648837,-0.34876740657165645,-0.4127168047171086
1782815001314452700,10.54945263671875,0.6096411333739757,-0.24603300828412172,-0.3736099156768992
1782815001334534700,10.56953466796875,0.5600678319096565,-0.21281082990095018,-0.29264059181064367
1782815001354617600,10.58961767578125,0.4990823250710964,-0.3846174492403865,-0.31877003545388577
1782815001374699500,10.609699462890624,0.16398352449834347,-0.35347952978536484,-0.41431707952059804
