time,seconds_elapsed,z,y,x
1782815035376219000,0.060218994140625,0.18481179299354553,-0.6518221326299012,0.3998795715084299
1782815035396300800,0.08030078125,0.09767536133229732,-0.773243403469771,0.14860855297297237
1782815035416382700,0.1003828125,0.0906610986560583,-0.9860415200196206,-0.06442326273489743
1782815035436465000,0.12046484375,0.027609891459345816,-1.050497041056305,-0.12278930779006332
1782815035456546800,0.140546875,0.1268383274525404,-0.9749112003266811,0.08843991547524929
1782815035476628700,0.160628662109375,0.23817454986870287,-0.8901064264833927,0.28838983903098847
1782815035496711700,0.180711669921875,0.42692602039873595,-0.8092036285147071,0.2795216921163723
1782815035516793600,0.200793701171875,0.6443243242204189,-0.8007293762885034,0.40376971081476654
1782815035536875800,0.220875732421875,0.7566051340103149,-0.7831257689282297,0.6493085423737764
1782815035556957700,0.240957763671875,0.7696405566722154,-0.7197831775695085,0.7933575323462486
1782815035577039600,0.26103955078125,0.6578261953502893,-0.7219688510455191,0.7722444555602967
1782815035597121800,0.281121826171875,0.29817981349825856,-0.7371420163884759,0.6357435428798198
1782815035617203700,0.30120361328125,0.09988426955342292,-0.8555123752251267,0.30327640598490835
1782815035637285600,0.32128564453125,0.16821663202345372,-1.0903691788479686,0.08136245136968791
1782815035657367800,0.341367919921875,-0.16201485477387903,-1.2095192898854612,0.12805533855948598
1782815035677450800,0.36145068359375,-0.47422903884351253,-0.9405399980388581,0.06626525560608133
1782815035697532700,0.38153271484375,-0.5991244155347347,-0.8142804933875799,-0.010533650707732885
1782815035717614600,0.401614501953125,-0.6172463476806879,-0.8301568385638296,-0.08880085774213076
1782815035737696800,0.42169677734375,-0.588344078323245,-0.8111122386150061,-0.22062745846863835
1782815035757779000,0.441779052734375,-0.5021878898710013,-0.6553517680607736,0.0949127647511661
1782815035777860900,0.46186083984375,-0.636267274492979,-0.2999742956995964,0.3673413202688098
1782815035797942800,0.48194287109375,-0.5683090060323477,-0.0404385395027697,0.18619203183818608
1782815035818025000,0.50202490234375,-0.32098201241493224,-0.06571078179478645,0.15568868395965546
1782815035838107000,0.52210693359375,0.07794774755537509,-0.06345335825681686,0.183516821279563
1782815035858189800,0.54218994140625,0.1467886440694332,0.07706599628478288,0.380745393580012
1782815035878271700,0.562271728515625,-0.31195757896006104,0.40638036823719736,0.28956275526788083
1782815035898354000,0.58235400390625,-0.9532166703909635,0.8084495952770113,0.17319036531541496
1782815035918435800,0.602435791015625,-0.8905845653891563,0.9997025272339581,0.18478943503126502
1782815035938517800,0.622517822265625,-0.35269115588665007,0.9989894105285405,0.2576011714050546
1782815035958599700,0.642599609375,0.5118067820876836,0.9022659430935979,0.2730484409816563
1782815035978681900,0.662681884765625,0.9440385076791048,0.7143336799919605,0.37188623368944973
1782815035998763800,0.682763671875,0.9179565564393997,0.821764419402182,0.2140848684247583
1782815036018845700,0.702845703125,0.6225748492270707,0.7470514159843326,-0.15678853496033698
1782815036038928600,0.7229287109375,0.42188276553452014,0.5335027733281255,-0.4433639449805021
1782815036059010800,0.7430107421875,0.15496727434992788,0.44180268701314923,-0.7620696830265223
1782815036079093000,0.763093017578125,-0.20498305888473986,0.41273207535147666,-0.8416923780567943
1782815036099175000,0.7831748046875,-0.5335246928989887,0.5005649648442864,-0.9771459736414253
1782815036119257000,0.803257080078125,-0.4060100736200809,0.4358879100114107,-1.1092383491646498
1782815036139339000,0.823339111328125,0.01641571274995804,0.2866989268019795,-1.2117412037186324
1782815036159421000,0.8434208984375,0.29266835660040375,0.18465338756144045,-1.1420146104112268
1782815036179502800,0.8635029296875,0.23244915795922277,0.3018769144505262,-0.7916700907159596
1782815036199585000,0.8835849609375,-0.05014905552566051,0.5486053576529025,-0.5179200408035889
1782815036219667000,0.9036669921875,-0.4826531683176756,0.6726850340470671,-0.3775452823644504
1782815036239750000,0.92375,-0.6990653837114572,0.6909636180594563,-0.31524872945994137
1782815036259831800,0.943831787109375,-0.801706258496642,0.6619257396236061,-0.3623648104978725
1782815036279914000,0.9639140625,-0.5274789829939603,0.6026251171320677,-0.38056371687017376
1782815036299996000,0.983995849609375,0.14099310953319072,0.4058478687956929,-0.25440211963541803
1782815036320077800,1.004077880859375,0.7181622983694076,0.2270019984692335,0.003775792211666703
1782815036340160000,1.024159912109375,1.0337351452171801,0.1666179646551609,0.0603421309011057
1782815036360242000,1.044241943359375,1.0547364321917294,0.09352671722024679,0.0476943558499217
1782815036380323800,1.06432373046875,1.0218342795431614,-0.06763736594319343,0.04678257476724684
1782815036400405800,1.08440576171875,0.8177116368800401,-0.1427402454614639,0.07203278789054601
1782815036420489000,1.104489013671875,0.5235036496222019,-0.2761138199016452,-0.00014172829193994402
1782815036440571000,1.12457080078125,0.2512766080260277,-0.4054185374677181,0.02776955726677552
1782815036460652800,1.14465283203125,-0.02982230681180954,-0.4838058454841375,0.25211026410488413
1782815036480734700,1.164734619140625,-0.30096564482450483,-0.4004330041401088,0.4433293485911563
1782815036500817000,1.18481689453125,-0.46486441364884373,-0.453825863892585,0.5816035910870879
1782815036520898800,1.20489892578125,-0.7488993819385766,-0.492932278008759,0.7537726870633661
1782815036540981000,1.22498095703125,-0.8587725460648536,-0.5415716596238315,0.6451167897723615
1782815036561063200,1.245063232421875,-0.6619885757267475,-0.7644307130694389,0.4496536927744746
1782815036581145000,1.26514501953125,-0.3387427100330591,-0.954030617122352,0.33715317581929266
1782815036601227000,1.28522705078125,-0.1283791271537542,-1.0197342385239898,0.29132015686184165
1782815036621310000,1.30531005859375,0.115234983420372,-1.0348482210256158,0.21159633954465387
1782815036641391900,1.325391845703125,0.1824941637009382,-1.041206796272099,0.15682777099218217
1782815036661474000,1.34547412109375,-0.0030552959173917767,-1.044632971328497,0.013678232343774289
1782815036681556000,1.365555908203125,-0.3426689435660839,-0.9918319399893283,-0.226251837689057
1782815036701638000,1.385637939453125,-0.4885603465348482,-0.9004543636269867,-0.4175014451777562
1782815036721720000,1.405719970703125,-0.25038462762236596,-0.8532507139034569,-0.5429211745366453
1782815036741802000,1.425802001953125,-0.3036240503787994,-0.845367267177254,-0.46647254296522583
1782815036761884000,1.4458837890625,-0.45287294708192344,-0.5023597393065691,-0.5283623416997492
1782815036781966000,1.465966064453125,-0.6322644685924053,-0.16139029313474892,-0.3892924553140998
1782815036802048000,1.486048095703125,-0.6657523121744394,0.13180091829597948,-0.3648132265632972
1782815036822131000,1.506130859375,-0.43624622192978857,0.16456453925669193,-0.28871605704436076
1782815036842212900,1.526212890625,-0.39680210029184815,0.24336451972723006,-0.19799645140040664
1782815036862295000,1.546294921875,-0.4267348817408085,0.4483379340007901,-0.17932000891054048
1782815036882377000,1.566376953125,-0.37756957655549045,0.5826619410336017,-0.076124057525862
1782815036902459000,1.586458984375,-0.5245014284878969,0.7351248313471674,-0.05661478094104677
1782815036922540800,1.606540771484375,-0.742677146422863,0.8846203962877393,-0.2928839721124619
1782815036942623000,1.626623046875,-0.8518126439243554,0.9007330344378948,-0.5363093917140737
1782815036962705000,1.646704833984375,-0.6972685634225606,0.7481441796571016,-0.8151765654444694
1782815036982786800,1.666786865234375,-0.3438146064698696,0.7297136199533939,-0.9433493563711642
1782815037002869000,1.686868896484375,0.05893266596198082,0.827739986680448,-0.9117311060532927
1782815037022952000,1.706951904296875,0.3955558996230364,1.038577032290399,-0.7817503158565611
1782815037043033900,1.727033935546875,0.6943225730985403,1.1239110907047987,-0.7131506076872348
1782815037063115800,1.74711572265625,0.9369991105616092,1.1035796658158301,-0.5835772657802328
1782815037083198200,1.7671982421875,0.9294979411512613,1.0392623842060564,-0.4661838622169569
1782815037103280400,1.7872802734375,0.4965361477196216,1.143489359138906,-0.43003666323255746
1782815037123362300,1.8073623046875,0.3451350414186716,1.1530071290686725,-0.596465644654259
1782815037143444200,1.8274443359375,0.6279255626052618,0.8461749302983284,-0.5506491384401917
1782815037163526400,1.8475263671875,0.6858236248224974,0.6154954123601317,-0.6186799606803804
1782815037183608300,1.8676083984375,0.4499970993846655,0.5013949859276413,-0.533925455719605
1782815037203690200,1.887690185546875,0.17613105840981005,0.447752535328269,-0.4825340719826519
1782815037223773200,1.907773193359375,0.2867664390802383,0.4037976582676172,-0.2631227113055065
1782815037243855400,1.92785546875,0.4529413361430168,0.16925708098709583,0.10196087489807977
1782815037263937300,1.947937255859375,0.46499651559591293,0.05878682775050401,0.0986594769988209
1782815037284019200,1.968019287109375,0.3763017485767603,0.015014321519434451,0.13324810316329821
1782815037304101000,1.98810107421875,0.20273674126267432,0.049285716694593425,0.07702271426548249
1782815037324183300,2.008183349609375,-0.08595102126896381,0.1271063307389617,-0.0413213593524415
1782815037344265200,2.02826513671875,-0.2675222249060869,0.10885784960389136,0.0064330926542636
1782815037364347100,2.04834716796875,-0.42584582394659515,0.191707689987123,0.26584830034449697
1782815037384429300,2.06842919921875,-0.8175824575424194,0.18779723854511976,0.34281850810460746
1782815037404511200,2.08851123046875,-0.9588830255895853,0.1401484754025936,0.24825030074110252
1782815037424593200,2.10859326171875,-0.704362321075797,-0.06247486861348152,0.18743008573316036
1782815037444676400,2.12867626953125,-0.35092648430168627,-0.27053455846458674,0.18314188701994716
1782815037464758300,2.14875830078125,0.036788638693094254,-0.2698749255120754,0.3513770776133984
1782815037484840400,2.16884033203125,0.24442718052268028,-0.31822496879175305,0.4454331524699926
1782815037504922400,2.18892236328125,0.22943594761788844,-0.4440282541081309,0.27837266821172085
1782815037525004300,2.20900439453125,0.37483810576498505,-0.5669798032552004,0.10858188220672309
1782815037545086500,2.22908642578125,0.5881815812379122,-0.6486169068478047,0.14200632343003525
1782815037565168400,2.24916845703125,0.7000941422373056,-0.7657670762397348,0.12637558704530819
1782815037585250300,2.269250244140625,0.6021013855189085,-0.9042997870087623,-0.041038368559442456
1782815037605332500,2.28933251953125,0.3315536753118038,-1.0163707534402608,-0.17149291374776512
1782815037625414400,2.309414306640625,0.013477321210503577,-1.0533560837492346,-0.3144227634971961
1782815037645497300,2.329497314453125,-0.23748189142942427,-1.128265194261074,-0.4822882074628025
1782815037665579300,2.349579345703125,-0.5142413157582283,-1.288206896022707,-0.6013633170353249
1782815037685661400,2.369661376953125,-0.7891302700400352,-1.183850741752237,-0.5184894747219979
1782815037705743400,2.389743408203125,-0.9737094233214855,-1.0053265045955777,-0.3974196111356839
1782815037725825300,2.4098251953125,-1.1637433348774908,-0.8484623105831444,-0.2219779597621411
1782815037745907200,2.4299072265625,-1.0267366646319627,-0.7008335624277592,-0.13834652228085323
1782815037765989400,2.4499892578125,-0.6901128464490175,-0.6764081462234258,0.11427507061334326
1782815037786071300,2.4700712890625,-0.5750543886393308,-0.5776116719067096,0.224453830090072
1782815037806153200,2.4901533203125,-0.3373474562823772,-0.3022986469939351,0.21637286976408213
1782815037826235400,2.5102353515625,-0.1745037494689226,-0.08037643600702285,0.2670799975639209
1782815037846317300,2.5303173828125,-0.26269641218483447,0.1787912175297737,0.35813882683329284
1782815037866400300,2.550400146484375,-0.44035950246751304,0.43741321988254783,0.2793080676320009
1782815037886482200,2.570482177734375,-0.3064513827592134,0.6492705484509468,0.23441486854162066
1782815037906564400,2.590564453125,0.060093526434898376,0.7707184150367975,0.2591354500339366
1782815037926646300,2.610646240234375,0.3227688958317041,0.8361798982456325,0.24644485875433308
1782815037946728200,2.630728271484375,0.4121627510309219,0.9110372785702348,0.20048057810002937
1782815037966810000,2.65081005859375,0.306379486566782,0.9852943549141288,0.08693331030458211
1782815037986892300,2.670892333984375,0.13271394148766993,1.0511027518644929,-0.16499390711728482
1782815038006974200,2.69097412109375,0.10971417417228221,1.0591112862750887,-0.3372320132091641
1782815038027056000,2.71105615234375,0.22645488598048685,1.0983964179590344,-0.40621264698747545
1782815038047138300,2.73113818359375,0.23877310028374193,1.159127365514636,-0.39734402514882383
1782815038067221500,2.751221435546875,0.02591653154492378,1.3464061331436037,-0.3198592919953167
1782815038087302700,2.771302734375,-0.05095101955831051,1.4958184037148952,-0.3077835081458092
1782815038107384600,2.791384521484375,0.15513970830738544,1.3677090334132314,-0.45970052807964384
1782815038127466800,2.811466796875,0.4149614418387413,1.2117790515109896,-0.5061132100885734
1782815038147548700,2.831548583984375,0.6056991177499293,1.1776333285421132,-0.4923652187105268
1782815038167630600,2.851630615234375,0.3137970693469047,1.106215567277372,-0.35891762918606396
1782815038187712800,2.871712646484375,-0.28085400016605855,1.1680902780406177,-0.42310266271829605
1782815038207794700,2.891794677734375,-0.8372183013826608,1.0677342993222176,-0.459688801109232
1782815038227876600,2.911876708984375,-1.3010551255494356,1.0664305232472717,-0.3383854210279882
1782815038247958800,2.931958740234375,-1.0376011729955672,0.8387234452486038,0.09684133992725982
1782815038268040700,2.952040771484375,0.19397300457060335,0.17133038012981414,-0.28088010272169484
1782815038288123600,2.97212353515625,2.7742957867532967,-0.6171756205320358,-0.8734971639227121
1782815038308205600,2.99220556640625,4.026825074064732,-1.9640129846997558,-1.0974687817201019
1782815038328287500,3.01228759765625,3.027885347896814,-1.3696087295547128,-2.1466887885779142
1782815038348369700,3.03236962890625,1.4905664745360612,-0.9936810749873518,-0.5924508560549467
1782815038368451600,3.05245166015625,-0.09195289203226566,-0.06299324819808826,-0.6312229967154562
1782815038388533500,3.072533447265625,-1.5539666413009166,-0.07807228725049645,-1.2723998166903854
1782815038408615700,3.09261572265625,-2.5239374626159665,-0.573984567450732,-1.2640744714155792
1782815038428697600,3.112697509765625,-2.8594360761612654,-0.3662695263188332,-0.9957801661584526
1782815038448779500,3.132779541015625,-3.117037211033702,-0.07947378807887434,-0.9170775816477834
1782815038468861700,3.15286181640625,-2.9853531971156597,0.21203721517994997,-0.6201556592561305
1782815038488943600,3.172943603515625,-1.877048256343603,-0.14195844743400812,0.30831352336928247
1782815038509026800,3.19302685546875,-0.9997890364736318,-0.0579875077660894,0.693786347329989
1782815038529108700,3.213108642578125,0.17855857781767845,0.2027805073391646,0.4701305540161207
1782815038549190700,3.233190673828125,0.2935357870846987,0.10162724076323211,0.35412637632153926
1782815038569272800,3.25327294921875,0.08370119651556014,0.526098488420993,0.49505372714214024
1782815038589354800,3.273354736328125,0.5572895993679762,0.8565221367895602,0.5754651613973081
1782815038609436700,3.293436767578125,2.2688135315120217,0.2297058506004512,1.1942852612007409
1782815038629518800,3.313518798828125,2.1186346604824067,-0.4560428092896938,0.9857676715143024
1782815038649600800,3.333600830078125,1.3988181651651859,-0.8147720762968063,0.7774021305844188
1782815038669682700,3.3536826171875,0.5433323856860399,-0.3393529508858919,0.6024069443367421
1782815038689764900,3.373764892578125,-0.01929506757855415,0.40888606744781136,0.008345438214763998
1782815038709846800,3.3938466796875,-0.08572247321009635,0.6264728795789182,-0.7063721995934844
1782815038729928700,3.4139287109375,-0.11244272235333919,-0.016225304744392634,-0.45476964754872023
1782815038750011600,3.43401171875,-0.44015082815289497,-1.1471179248996077,0.535802428572625
1782815038770093600,3.454093505859375,-0.4337438837200403,-1.2414476290658116,0.09541428453251719
1782815038790175700,3.47417578125,-1.104962060084939,-0.6019676761366427,-1.7119827818274498
1782815038810257700,3.494257568359375,-1.7343313917577265,-1.087782888681814,-1.3624661643236875
1782815038830339600,3.514339599609375,-1.615781584700942,-0.6869141234729439,-1.033219012388587
1782815038850421800,3.534421875,-1.2311989145129918,-0.09143858583457767,-0.7962431707851588
1782815038870503700,3.554503662109375,-0.7328285371035337,0.09281666925475,-0.7821709524214268
1782815038890585600,3.574585693359375,-0.9667968674540519,0.9661595924638211,-0.996564959860593
1782815038910667800,3.594667724609375,-0.7155202594280242,1.4142431133121252,-1.0300031190820038
1782815038930749700,3.614749755859375,-0.23024083425998687,1.2304055721782148,-0.7449547359660268
1782815038950831600,3.63483154296875,0.3198673291712999,1.3040496311902998,-0.933925986726582
1782815038970914600,3.65491455078125,0.9307236835539341,0.7547571680560707,-0.9743946291066705
1782815038990996500,3.67499658203125,1.4085580534130333,0.06086553372070193,-0.6027381490524858
1782815039011078700,3.69507861328125,1.8500351617336273,-0.4997670924648642,0.03113631201982498
1782815039031160600,3.71516064453125,1.94050161460042,-0.9202547503791749,0.1444907423906028
1782815039051242500,3.735242431640625,1.193985912927985,-0.4732978954732418,-0.2228381567880511
1782815039071324700,3.75532470703125,-1.1471218704223631,0.5112463717259467,-0.34484526469185944
1782815039091406300,3.77540625,-2.3914830488473178,1.4474486328214407,-0.37373306713253257
1782815039111488300,3.79548828125,-2.0746412049770355,1.3155802022472023,-0.7442883079465478
1782815039131570400,3.8155703125,-1.172767768332362,0.5175517554804683,-0.9556171556614339
1782815039151652400,3.83565234375,-0.14257424124479293,-0.02980637859031558,-0.9500722348853945
1782815039171734300,3.855734375,0.27628654612004755,1.0367034935034811,-1.040578435240686
1782815039191817200,3.875817138671875,-0.16089958700835705,1.500856105621159,-0.5872264724701642
1782815039211899400,3.8958994140625,0.6459820282995701,1.2809855664670466,-0.300757408901304
1782815039231981300,3.915981201171875,1.4954460632711648,0.8820289184898138,0.12789455850720405
1782815039252063200,3.936063232421875,2.1268220585912463,1.2543475887797773,0.5509677028700709
1782815039272145200,3.956145263671875,1.9175223055511712,-0.06370046488568186,0.6163344935327768
1782815039292227300,3.976227294921875,2.2199118456989524,0.1760050939425826,-0.2300600708656013
1782815039312309200,3.996309326171875,1.86183548964262,0.4086925907023251,-0.9021604368925094
1782815039332391200,4.01639111328125,1.106996780782938,0.4926987615138292,-0.5378471226753667
1782815039352473300,4.036473388671875,0.1620990259259939,0.4518148893963545,-0.7157868744749576
1782815039372555300,4.05655517578125,-1.4489374100744723,0.5400873758828267,-0.4503001374518498
1782815039392637200,4.07663720703125,-2.6211791087061167,1.1123356575928627,-0.26488559279218316
1782815039412719400,4.09671923828125,-2.8080080867409705,1.5228528333738445,0.052033188771829005
1782815039432802300,4.11680224609375,-2.4022668931901454,1.7656284472972155,0.17854827561937273
1782815039452884200,4.13688427734375,-1.4561954183787107,1.4571481890588998,0.6786831784833223
1782815039472966100,4.156966064453125,-0.43618075547814367,1.140968389293924,0.45554669633582234
1782815039493048300,4.17704833984375,0.18045359778404235,0.8174664299473166,0.4287290877653286
1782815039513130500,4.197130615234375,0.5468418551117181,0.659274056071043,0.6309121772006153
1782815039533212400,4.21721240234375,0.7017758117139339,0.6720205787889659,0.7872324005294591
1782815039553294300,4.23729443359375,0.4141980562508106,0.6000127061439677,0.7584234354786574
1782815039573376500,4.25737646484375,0.18073709090054035,0.28102022357843814,0.38105683414936065
1782815039593458400,4.27745849609375,0.1965799721986055,-0.1683472543994896,0.11013926771655679
1782815039613540400,4.297540283203125,0.37262569041252136,-0.3979682945270091,0.10495295111984014
1782815039633622500,4.31762255859375,0.2607587221205234,-0.5838367204340175,-0.03882533215247094
1782815039653704400,4.337704345703125,0.3001075666904449,-0.80499726286605,-0.12971191012747585
1782815039673786400,4.357786376953125,0.5027437701880931,-0.7888906160652637,-0.05156370809655636
1782815039693869300,4.377869384765625,0.24750468827188013,-1.0642483569025993,0.08598959971368313
1782815039713951200,4.397951171875,0.2497422380656004,-1.3390432031601667,0.48068939396403726
1782815039734033400,4.418033447265625,0.44319501815438267,-1.145147355479002,0.7179129997834562
1782815039754115300,4.438115234375,-0.005076572611927986,-1.1131203051645309,0.7212425825975834
1782815039774197200,4.458197265625,-0.5713099414139986,-1.1748989351421595,0.6995784478001296
1782815039794279400,4.478279541015625,-0.7274304774522781,-1.0596611752428113,0.5812070295175538
1782815039814361300,4.498361328125,-0.9318173240095377,-1.1574279411856085,0.5705779373450205
1782815039834443300,4.518443359375,-1.041038746228814,-1.2631453738719225,0.5881127172527835
1782815039854525400,4.538525390625,-0.587657849624753,-1.0982377202659845,0.532538458340615
1782815039874607400,4.558607421875,-0.33658465521633624,-1.2141870625007898,0.5747767407417297
1782815039894689300,4.578689208984375,-0.41388709060549733,-1.334595722232014,0.5136634428050368
1782815039914771200,4.598771240234375,-0.9708213006645441,-1.2031379182852804,0.40702889527380465
1782815039934853400,4.618853271484375,-1.6033318529725074,-0.7552295348081738,0.4242174555597827
1782815039954936300,4.638936279296875,-1.7518547734886407,-0.15047777177779934,0.4031500810790807
1782815039975018200,4.659018310546875,-1.3808359337508678,0.3404351931646466,0.34819157944507895
1782815039995100200,4.67910009765625,-0.7909726830363273,0.5905317976258695,0.24305954543128608
1782815040015182300,4.699182373046875,-0.06072714816331863,0.7964198425263166,0.19690668340232223
1782815040035264300,4.71926416015625,0.6032365270286798,0.8727475876644253,0.09165359855843708
1782815040055346200,4.73934619140625,1.0425000509530304,0.8237671375267207,-0.18587204263620077
1782815040075428900,4.759428955078125,1.3330863405823707,0.709131800499931,-0.4521515374721959
1782815040095511000,4.779510986328125,1.5165578248828648,0.5841864471871405,-0.5474568452049047
1782815040115593000,4.799593017578125,1.4668489143401384,0.737482061997801,-0.2958554622039199
1782815040135675000,4.8196748046875,1.3625111725091934,0.8980502250947058,-0.14157806981429458
1782815040155757000,4.839757080078125,1.257664896634221,0.9268862242829055,-0.2595440856337547
1782815040175839000,4.8598388671875,1.0483861863821744,0.8265701391834765,-0.482076975864917
1782815040195921000,4.8799208984375,0.8777087172031403,0.879670591860637,-0.2852501892983913
1782815040216004000,4.900004150390625,0.7244166825890541,1.0885014122147112,0.2772042454868555
1782815040236086000,4.9200859375,0.5139063847154378,1.274188745933771,0.3957628203719854
1782815040256168200,4.940168212890625,0.16208032122552393,1.109306007573381,0.011307283695042133
1782815040276250000,4.96025,-0.4563268869280815,0.7767484889812767,-0.3482439672194421
1782815040296332000,4.98033203125,-1.0229928019285202,0.6487624527983367,-0.5929792638432234
1782815040316414200,5.000414306640625,-1.3452145852714776,0.6550182252574712,-0.8465748163361102
1782815040336496000,5.02049609375,-1.4633201556921005,0.6579661883428692,-1.2678288555130361
1782815040356578000,5.040578125,-1.0527034650593996,0.7068919856838881,-1.6716121929943561
1782815040376660200,5.06066015625,-0.5017418996691704,0.6012630715312436,-1.5995565722174943
1782815040396742100,5.0807421875,-0.35934243046939374,0.29416020259335635,-1.4315303481996058
1782815040416824000,5.100823974609375,-0.47044776673912997,0.16995775833604856,-1.360658238118887
1782815040436906000,5.120906005859375,-0.6367565193146467,0.35114378031417726,-1.1378557371661067
1782815040456988200,5.14098828125,-0.41704643141925335,0.5520476070612669,-0.7319462013110518
1782815040477071000,5.161071044921875,0.26836218286156655,0.2769076554267667,-0.23969949441365895
1782815040497153000,5.181153076171875,0.8795049529701471,-0.1567887541560456,0.06515249032489955
1782815040517235000,5.20123486328125,0.6644815615862607,-0.5119570042133331,-0.16814729311428964
1782815040537317000,5.221317138671875,0.12950316274762153,-0.46505431019775567,-0.5308006016973406
1782815040557399000,5.24139892578125,-0.026940613895654678,-0.5348792493131012,-0.48124571267254646
1782815040577481000,5.26148095703125,0.3219640091896057,-0.5578379539657384,-0.406886564193666
1782815040597563100,5.281563232421875,-0.0021077859342098237,-0.8338032322421669,-0.11974880758300423
1782815040617645000,5.30164501953125,-1.3382996913164853,-0.8621353004962206,0.11794533835761248
1782815040637727000,5.32172705078125,-3.0551562166601416,-0.38561880830265577,-0.5322412289597094
1782815040659064000,5.34306396484375,-2.737004459235072,0.047877822658047076,-0.7031364325426519
1782815040679146000,5.36314599609375,-1.1180021589219569,-0.1279726287120953,-0.43352286138050256
1782815040699228200,5.383228271484375,-0.27627894733548164,-0.7211321079604327,0.1832751580107957
1782815040719310000,5.40331005859375,-0.07468553088903426,-0.5316747541833668,0.011394231326133012
1782815040739392000,5.42339208984375,0.17863982636034487,-0.3178705293308943,0.05124028482846915
1782815040759474000,5.443473876953125,0.6690928547739983,-0.7287754623204469,0.1549679319370538
1782815040779556000,5.46355615234375,0.5957376957058906,-1.0139107930675149,-0.05332359390854835
1782815040799638000,5.483637939453125,0.3757411920845508,-0.6622614013187587,-0.05543970927968621
1782815040819720000,5.503719970703125,0.9171370567500591,-0.08170403134897351,0.18108824242576957
1782815040839803000,5.523802978515625,1.3049217378497122,0.27434184179306026,0.4291599169306457
1782815040859885000,5.543885009765625,0.9196890793204306,0.09851663446202874,0.3593180266804993
1782815040879967000,5.563967041015625,0.8088900325208902,0.3197770205393433,0.2264990173831582
1782815040900049000,5.584048828125,0.40806992875933645,0.2588162097506225,0.20980024990811943
1782815040920131000,5.604131103515625,0.6223591606497765,0.6022849253922701,0.3292658566355705
1782815040940213000,5.624212890625,0.6233639537781477,0.5263546551391483,0.22914346747733652
1782815040960295000,5.644294921875,0.4590682945907116,0.11731135130301117,-0.2530525316573679
1782815040980376800,5.664376953125,1.0759002162516116,-0.04753945754915476,-0.3200809719219804
1782815041000460000,5.6844599609375,1.0840759239226578,-0.23809154776036737,-0.27705599612258375
1782815041020542000,5.7045419921875,0.6445072795718908,-0.2985115296706557,-0.3656315937414765
1782815041040623900,5.724623779296875,-0.8310217848300934,0.11186652990058064,-0.7642915237944573
1782815041060706000,5.7447060546875,-1.4984236177772283,0.5425926732346416,-0.7217353345505892
1782815041080787700,5.76478759765625,-1.2347224124640226,0.6842620745941996,-0.500995611346513
1782815041100869600,5.78486962890625,-1.2505512652367352,0.5004787478655577,-0.5672377235390246
1782815041120951600,5.80495166015625,-1.1960790858149528,0.3376037691310048,-0.77985697639063
1782815041141033700,5.82503369140625,-0.8077887932807206,0.1987894649416208,-0.8691242826007306
1782815041161115600,5.84511572265625,-0.12351473598778247,0.08729907487705349,-0.9567350537754594
1782815041181197600,5.865197509765625,0.2079652895659208,-0.10682955864667892,-1.1341703266516328
1782815041201279700,5.88527978515625,0.11539864954948424,0.008577420339733362,-1.2506161471664905
1782815041221361700,5.905361572265625,0.3245341519385576,0.36497181465849277,-0.8583243639059365
1782815041241443600,5.925443603515625,0.6418225705325603,0.6929917628861963,-0.4299066436447203
1782815041261525500,5.945525390625,0.7807049715220927,0.8400915187314152,-0.006521254994906485
1782815041281608700,5.965608642578125,0.5161725760817527,1.0731380580618977,0.11918664365559815
1782815041301690600,5.985690673828125,0.13854220924973487,1.2547324964441358,0.024260763694532214
1782815041321772500,6.0057724609375,-0.14995032297074795,1.279968498378992,-0.12541660582004113
1782815041341854500,6.0258544921875,-0.3675789284169674,1.0751762858912348,-0.1598999267128296
1782815041361936600,6.0459365234375,-0.43095279169678685,0.9035435618139803,-0.18061445090156047
1782815041382018600,6.0660185546875,-0.027216508227586745,0.6665653821229934,-0.10958393538873643
1782815041402100500,6.0861005859375,0.5744716203153133,0.3954113765858114,0.04987672312399372
1782815041422182700,6.1061826171875,0.9594605332165956,0.23637115370854733,0.32844226529300213
1782815041442264600,6.1262646484375,0.7328016490966082,0.19161577391996978,0.40271168966181575
1782815041462346500,6.146346435546875,0.2793903573542833,0.20093495253771543,0.31674981820527465
1782815041482428700,6.1664287109375,-0.18819792830049992,0.16452946794331072,0.1846158320300281
1782815041502510600,6.186510498046875,-0.43698271951079365,0.20809856055676937,0.18279658071361482
1782815041522592500,6.206592529296875,-0.4807902970552444,0.3190827546648681,0.334524215555191
1782815041542675700,6.22667578125,-0.5644780495673418,0.38843890722468494,0.4489044818423688
1782815041562757600,6.246757568359375,-0.5420382542222738,0.41065556133836506,0.4607118605466559
1782815041582839800,6.26683984375,-0.30466742195188995,0.1748879264809191,0.33318584309089927
1782815041602921700,6.286921630859375,-0.018283260187506676,-0.1598024394214153,0.012886515710502863
1782815041623003600,6.307003662109375,0.275224469846487,-0.33380408458709715,-0.20537132754996418
1782815041643085800,6.3270859375,0.5799409916371107,-0.37731472501158714,-0.19903558518979697
1782815041663167700,6.347167724609375,0.4620341586589813,-0.30930048858001824,-0.14369381985925136
1782815041683249700,6.367249755859375,0.19816051938831805,-0.2451511108830571,-0.11720873117875306
1782815041703331600,6.38733154296875,0.13207856619358063,-0.37223771400824185,-0.17911288723219185
1782815041723413800,6.407413818359375,0.10318214205503463,-0.5994346505276859,-0.3690061482084915
1782815041743495700,6.42749560546875,0.10276830055713652,-0.8096323753207921,-0.461357209245488
1782815041763577600,6.44757763671875,-0.11715104617476463,-0.9151225020572542,-0.40733123922124503
1782815041783659800,6.46765966796875,-0.3093868516892195,-0.8755312270335852,-0.3357046575114131
1782815041803742700,6.48774267578125,-0.21982816131711005,-0.9199071059852838,-0.27403757988316935
1782815041823824600,6.50782470703125,-0.18609540306329725,-1.073756482221186,-0.33379940841197964
1782815041843906600,6.527906494140625,-0.26709318583905695,-1.2131595460839568,-0.4501622998837381
1782815041863988700,6.54798876953125,-0.4510492387861013,-1.0315317899540066,-0.3303052826859057
1782815041884070700,6.568070556640625,-0.4272954382330179,-0.7748705662801861,-0.08347533360412344
1782815041904152600,6.588152587890625,-0.33840836351215836,-0.6642211570844054,0.1493593622071203
1782815041924234800,6.60823486328125,-0.24025310970842836,-0.6995793245829641,0.3673838807689026
1782815041944316700,6.628316650390625,-0.061762336429953574,-0.6708611796207725,0.47591436158195133
1782815041964398600,6.648398681640625,-0.42228667016029353,-0.4905993050165474,0.5438637891490012
1782815041984480500,6.66848046875,-0.7950590755671262,-0.1893361385501921,0.4334116195583716
1782815042004562700,6.688562744140625,-0.8742489321380853,0.007184066285192966,0.23935902867922557
1782815042024644600,6.70864453125,-0.3923082960039377,0.14564283503517508,0.3487755898781121
1782815042044726500,6.7287265625,0.08534487206935883,0.12627367930710315,0.4981271432381123
1782815042064809500,6.7488095703125,0.005990180325508117,0.154018741453439,0.4577352924212813
1782815042084892000,6.768891845703125,-0.22874328917860984,0.3078187255896628,0.4173873172787949
1782815042104973800,6.788973876953125,0.029573300486803053,0.5019356686756015,0.6259980286087841
1782815042125055700,6.8090556640625,0.42319852430820465,0.5908886482395231,0.8187779509373009
1782815042145137700,6.8291376953125,0.5376864887535572,0.5162826123274863,0.7699000843912363
1782815042165219800,6.8492197265625,0.478782464364171,0.570670328336209,0.7837789721399545
1782815042185301800,6.8693017578125,-0.007714519900083541,0.8290070840068161,0.8606710000973194
1782815042205383700,6.8893837890625,-0.38339725979566575,1.1626584622502327,0.8699206936754286
1782815042225465900,6.9094658203125,-0.3335024712920189,1.2779435684226452,0.8021237532563507
1782815042245547800,6.9295478515625,-0.017280220624804495,1.269627137106657,0.7139459227833896
1782815042265629700,6.949629638671875,0.2941261541932821,1.1279323090448974,0.5221018565328791
1782815042285712000,6.9697119140625,0.3562351121038198,1.018905971006304,0.3255312366845086
1782815042305793800,6.989793701171875,0.2614811911761761,0.9285022081121802,0.22509978157710284
1782815042325875700,7.009875732421875,0.0786748927861452,1.0574670261994004,0.0779223117200192
1782815042345957600,7.02995751953125,0.02390577624440193,1.0749657118804752,-0.04228156898699235
1782815042366040800,7.050040771484375,-0.17313363015949726,1.0730784368291497,-0.2388521020703949
1782815042386122800,7.070122802734375,-0.22740414952933788,1.0961604756005108,-0.3327235593413934
1782815042406204700,7.09020458984375,-0.032487142106890673,0.9759655316852033,-0.3391648809678852
1782815042426286600,7.11028662109375,0.16964812613129615,0.771501528238505,-0.43709812605138865
1782815042446368800,7.13036865234375,0.48184302097856996,0.364438876825571,-0.5080837429765611
1782815042466450700,7.15045068359375,0.2893207997381687,0.014425123454630375,-0.6547921614166349
1782815042486532600,7.17053271484375,-0.37130642450749873,-0.04124956362470984,-0.7223182490050792
1782815042506614800,7.19061474609375,-0.9030261138111353,0.21513547345623374,-0.4857230772823095
1782815042526696700,7.21069677734375,-1.2748159379214048,0.4265555796511471,-0.2892061603825539
1782815042546778600,7.230778564453125,-1.3030951069444416,0.5868401035010814,0.012413856697455048
1782815042566860800,7.25086083984375,-0.8873153344601392,0.5827791376724839,0.3441245126692578
1782815042586942700,7.270942626953125,-0.11328268030881881,0.39853023925870656,0.43993404359705746
1782815042607024600,7.291024658203125,0.5754074398607015,0.09956409768834709,0.44874048691969365
1782815042627106600,7.3111064453125,0.8970441167920827,-0.018233868087828158,0.3902540303552523
1782815042647188700,7.331188720703125,0.7886509620904922,-0.0694429540604353,0.19068912406172603
1782815042667270700,7.351270751953125,0.5824778166383504,-0.04576689491868019,0.03349655661145225
1782815042687353600,7.371353515625,0.3601315350204706,0.08879457413181661,-0.07358049225658178
1782815042707435500,7.391435546875,0.24642332277595996,0.1158944702424109,-0.16674597494900226
1782815042727517700,7.411517578125,0.026879239097237585,0.1720958115443587,-0.18285771805001422
1782815042747599600,7.431599609375,-0.29815351001322266,0.2586206871785223,-0.23372286768946796
1782815042767681500,7.451681640625,-0.2923912932246923,0.20771555258855223,-0.19703093083649872
1782815042787763700,7.471763671875,-0.05731763198077678,0.04121390778943896,-0.1486370484150946
1782815042807845600,7.491845703125,0.21905133172571659,-0.1788188361890614,-0.1569635992662981
1782815042827927600,7.511927490234375,0.3122603612989187,-0.3984663802422583,-0.17968369112377985
1782815042848009500,7.532009521484375,0.20466975515186786,-0.4953862470321357,-0.22030535037480292
1782815042868091600,7.552091552734375,0.1761380726724863,-0.5169311393640935,-0.17450075379423796
1782815042888173600,7.572173583984375,0.10979483819305896,-0.5290528081819414,-0.12983314362065865
1782815042908255500,7.59225537109375,-0.12885843510329723,-0.42410672519430515,-0.06310114728566259
1782815042928337700,7.612337646484375,-0.2311971120715141,-0.357683849607408,-0.10772333828178234
1782815042948419600,7.632419677734375,-0.22136954554021357,-0.4168142300985753,-0.19848372346069662
1782815042968501500,7.65250146484375,0.0019207389295101164,-0.4797781974032521,-0.3019598434936255
1782815042988584700,7.672584716796875,0.10251111092567443,-0.5249054792441428,-0.43903431827835737
1782815043008667000,7.6926669921875,-0.18408230967521666,-0.3711600017741322,-0.6288271145548671
1782815043028748800,7.712748779296875,-0.4609714978635311,-0.2440904959142208,-0.9179305452153086
1782815043048830700,7.732830810546875,-0.6492530127942562,-0.18762991915419697,-1.1560168322786688
1782815043068912600,7.75291259765625,-0.5885398931562901,-0.18064722066000102,-1.1127902694925664
1782815043088994600,7.77299462890625,0.048559155985713004,-0.19094371987730263,-1.1606786135446279
1782815043109076500,7.793076416015625,-0.7097516128987074,-0.16141805792450903,-1.1976095833178608
1782815043129158400,7.813158447265625,-1.3077759582370518,0.26997911653891205,-1.1064779445406048
1782815043149240600,7.833240478515625,-0.7013724916100501,0.42166240078210826,-0.9083907826494425
1782815043169322500,7.853322509765625,0.324848624715209,0.1174782323025167,-0.7036294767566025
1782815043189404400,7.873404296875,0.9162515060871839,-0.09900660993605852,-0.47861335487496104
1782815043209486600,7.893486572265625,1.0740496199488638,-0.1635956942245364,-0.4030644120896235
1782815043229568500,7.913568603515625,0.7497469386786222,-0.11347630318477749,-0.5787393607623875
1782815043249650400,7.933650390625,0.2885094833552837,-0.04367240685746073,-0.8629165870670229
1782815043269732400,7.953732421875,0.13595920701920985,-0.06646364598870277,-1.0404106043931096
1782815043289814500,7.973814453125,0.22334756761491298,-0.049243192727118724,-1.1342694031119347
1782815043309897500,7.9938974609375,0.29978315704166886,-0.09215177560523152,-1.1530255415081978
1782815043329979400,8.0139794921875,0.20263561897575855,-0.1545731604658067,-1.2901948549695312
1782815043350061300,8.034061279296875,-0.10728256311118602,-0.13658362252786754,-1.233360184200108
1782815043370143500,8.0541435546875,-0.38663726463019843,0.0679490622408688,-1.2193093008853495
1782815043390225400,8.074225341796875,-0.509566309684515,0.05527911189049482,-1.3232904843635855
1782815043410307300,8.094307373046876,-0.4768324993401766,0.018733488173037768,-1.4807358392648398
1782815043430389500,8.114389404296874,-0.43708325727581976,-0.010301467653363943,-1.5318061012886464
1782815043450471400,8.134471435546875,-0.48645782129764553,0.06387246045172214,-1.4667137436531483
1782815043470553300,8.15455322265625,-0.44262803192138667,0.08959960690438747,-1.3446470145165919
1782815043490635500,8.174635498046875,-0.2670090146869421,0.01716433916017413,-1.3004951535791158
1782815043510717400,8.194717529296875,-0.07380640996694564,-0.007576864995062351,-1.2593242081485687
1782815043530799400,8.21479931640625,-0.014539397484064102,0.09014818069785833,-1.1936834228500723
1782815043550881300,8.23488134765625,-0.1923158850133419,0.3289851399980485,-1.0357346484713257
1782815043570963500,8.25496337890625,-0.24557108986079693,0.4249538435429334,-0.9106934335686266
1782815043591045400,8.27504541015625,-0.06518237400650978,0.357377121745795,-0.945400297551602
1782815043611127300,8.295127197265625,0.12151041042804717,0.24476386513113974,-1.1061105725329368
1782815043631210200,8.315210205078126,0.3676455639123916,0.19532997213751077,-1.2240681858502327
1782815043651292400,8.33529248046875,0.6399363183945417,0.18604396513700483,-1.1771689259007572
1782815043671374300,8.355374267578124,0.3568511981755495,0.42636604842841624,-0.9812584504615515
1782815043691456300,8.375456298828125,-0.26977263418138026,0.7990287098504603,-0.8422586336374283
1782815043711538400,8.395538330078125,-0.7396499075561761,0.9565683189064264,-0.8584672795079648
1782815043731620400,8.415620361328125,-0.6691320177406073,1.0927088738419115,-0.7325196172848344
1782815043751702300,8.435702392578126,-0.21310031436681745,1.1954371346496044,-0.4518859088059515
1782815043771784200,8.4557841796875,-0.0652297202795744,1.42576900819391,-0.20532036454770713
1782815043791866400,8.475866455078124,-0.12761515704393386,1.6299049487300217,0.05538354037934914
1782815043811948300,8.4959482421875,-0.1584562855094671,1.8525506516858934,0.21172844149172304
1782815043832030200,8.5160302734375,0.07995558024644851,1.870658847567439,0.3524366696689278
1782815043852112400,8.5361123046875,0.16316987002789973,1.8240064019858837,0.27382742599751797
1782815043872194300,8.5561943359375,0.2138607773452997,1.8660156979367135,0.13452544788904489
1782815043892276200,8.576276123046876,0.04819909050166606,1.877187518683821,0.0704340839896351
1782815043912358400,8.5963583984375,-0.4836182139575481,1.9351986858867107,-0.1674706359617412
1782815043932440300,8.6164404296875,-0.7877969756096601,1.9242514676757156,-0.4137951014731079
1782815043952522200,8.636522216796875,-0.6792424928665161,1.8362480439215898,-0.6644665101476013
1782815043972605400,8.65660546875,-0.38469431386888026,1.6778763679556548,-0.9143421653345226
1782815043992687400,8.676687255859376,-0.17601824568510055,1.5410948847681283,-1.107812261884287
1782815044012769500,8.69676953125,-0.08876023347079753,1.4111844563938676,-1.3066453467719257
1782815044032851500,8.7168515625,-0.2697568520903587,1.3708743655763567,-1.4704048532560468
1782815044052933400,8.736933349609375,-0.5275777671933174,1.4078088424809276,-1.569104296939075
1782815044073015600,8.757015625,-0.5247095182806253,1.4159272670067846,-1.5518746374577284
1782815044093097700,8.77709765625,-0.3022264585405588,1.4047880333550273,-1.4033996477365493
1782815044113179600,8.7971796875,-0.1440396376222372,1.328558487894386,-1.2227964123487471
1782815044133261600,8.817261474609374,-0.22895313253700733,1.305808895947784,-1.109005563322082
1782815044153343700,8.83734375,-0.17804887472987174,1.318495797432959,-0.8834824782989918
1782815044173425700,8.85742578125,-0.00525543631017208,1.3034091413296758,-0.5637585761863738
1782815044193507600,8.877507568359375,0.10758476092815399,1.1902059559978544,-0.4358743929427117
1782815044213589800,8.89758984375,-0.20888415797650814,1.2608430882789194,-0.45525889237038786
1782815044233671700,8.917671630859376,-0.5451321285843849,1.3965189483121037,-0.31278259507473555
1782815044253753600,8.937753662109374,-0.7156570375502109,1.5045949998885393,-0.30469153347983957
1782815044273835800,8.957835693359375,-0.5971773731201887,1.4275646594390272,-0.3373068685436621
1782815044293917700,8.977917724609375,-0.6354156260997057,1.4945143353790045,-0.2078091491561383
1782815044313999600,8.99799951171875,-0.555191750305891,1.6322179018475114,0.08730481049809605
1782815044334082600,9.01808251953125,-0.4697691368252039,1.6076203439466654,0.3397310269506648
1782815044354164500,9.03816455078125,-0.551728458109498,1.5161169492475688,0.3525433083811775
1782815044374246700,9.05824658203125,-0.6174012459814548,1.4154964743740857,0.44555871507842093
1782815044394328600,9.07832861328125,-0.7431412568032741,1.494528071643412,0.7549525444976986
1782815044414410500,9.098410400390625,-0.6990963633716106,1.5385823174253106,1.065021094840765
1782815044434492700,9.11849267578125,-0.5562129100471734,1.354194010540843,1.170789161735773
1782815044454574600,9.13857470703125,-0.29974516311883925,1.110105852714181,1.1351415097713469
1782815044474656500,9.158656494140626,-0.3913625395864248,1.0045148228865117,1.0983875040002167
1782815044494738700,9.17873876953125,-0.3572761455893516,0.8988933979205787,1.1061148833818732
1782815044514820600,9.198820556640625,-0.15005904404222964,0.7907321522787213,1.0815231706999242
1782815044534902500,9.218902587890625,-0.03996376159787178,0.6854505537264048,1.1291457034226506
1782815044554984400,9.238984375,0.046315176451206204,0.6402458227351308,1.1969815876126289
1782815044575067000,9.25906689453125,0.18320260423123835,0.5694377178013325,1.1475602618396281
1782815044595148800,9.279148681640624,0.2129156054496765,0.5206671110220253,1.1140222955055534
1782815044615230700,9.299230712890624,-0.38841888734996316,0.7259972297787666,1.1337565582189708
1782815044635313000,9.31931298828125,-0.7556640537679195,0.9283737594269216,1.1345032118678093
1782815044656021500,9.340021484375,-0.6874380742818117,0.8274429034300148,1.0656823352284728
1782815044676103700,9.360103759765625,-0.460000022482872,0.7792248159669339,1.01912297475785
1782815044696185600,9.380185546875,-0.2557259886503219,0.7439886674128472,0.9186844323225318
1782815044716267500,9.400267578125,0.15314415057599542,0.6281143631756305,0.8400136311896145
1782815044736349700,9.420349609375,0.4452303233742714,0.5849509287536144,0.7420936474464833
1782815044756431600,9.440431640625,0.6355939052760601,0.48638490219190716,0.6402285062741487
1782815044776513500,9.460513427734375,0.6381862598568201,0.3201562291152775,0.4622386317225173
1782815044796595500,9.480595458984375,0.42608489339947697,0.315699834228307,0.2935853618474677
1782815044816677600,9.500677734375,0.19918869339227674,0.4046371778316796,0.2799645405130461
1782815044836760800,9.5207607421875,0.14090017055273055,0.47944838092699643,0.2508460711216554
1782815044856842800,9.5408427734375,0.08278466619253158,0.4132170823894441,0.21912414123360066
1782815044876924700,9.560924560546875,-0.04018763348162174,0.3846744401246309,0.14007467951402067
1782815044897006800,9.5810068359375,0.07198620880246162,0.2814174792677164,0.1142891539376229
1782815044917088800,9.6010888671875,0.25957740338146684,0.1907820995748043,0.15428521036989987
1782815044937170700,9.621170654296876,0.09979016152918338,0.23062997970804572,0.19852628396078942
1782815044956625700,9.640625732421874,-0.20067805516719817,0.33906244350671766,0.2146261722272262
1782815044976707600,9.66070751953125,-0.4125754234850406,0.3677783965118229,0.2020581844139844
1782815044996789800,9.680789794921875,-0.22262626760303972,0.2524040046207607,0.188012196470052
1782815045016871700,9.70087158203125,0.08702712606787681,0.13891133482307194,0.15940145740509032
1782815045036953600,9.72095361328125,0.3160042240023613,-0.008010141845792532,0.07099274078570306
1782815045057036500,9.74103662109375,0.34506723687946794,-0.10003346876576542,-0.044735871370509266
1782815045077118700,9.76111865234375,0.27392157055437566,-0.11937354452982545,-0.11838917313497513
1782815045097201000,9.781200927734375,0.02954115178287029,-0.04076148784682154,-0.10014723133854568
1782815045117282800,9.80128271484375,-0.275291689863801,0.06702171826288103,-0.08484707861505449
1782815045137365000,9.821364990234375,-0.18799042302966118,0.08190525300949811,-0.04995817259605974
1782815045157447000,9.841447021484376,0.05650339298844337,-0.007903758861869573,-0.05220039856489747
1782815045177528800,9.86152880859375,0.040944589328765865,-0.11269947359338402,-0.10592128469534218
1782815045197610800,9.88161083984375,-0.28808921211659905,-0.0026402853757143017,-0.11285809822119772
1782815045217693000,9.90169287109375,-0.2683902399122715,0.04256649144217372,-0.057604924489557736
1782815045237774800,9.92177490234375,0.012862988704442977,-0.013523790700733661,-0.05532306063007563
1782815045257856800,9.941856689453125,0.3570493510961532,-0.1972488113708794,-0.1396224787671119
1782815045277939000,9.96193896484375,0.16855507019758223,-0.1884248689241707,-0.12141728878449648
1782815045298020900,9.982020751953126,-0.08556289873421191,0.008001227886974811,-0.07625581241305918
1782815045318102800,10.002102783203124,-0.0649064796745777,0.05461772537231445,-0.021396898696012794
1782815045338185000,10.02218505859375,-0.04485796338021755,0.05291881249994039,0.014026369928009806
1782815045358267000,10.042266845703125,0.024617723906040192,0.12028715224340557,0.0582756998905912
1782815045378350000,10.06235009765625,0.07506079394221306,0.10712620350569486,0.052512496721372
1782815045398432000,10.082431884765626,0.02298690783381462,0.19569252183958888,0.10588438675105571
1782815045418514000,10.102513916015624,0.12932488357126712,0.2194422307394445,0.22662987722121178
1782815045438596000,10.12259619140625,0.1356599318116903,0.24699089353084563,0.2609839822437614
1782815045458678000,10.142677978515625,0.10422785171568393,0.16534122271761298,0.1348726904241368
1782815045478760000,10.162760009765625,0.13321312318146228,0.06118102941066026,0.01903696463163942
1782815045498842000,10.182842041015626,-0.025604396855831144,0.07460048295408486,0.03494881951268762
1782815045518924000,10.202924072265626,-0.2557622290074825,0.2726515506185591,0.08157408482637256
1782815045539006000,10.223005859375,-0.2691653159379959,0.2011231685861945,0.04843702744338661
1782815045559087900,10.243087890625,-0.19531448230743406,0.16887641110643745,-0.03446246076785028
1782815045579170000,10.263170166015625,0.12997662547826766,0.07541676777303219,-0.08724226665589958
1782815045599252000,10.283251953125,0.5651081641644239,-0.16362579710185526,0.08378313917797059
1782815045619334000,10.303333984375,0.677243428003788,-0.2331067450851202,0.008926087646931409
1782815045639416000,10.323416015625,0.5908750581055879,-0.30963395831808443,-0.21042276572063565
1782815045659498000,10.343498046875,0.2883230208724737,-0.3262641906015575,-0.3625050592187792
