time,seconds_elapsed,z,y,x
1782815222984993300,0.0789931640625,0.48925475853979583,-0.008848784627020358,-0.31881087892092763
1782815223005075200,0.0990751953125,0.3131745535343885,0.027358254785835742,-0.630426147249341
1782815223025157000,0.1191572265625,0.3300198898732662,-0.057098436272144316,-0.38837534046918154
1782815223045239300,0.1392392578125,0.2763251245647669,-0.4266447192393243,0.5649984567122533
1782815223065321200,0.1593212890625,-0.337996860101819,-0.46256987297087904,0.20338630947889758
1782815223085403100,0.179403076171875,-0.9514245262771844,0.3199978236831724,-0.5456796063993126
1782815223105485300,0.1994853515625,-0.6881020911484956,0.6793272485405206,-0.5922448120888322
1782815223125567200,0.219567138671875,0.3168400903046131,0.40113486879914995,-0.026606450037844478
1782815223145649200,0.239649169921875,0.6556283930450677,-0.14990911417752503,0.35401743605434893
1782815223165731000,0.25973095703125,0.7115472641438245,-0.10612170263826846,-0.023680808382108808
1782815223185813200,0.279813232421875,0.6452683270722627,-0.359850964513421,0.07129722189130261
1782815223205895200,0.299895263671875,0.7902554746776819,-0.5142302098423243,-0.14358212137939408
1782815223225977000,0.31997705078125,0.48522974080741405,-0.44238077916204926,-0.22047241403739898
1782815223246059300,0.340059326171875,0.15412264021933078,-0.21159254015237092,-0.04567163611697033
1782815223266141400,0.360141357421875,0.03229191179573536,-0.06577507920265198,0.07750369358230381
1782815223286223400,0.380223388671875,-0.0006768763482570648,-0.015231179140508174,0.09503206201558932
1782815223306305500,0.400305419921875,0.15506138237416744,0.06513268964588642,0.09519576467731967
1782815223326387500,0.420387451171875,0.21716975576281547,0.23753566744327545,0.2184289985762909
1782815223346469400,0.440469482421875,-0.02692074015140533,0.49126726740598675,0.2155612245876342
1782815223366552300,0.46055224609375,-0.040888475227355954,0.7485118439257145,0.4263322192240506
1782815223386633500,0.480633544921875,0.13867197310924528,0.9214163415044545,0.44701106931120155
1782815223406716400,0.50071630859375,0.2104015768021345,0.9232236831873655,0.261611831818521
1782815223426798300,0.52079833984375,0.49470542516112326,0.6060337565317749,0.3789570123258978
1782815223446880300,0.54088037109375,1.017246951752901,0.4841670800119638,0.5084915565924719
1782815223466962400,0.56096240234375,1.3581266738146542,0.2128361104726791,0.6836161048408598
1782815223487044400,0.58104443359375,1.4843027379661797,-0.1376154497936368,0.4443740718711167
1782815223507126300,0.601126220703125,1.0229793579250575,-0.4517749227121472,0.15980112424716353
1782815223527208400,0.62120849609375,0.6293260770529508,-0.5927133794486522,0.39633411745391783
1782815223547290400,0.641290283203125,0.5246650946170092,-0.5285197242185473,0.7067083727452903
1782815223567372300,0.661372314453125,-0.01957446904182434,-0.5563343444697558,0.5881061779141425
1782815223587454200,0.6814541015625,-0.5948614973932504,-0.6957439842037856,0.43721506696194407
1782815223607536400,0.701536376953125,-0.5978858136504889,-0.8091476605437695,0.4621138728316873
1782815223627618300,0.721618408203125,-0.4248766866534948,-0.9042233607716857,0.48143297887295483
1782815223647700200,0.7417001953125,-0.9909826296836137,-0.843905085670203,0.5012185333821922
1782815223667782400,0.761782470703125,-1.8110078042030333,-0.6031906420603395,0.3511320168111473
1782815223687864300,0.7818642578125,-2.0630495513826608,-0.35997882867679,0.3495391946617514
1782815223707946200,0.8019462890625,-1.7552993609845637,-0.34366759921461343,0.38359782386906444
1782815223728028400,0.8220283203125,-0.9773977564454078,-0.3353551134213805,0.44826698765642936
1782815223748110300,0.8421103515625,-0.21070845079421996,-0.2451253919199109,0.48042263278663155
1782815223768192300,0.862192138671875,0.5036942027807235,-0.42853608594387765,0.48983796525523066
1782815223788274200,0.882274169921875,0.9680752168267964,-0.6928546925030649,0.13559599973000586
1782815223808356400,0.9023564453125,1.0240098700165747,-1.079882856146991,-0.20520641931183636
1782815223828438300,0.922438232421875,0.8859031295746564,-1.1026027836076915,-0.3090848000027239
1782815223848520200,0.942520263671875,0.5918102931290865,-1.1335904809370636,-0.25677177137620744
1782815223868602400,0.962602294921875,0.09175649267733096,-0.8030008283518254,-0.5511459089811891
1782815223888684500,0.9826845703125,-0.14875906735956668,-0.7055151443727314,-0.7716995350286364
1782815223908766500,1.002766357421875,-0.22332827839255331,-1.081164712651074,-0.9019488399684429
1782815223928848400,1.022848388671875,-0.7291074707537889,-1.6968750829361379,-0.9165572841007262
1782815223948930600,1.0429306640625,-0.4756751459985971,-0.9674829500220715,-0.9236645588226616
1782815223969012500,1.063012451171875,0.168430567035079,-0.3777043088510632,-0.699453798507154
1782815223989094400,1.083094482421875,1.025413891595602,-0.47840486322343345,0.39816644744761287
1782815224009176600,1.103176513671875,1.3989403302401304,-0.15266542714834214,0.8844922398634254
1782815224029258500,1.123258544921875,1.7233365350127219,-0.1976025932446122,0.7737789716511965
1782815224049340400,1.14334033203125,1.466689339864254,-0.18146365160942077,0.6781552821516991
1782815224069422600,1.163422607421875,1.297398941129446,-0.23111878613829612,0.6112327864795923
1782815224089504500,1.18350439453125,1.3931547325760125,-0.41163989620059727,0.8255253063056618
1782815224109586400,1.20358642578125,1.4516004918038845,-0.3811404207795858,1.1248453028149903
1782815224129668400,1.22366845703125,0.5694149214476346,-0.6817369400307536,1.2646928955748677
1782815224149750500,1.24375048828125,-0.551534396842122,-0.6282748144343495,0.7839321899402886
1782815224169832400,1.26383251953125,-0.9551929388999938,-0.11406856998950242,0.27144407452493907
1782815224189914400,1.283914306640625,-1.1773416521191595,0.3916555311836302,-0.014783250426629091
1782815224209996500,1.30399658203125,-1.4731313556104897,0.6398479094587266,-0.0796911754229106
1782815224230078500,1.324078369140625,-1.82554252551198,0.7122421145401895,0.20215574477063492
1782815224250160400,1.344160400390625,-1.5503613102853298,0.9180757989048958,0.38655239935833957
1782815224270241800,1.36424169921875,-0.5611398450553416,0.8659216871671378,0.555664482384175
1782815224290323700,1.38432373046875,0.3072527622699737,0.36182562558725473,0.46468098337333646
1782815224310405600,1.404405517578125,0.5213105234920978,-0.09285437091663479,0.22150712737999856
1782815224330487800,1.42448779296875,0.5102069456756114,-0.39084845258444545,0.15656740302294492
1782815224350569700,1.44456982421875,0.04506137699782848,-0.5053450387276709,0.01621434495896101
1782815224370651600,1.464651611328125,-0.6697054337143897,-0.324728359336406,-0.2350848767576739
1782815224390733800,1.48473388671875,-1.120931782633066,-0.1715191807001829,-0.47090906410794703
1782815224410815700,1.504815673828125,-1.2121709734380244,0.14294643555805087,-0.606266323178634
1782815224430897700,1.524897705078125,-1.1375339578658341,0.5645492151074111,-0.5217959689214825
1782815224450979600,1.5449794921875,-1.0000953259438277,1.0708194058559835,-0.22958657160233706
1782815224471061800,1.565061767578125,-0.6661065324395895,1.5736872408151625,0.10998908212352543
1782815224491143700,1.585143798828125,-0.18596914633512496,1.6675161558523772,0.1917975602276623
1782815224511225600,1.6052255859375,0.4463017519980669,1.6789361061416566,0.019406565129011868
1782815224531307800,1.625307861328125,0.9481254847317934,1.3972209591016171,-0.20242979420535265
1782815224551389700,1.6453896484375,0.9977367801189422,1.0491636004954576,-0.5077623290024698
1782815224571472000,1.665471923828125,0.36697687087059017,0.8132838835656643,-0.86915803873986
1782815224591554000,1.685553955078125,-0.07146656884253025,0.6838866654105484,-1.0507469972293824
1782815224611636000,1.705635986328125,-0.32221593812406063,0.5902535652063786,-0.9382732221506536
1782815224631718000,1.7257177734375,-0.19332067814171314,0.5426229222424328,-0.4953497874792665
1782815224651799800,1.7457998046875,0.08188917865753173,0.6036908466674387,-0.036119799520820374
1782815224671882000,1.765882080078125,0.21435586738586423,0.5703793825656175,0.21704693310074508
1782815224691965000,1.78596484375,0.1899275285720825,0.41000601138845083,-0.053351212567836044
1782815224712046800,1.806046875,0.19145020809471605,0.49138387952297924,-0.2099107976105064
1782815224732128800,1.826128662109375,0.5329460162281989,0.38245252629145976,0.3201786601427942
1782815224752211000,1.8462109375,0.6197814191162586,0.2506405020795762,0.4267831778619438
1782815224772292900,1.86629296875,0.2620937701165676,0.09529796467646956,0.38288214988037944
1782815224792374800,1.886374755859375,0.08706161285936832,0.06754208887517452,0.3280992240089923
1782815224812457000,1.90645703125,0.053579614496231075,-0.20597849966287612,0.33471769230067727
1782815224832539000,1.926538818359375,-0.04986030171215534,-0.40281317727491256,0.25676607228778303
1782815224852620800,1.946620849609375,-0.0385772756755352,-0.5627104553729295,0.22033779133968054
1782815224872702700,1.96670263671875,-0.09015081104636191,-0.7376707164376973,0.049304457927681504
1782815224892785000,1.986784912109375,-0.165994864320755,-0.8906186137892306,-0.04228595746774226
1782815224912866800,2.00686669921875,-0.24658932699263095,-1.003035471048951,-0.07057630547191947
1782815224932948700,2.02694873046875,-0.3034475247681141,-1.0702135489173232,0.007074468430876731
1782815224953031000,2.047031005859375,-0.40066403641700743,-1.0705657233558594,0.06617587855588644
1782815224973112800,2.06711279296875,-0.21339842053055763,-1.0854989424630999,0.18843571911174803
1782815224993194800,2.08719482421875,-0.11832184351980686,-1.1892702825829387,0.18571524463929234
1782815225013277000,2.10727685546875,-0.31013328614234925,-1.1484395288921891,-0.10004998150914907
1782815225033358800,2.12735888671875,-0.34501930608451364,-1.0139452798590063,-0.3924327261012047
1782815225053440800,2.147440673828125,-0.3956979384422302,-0.961145709824562,-0.7200187398910523
1782815225073522700,2.167522705078125,-0.24100246677100656,-1.0024348748072982,-1.2040515259988605
1782815225093604900,2.18760498046875,-0.10970306825637817,-1.0559227193668483,-1.3515040408045054
1782815225113686800,2.207686767578125,-0.2926449757248163,-0.8927453966848552,-1.236950317646563
1782815225133768700,2.227768798828125,-0.6373001246720552,-0.5196424441494047,-1.181551890225336
1782815225153851000,2.247850830078125,-0.4869838909983635,-0.4122000143013894,-0.921344737572968
1782815225173932800,2.267932861328125,0.061360185369849204,-0.579461099165678,-0.6636506637200713
1782815225194014700,2.2880146484375,0.5302724131047726,-0.7957336138278246,-0.4515412966193631
1782815225214097000,2.308096923828125,0.2036041717469692,-0.8174011096261441,-0.43043727992270137
1782815225234178800,2.3281787109375,-0.12588029607534407,-0.5884630285277962,-0.3487285723986104
1782815225254260700,2.3482607421875,-0.35939153030812737,-0.3706831780426204,-0.2525122142355889
1782815225274342700,2.3683427734375,-0.7556599621146917,0.09490238948762417,-0.0661208604330197
1782815225294424800,2.3884248046875,-1.2452543278723955,0.669152037615329,0.029752346848137674
1782815225314506800,2.4085068359375,-1.3336895671725273,1.2048792089946567,-0.0994584636230953
1782815225334588700,2.428588623046875,-0.5943108777731657,1.4197596847765146,-0.09667343601444736
1782815225354670800,2.4486708984375,0.07766542348265647,1.2944563118062913,0.006035097179468721
1782815225374752800,2.468752685546875,0.2554799049347639,1.4921293399386106,-0.12088533733226359
1782815225394834700,2.488834716796875,0.24580899026989936,1.5228111861892044,-0.3348142114777118
1782815225414916900,2.508916748046875,0.26820085482001305,1.4825465419486163,-0.39226960796136406
1782815225434998800,2.528998779296875,0.3122854957401752,1.4182063178546727,-0.5451063730886205
1782815225455080700,2.549080810546875,0.9220289204448461,1.1644038446128369,-0.7666396212905645
1782815225475162600,2.56916259765625,1.2566641951590776,0.9963149306222796,-0.7808451106451452
1782815225495245600,2.58924560546875,1.2129530637264252,0.8877999031066894,-0.715871630148962
1782815225515326700,2.60932666015625,1.0069769021511077,0.7756316137805581,-0.6570200665991753
1782815225535409700,2.62940966796875,0.5339350272655486,0.841818780915439,-0.6251282600369304
1782815225555491600,2.64949169921875,0.2222521735936403,0.9754124278470874,-0.4899525315456092
1782815225575573800,2.66957373046875,0.16377426566183567,0.9638980772726237,-0.35415461603533477
1782815225595655700,2.68965576171875,0.4312029670655727,0.8746265332788229,-0.1710434346809052
1782815225615737600,2.709737548828125,0.5644032307654618,0.7695401650376618,0.016202015200350434
1782815225635819800,2.72981982421875,0.5650538036286831,0.7619106930725276,0.0669080652879551
1782815225655901700,2.749901611328125,0.4866232409924268,0.6726847417861223,0.1882923285856843
1782815225675983600,2.769983642578125,0.28310616300702096,0.6820484901979565,0.20669446591250598
1782815225696065800,2.790065673828125,0.19734978752732277,0.4940788176953792,0.0859010446473956
1782815225716147700,2.810147705078125,-0.3317138343095779,0.27336583636775613,0.09704727429552003
1782815225736229600,2.830229736328125,-1.121983922034502,0.46146892599165434,0.13420211595250292
1782815225756311600,2.8503115234375,-2.1413561953783034,0.9529001517876982,0.1916007407476194
1782815225776393700,2.870393798828125,-2.6399434304088354,1.0725282556004823,0.05789587939330376
1782815225796476000,2.890475830078125,-2.304481641742587,0.7612308941148221,-0.2558566292926669
1782815225816557800,2.910557861328125,-1.3971025934189558,0.1917712567426264,-0.4914013421144336
1782815225836640000,2.930639892578125,-0.5059627322345972,-0.2086247763879597,-0.5675617678616196
1782815225856722000,2.950721923828125,0.41577217369973657,-0.3907900003954768,-0.2109042108283378
1782815225876803800,2.970803955078125,0.9940133756816386,-0.39626419402286406,0.15235712838415055
1782815225896885800,2.9908857421875,1.2286316943734883,-0.48431043400540946,0.3511928070876747
1782815225916968000,3.010968017578125,1.2482184383749961,-0.7166602232433855,0.31664051261190324
1782815225937049900,3.0310498046875,1.2826011849701404,-1.042210858748108,0.2344656488807872
1782815225957131800,3.0511318359375,0.9425988302648067,-1.1550929954320193,0.16139069499354808
1782815225977214000,3.0712138671875,0.22972587047517298,-1.0467062704712151,0.19907823702143504
1782815225997295900,3.0912958984375,-0.40359950534701344,-0.687116587242484,0.25838837625999
1782815226017377800,3.111377685546875,-0.6607879677653312,-0.5831302891977131,0.31265235629118976
1782815226037460000,3.1314599609375,-0.5250070399224758,-0.5241344948716461,0.25249913555830716
1782815226057542000,3.1515419921875,-0.43643794510960576,-0.5315387797787785,0.4125586550133303
1782815226077623800,3.171623779296875,-0.4401607650250196,-0.5290278198711573,0.38806028317064045
1782815226097705700,3.191705810546875,-0.3842997615933418,-0.4617101874016225,0.30855230056121946
1782815226117788000,3.211787841796875,-0.31476679116189477,-0.4062403752446174,0.30623682669308033
1782815226137869800,3.231869873046875,-0.24281565367281435,-0.3673123864352703,0.30370771007426084
1782815226157952800,3.251952880859375,-0.12380056719183921,-0.4923312433756888,0.37334421394541856
1782815226178034700,3.27203466796875,0.3361725672841072,-0.8946898087508975,0.44974210171028967
1782815226198116900,3.292116943359375,0.8610258779495954,-1.287981562834233,0.4289460549842566
1782815226218198800,3.31219873046875,1.1004998199790716,-1.5330689608313142,0.6741778298880905
1782815226238280700,3.33228076171875,1.0003098454773425,-1.4902290592752396,0.90702716614604
1782815226258363000,3.35236279296875,0.510496868532896,-1.1589075852841138,1.1599302793953568
1782815226278444800,3.37244482421875,0.024380408018827435,-0.6418639254562556,1.3061115321561694
1782815226298526700,3.392526611328125,-0.2039320885270834,-0.21619579616412518,1.5286656113058328
1782815226318608600,3.412608642578125,-0.19051848020255566,-0.058057344432175154,1.7112635276421904
1782815226338690800,3.43269091796875,0.12252104877531528,-0.08817863419055938,1.6788307460710405
1782815226358772700,3.452772705078125,0.3029991964787245,-0.27122385590299963,1.3056976906582711
1782815226378854700,3.472854736328125,-0.4366355135083198,-0.4415774999551475,0.6130411510758101
1782815226398936800,3.492936767578125,-1.3888883073031901,-0.2340959022529423,0.21538754852116107
1782815226419018800,3.513018798828125,-2.1603297759175297,0.300700564147532,0.2434174189582467
1782815226439100700,3.5331005859375,-2.084705502873659,0.799608117173612,0.21734343182928859
1782815226459182800,3.553182861328125,-0.9515963757127522,0.6556830458417534,0.045845257384516294
1782815226479264800,3.5732646484375,0.6031020869940519,-0.031080782440304756,-0.13197682285215706
1782815226499346700,3.5933466796875,1.4477104986280203,-0.6011486148387193,-0.4008179118044674
1782815226519428600,3.6134287109375,1.4622913971662521,-0.8494147890023886,-0.8590212601289152
1782815226539510800,3.6335107421875,1.0368430481046438,-0.6405966819994151,-0.939841640511155
1782815226559592700,3.6535927734375,0.36462650835216043,-0.178477329275012,-0.8797945835664868
1782815226579674600,3.673674560546875,-0.20108488240242003,0.20642755860462783,-0.6816545224443078
1782815226599756800,3.6937568359375,-0.5128273573070764,0.6959891911365091,-0.5435330228246749
1782815226619838700,3.713838623046875,-0.30142683259546754,1.196225362417847,-0.16748512114482
1782815226639920600,3.733920654296875,-0.047369069418311115,1.5018326955683527,-0.024333755865506828
1782815226660002800,3.7540029296875,0.31264322313666343,1.7257342438042163,-0.05259341647047549
1782815226680085800,3.774085693359375,0.6387322033017874,1.6385001969873905,-0.00818348911870271
1782815226700167700,3.794167724609375,1.0171621960788964,1.3973159439086913,-0.11598678816836326
1782815226720249600,3.81424951171875,1.2091285370022058,1.040043013189733,-0.18967318848483264
1782815226740331800,3.834331787109375,1.1023358032345771,0.7246971069656312,-0.1008549777491018
1782815226760414000,3.8544140625,0.856297095862031,0.6493959283962846,0.06297984072724357
1782815226780496000,3.874495849609375,0.4353711926609277,0.5722206265181302,0.12302869690335355
1782815226800577800,3.894577880859375,-0.2841834368497133,0.5779518636465072,0.01936999597828835
1782815226820660000,3.914659912109375,-0.8205687798768282,0.6146877492390572,0.03756249772597803
1782815226840742000,3.934741943359375,-1.0761246726572513,0.6543868685513734,0.08302263966687023
1782815226860823800,3.95482373046875,-1.109141391596198,0.7214300679937005,0.18125972653515635
1782815226880906000,3.974906005859375,-0.9436334340095519,0.9116172704152762,0.351290641438961
1782815226900988000,3.99498779296875,-0.6502326714813709,0.9669399291865527,0.4751085250917822
1782815226921069800,4.01506982421875,-0.5691483794659375,0.8940935964234172,0.4135473007244989
1782815226941151700,4.03515185546875,-0.7327461195170879,0.8489445411421358,0.18453982591805979
1782815226961234000,4.05523388671875,-0.7880617640256882,0.9127852912813424,-0.05257298560380004
1782815226981315800,4.07531591796875,-0.5771762030988932,0.8572605340667069,-0.2550076660468243
1782815227001397800,4.095397705078125,-0.40844811442196366,0.8280801784202456,-0.3450959880499169
1782815227021480000,4.11547998046875,-0.3445166172593832,0.9161166276611388,-0.3385571973983198
1782815227041561900,4.135561767578125,-0.1492412979185581,0.927531755644828,-0.28443087227214126
1782815227061643800,4.155643798828125,0.2302303128659725,0.8327373565763234,-0.32441892806105316
1782815227081726000,4.175725830078125,0.5110492417186498,0.6208022865965962,-0.41555184547994284
1782815227101807900,4.195807861328125,0.6547206305503844,0.4158116289272904,-0.5123640506442636
1782815227121889800,4.215889892578125,0.743842683070898,0.09528758941292763,-0.5590399136340245
1782815227141972700,4.23597265625,0.5738385831087828,-0.1199396539799869,-0.5968355374125763
1782815227162054700,4.2560546875,0.2980886280834675,-0.20372546003907918,-0.4431851543474942
1782815227182136800,4.27613671875,0.125134446144104,-0.21704232999086379,-0.03769923703225795
1782815227202218800,4.29621875,-0.04443652309775352,-0.1548999082021415,0.10242586206132545
1782815227222300700,4.31630078125,-0.26704057886898513,-0.20487346103042364,0.18452647324614227
1782815227242382800,4.3363828125,-0.6367290467858314,-0.17537980165109038,0.1977316264517605
1782815227262464800,4.35646484375,-1.0560954455852507,-0.0968921020001173,0.23914125774269923
1782815227282546400,4.37654638671875,-1.0152736058533192,0.03390833401642739,0.35557712311912326
1782815227302628600,4.396628662109375,-0.7595102078020572,0.05560103732123971,0.49226161220557985
1782815227322710500,4.41671044921875,-0.5609884538859129,0.003210413413867354,0.4661887210551649
1782815227342792400,4.43679248046875,-0.6181780755728483,0.044838747223094104,0.32532745774071664
1782815227362874600,4.45687451171875,-0.7648767032712698,0.11207432743236422,0.24914387031365184
1782815227382956500,4.47695654296875,-0.6663549542427063,0.3020550474964082,0.30409948587082325
1782815227403038500,4.49703857421875,-0.44240883621275423,0.42708603326603767,0.2514179161928594
1782815227423120400,4.517120361328125,-0.1953478000551462,0.4378207777701318,0.21023652243353425
1782815227443202600,4.53720263671875,0.08079495368003844,0.48059798935353754,0.08087806538622826
1782815227463284500,4.557284423828125,0.3001139964312315,0.4564052128612995,-0.02097697451720014
1782815227483366400,4.577366455078125,0.13537585417330264,0.32481282274946566,-0.40012528989780694
1782815227503448600,4.597448486328125,-0.3600304127335548,0.42316184555962677,-0.839274210999161
1782815227523531500,4.617531494140625,-0.5396709405690431,0.6778641902506352,-0.9578178805761038
1782815227543613400,4.637613525390625,-0.17996493748426437,0.7849842562764883,-0.6540138705205172
1782815227563695400,4.6576953125,0.575332036536932,0.6344457581542432,-0.31139713206570596
1782815227583777500,4.677777587890625,1.0764216097772121,0.4270020082443952,-0.26095106635484844
1782815227603859500,4.697859375,1.418879540941119,0.07674670120254158,-0.34865002726968375
1782815227623941400,4.71794140625,1.4061843100190161,-0.4349047441929578,-0.4082881380872801
1782815227644023300,4.738023193359375,1.1656845320731402,-0.6555500671118497,-0.25676652894550933
1782815227664105500,4.75810546875,1.158271625468135,-0.750307641301304,0.3489489006184041
1782815227684187400,4.7781875,0.996273137307167,-0.7873013010472059,0.8955877074386924
1782815227704269300,4.798269287109375,0.6189730253428221,-0.9334253437280654,0.9770886174309998
1782815227724351500,4.8183515625,0.4261866002082825,-1.1368228869870305,0.9382961646348238
1782815227744433400,4.838433349609375,0.11661094794869423,-1.2173103821530937,0.8875389871481806
1782815227764515300,4.858515380859375,-0.22851298755407332,-1.2611015930846332,0.7310698568679392
1782815227784597800,4.87859765625,-0.3616220658391714,-1.2837411487855017,0.5409575828460976
1782815227804679700,4.8986796875,-0.35666941186785694,-1.2436774339444934,0.5748199222963303
1782815227824761600,4.91876171875,-0.4811521161049604,-1.2179352360531688,0.3864951527457684
1782815227844843500,4.938843505859375,-0.4645575396567583,-1.114252304869145,0.22351828453931957
1782815227864925700,4.95892578125,-0.47263095599710936,-1.1356462444230913,0.12258868891773744
1782815227885007600,4.979007568359375,-0.6288309870123863,-1.2278449279099701,-0.16756713687246663
1782815227905090600,4.999090576171875,-1.2181067932277918,-1.4376808336533604,-0.45530273151211437
1782815227925172500,5.01917236328125,-1.4871633880943058,-1.1235318821288645,-0.8698122648648917
1782815227945254700,5.039254638671875,-1.404575121256709,-0.8326486553795636,-0.8341696544017643
1782815227965336600,5.059336669921875,-1.243011517381668,-0.5707958544120192,-0.43638917406443506
1782815227985418500,5.07941845703125,-1.0378303055763245,-0.20396949792802332,-0.11903481409475207
1782815228005500700,5.099500732421875,-0.8787772232174873,0.18674436849132178,0.031326318166591226
1782815228025582600,5.11958251953125,-0.6747866825014353,0.473947445423156,0.08678071355875581
1782815228045664500,5.13966455078125,-0.3033464024811983,0.6575780658081174,0.14733246862255037
1782815228065746400,5.159746337890625,0.05729015945196152,0.6435574315011501,0.1525876857370138
1782815228085828600,5.17982861328125,0.30774902135431764,0.7092790269508957,0.20414792323485015
1782815228105910500,5.19991064453125,0.5008884977102279,0.8128307329706848,0.3576702594734728
1782815228125992400,5.219992431640625,0.6058610303133726,0.9360710359312593,0.38094950131736693
1782815228146074600,5.24007470703125,0.7241232526004314,1.0028205131240189,0.5251840769898146
1782815228166156500,5.260156494140625,0.7572276498228311,0.9568699322015046,0.6467611959785222
1782815228186238500,5.280238525390625,0.5300631542682648,0.9095761199764907,0.5113269261488691
1782815228206320600,5.300320556640625,0.4804699790596962,0.9823417887188494,0.5532930405450984
1782815228226402600,5.320402587890625,0.6653478230267763,0.9801850490763783,0.6386814229626209
1782815228246484500,5.340484375,0.9173696964621544,0.8533145729199051,0.6290365195218474
1782815228266566400,5.36056640625,0.8814736226946115,0.7442926187954843,0.600344458848983
1782815228286649300,5.3806494140625,0.46895022165775296,0.7733964020743965,0.5079797711454331
1782815228306731300,5.400731201171875,0.19866671534478664,0.8710228096984326,0.48148361308164894
1782815228326813200,5.420813232421875,0.3680149817466736,0.7441204770989716,0.48544331049285827
1782815228346895000,5.44089501953125,0.6052350073695183,0.5227227283775806,0.4550678267776966
1782815228366977300,5.460977294921875,0.7115396653592586,0.3916944018892944,0.4618588386246934
1782815228387059200,5.48105908203125,0.5398503887891769,0.16982625917717814,0.25908125389497727
1782815228407141000,5.50114111328125,-0.028006781822443007,-0.005689736074209213,0.044161953073227775
1782815228427223300,5.521223388671875,-0.5453776277780532,0.06164879305288195,0.02625955456262454
1782815228447305200,5.54130517578125,-0.9008476007282733,0.13700491667985915,0.16504788406053558
1782815228467387100,5.56138720703125,-0.9619903439551591,0.32884690057113763,0.23326637435993178
1782815228487469300,5.58146923828125,-0.6745359226107597,0.333731603872776,0.3184057321861386
1782815228507551200,5.60155126953125,-0.3302285641878843,0.1305897889405489,0.3345030266366899
1782815228527633200,5.621633056640625,0.10515431891083717,-0.08780936248674988,0.275960583835002
1782815228547716400,5.64171630859375,0.7000520566612481,-0.3628244273662567,0.292418217764236
1782815228567798300,5.66179833984375,0.7157423777461052,-0.5137995633400977,0.26160085376678033
1782815228587880400,5.68188037109375,0.4212053046643734,-0.5671221343353391,0.11977883739508688
1782815228607962400,5.70196240234375,0.058579030218720435,-0.5867701070047915,-0.18786440376350655
1782815228628044300,5.722044189453125,-0.010060790765285491,-0.6503557133391499,-0.46421175842639056
1782815228648126500,5.74212646484375,0.23710195220112798,-0.7315842361308634,-0.6145189685434103
1782815228668208400,5.76220849609375,0.5273176549524069,-0.869023598705232,-0.7042545498523861
1782815228688290300,5.782290283203125,0.6768307555496692,-1.0339153240896761,-0.7729795649018139
1782815228708372500,5.80237255859375,0.3923573958426714,-1.0418341343902051,-0.8669855900716036
1782815228728454400,5.822454345703125,0.063760816770792,-0.7971614546738565,-0.983454499201104
1782815228748536300,5.842536376953125,-0.23177929587364196,-0.8519140584722161,-0.931961262524873
1782815228768618200,5.8626181640625,-0.5802180550128221,-0.744276252182573,-0.9011218145597726
1782815228788700400,5.882700439453125,-0.8016922299712896,-0.5881207909613847,-0.7612607047311961
1782815228808782300,5.9027822265625,-0.8113228126257658,-0.5764816449634731,-0.5496114659555256
1782815228828865300,5.922865234375,-0.6258282980650663,-0.6452591208525001,-0.45556119978521015
1782815228848947200,5.942947265625,-0.6647919427096843,-0.882490983043611,-0.44542573634851723
1782815228869029400,5.963029296875,-1.0166729512572288,-0.8795077294491231,-0.5276218255307525
1782815228889111300,5.983111328125,-1.510507438802719,-0.6459798363424837,-0.48480260143652554
1782815228909193200,6.003193115234375,-2.0539158123344183,-0.20272139756307006,-0.3862689427744597
1782815228929275400,6.023275390625,-1.9110557398855685,0.19677754059731958,-0.08251089075244962
1782815228949357300,6.043357421875,-1.0898358026236294,0.33123803349137304,0.11213800378572195
1782815228969439200,6.063439208984375,-0.13605506860911845,0.24803762610480187,0.1631113265073858
1782815228989521200,6.083521240234375,0.6172995391726493,0.17090791693404317,0.27974961912073193
1782815229009603300,6.103603271484375,0.9233826731413602,0.25080606790482995,0.30079101890996096
1782815229029685200,6.123685302734375,0.9574404255658387,0.42322570457607506,0.21888857891205696
1782815229049767200,6.14376708984375,0.8256973749369383,0.6269233998253941,0.2407063699012622
1782815229069849300,6.163849365234375,0.5220902756929398,0.8383782850727438,0.30772933027315885
1782815229089932300,6.183932373046875,0.266253812405467,0.9822169932954012,0.27849519861284644
1782815229110014200,6.20401416015625,0.11110182913839817,1.107087966197729,0.17165603188760578
1782815229130096000,6.22409619140625,0.020396891340613364,1.226746611279249,0.13247440624390727
1782815229150178300,6.24417822265625,-0.0723924515157938,1.3892295219562947,0.05985389985959045
1782815229170260200,6.26426025390625,-0.0353705885887146,1.4711214770928025,0.014926487972354515
1782815229190342100,6.284342041015625,0.3845692261844873,1.3634335480511188,0.04903460974404588
1782815229210424000,6.304424072265625,0.7901146049022674,1.2153951961815357,0.11782706400649622
1782815229230506200,6.32450634765625,0.8118278395384549,1.138501195462793,0.06390508407969027
1782815229250588200,6.344588134765625,0.7186947978109121,0.8561771227441728,-0.024172391291335225
1782815229270671000,6.364671142578125,0.19749825608730315,0.6582343377597629,-0.18773458510506896
1782815229290753000,6.3847529296875,-0.3897030819416046,0.6100755792684853,-0.2513632268635556
1782815229310835200,6.404835205078125,-0.7673843021780252,0.6261496389739215,-0.124344610940665
1782815229330917000,6.424917236328125,-0.7934849581182003,0.6533158783189952,0.045863048769533635
1782815229350999000,6.4449990234375,-0.466104184576869,0.5158467051282525,0.2805682054946199
1782815229371082000,6.46508203125,0.031387071910500525,0.24185016964152453,0.32787363509219136
1782815229391164200,6.4851640625,0.4366074564576149,-0.03712415425777435,0.2898846441660076
1782815229411246000,6.50524609375,0.687075670710206,-0.24485022824034094,0.19639445956386625
1782815229431328000,6.525327880859375,0.8563935419738292,-0.42416050120815635,0.1550673371909186
1782815229451410200,6.54541015625,0.8097925343185662,-0.479834311504662,0.15867328926101326
1782815229471492000,6.5654921875,0.5527981331676245,-0.5407846008993685,0.1773719983816147
1782815229491574000,6.585573974609375,0.1506190160125494,-0.6094433457795531,0.19382548585869372
1782815229511656000,6.605656005859375,-0.25637597699165343,-0.5880125813465565,0.2624483557078987
1782815229531738000,6.625738037109375,-0.5837877301931381,-0.5457579323325306,0.3494443925177678
1782815229551820000,6.645820068359375,-0.7234697571277618,-0.566945389528945,0.404653617509827
1782815229571902000,6.66590185546875,-0.7216992403239011,-0.61242353063412,0.4944872523657977
1782815229591984000,6.685984130859375,-0.6239473066240548,-0.6572142009317875,0.481386947774142
1782815229612067000,6.706067138671875,-0.43036417815387246,-0.7961692287661135,0.35714269193541254
1782815229632149000,6.72614892578125,-0.2623170574784279,-0.911231120641902,0.12653981943000106
1782815229652231000,6.74623095703125,-0.09598200141787529,-0.9212637812912463,0.06493263702914118
1782815229672313000,6.76631298828125,0.054286885982751845,-0.8308850797731429,0.03850391817837953
1782815229692395000,6.78639501953125,0.06013619653284549,-0.7134747981403022,0.005435688247904181
1782815229712477000,6.806476806640625,0.011880407407879828,-0.5850783545255661,-0.04859864774588495
1782815229732558800,6.826558837890625,-0.18905308382511138,-0.392161800205335,-0.055169514036178584
1782815229752641000,6.84664111328125,-0.37115152620673175,-0.17114092197231948,-0.07634882445875554
1782815229772723000,6.866722900390625,-0.5515916799873113,-0.037477936131507156,-0.20083861602377145
1782815229792804900,6.886804931640625,-0.5754781670093536,-0.10415098708719014,-0.338182957258448
1782815229812887000,6.906886962890625,-0.14614976164400575,-0.2019102273106575,-0.4274960753716528
1782815229832969000,6.926968994140625,0.02918576247394085,-0.3741461779780686,-0.4770381049148738
1782815229853051000,6.94705078125,-0.2670686359196901,-0.39160277808308597,-0.5087982113888487
1782815229873134000,6.967134033203125,-0.2514192313671112,-0.3994738037191331,-0.4441032190404832
1782815229893216300,6.98721630859375,-0.14972703560888767,-0.4032439699076116,-0.3229628109686076
1782815229913298200,7.007298095703125,-0.13064473399817944,-0.37556452034339305,-0.28678678774852306
1782815229933380000,7.027380126953125,-0.21674831548035142,-0.3791447169177234,-0.38171456740573045
1782815229953462000,7.0474619140625,-0.41298868046104903,-0.21498788167908786,-0.5466187504129484
1782815229973544200,7.067544189453125,-0.44567689809799194,0.0011762041725218296,-0.5429314767349511
1782815229993626000,7.087626220703125,-0.5841928038626909,0.22986089503169058,-0.5966443622220308
1782815230013708000,7.1077080078125,-0.517274399843812,0.4412691646583378,-0.6831557207874953
1782815230033790200,7.127790283203125,-0.23030746975541114,0.5434988282941281,-0.6923851752951741
1782815230053872000,7.1478720703125,0.07713584665060043,0.6043488721847534,-0.7201061989787966
1782815230073954000,7.1679541015625,0.26171616897583005,0.5807127066619694,-0.8165029917426407
1782815230094036200,7.1880361328125,0.327892230194807,0.597517126468569,-0.8286497950017452
1782815230114119200,7.208119140625,0.43025078090727326,0.6806732563219964,-0.7431292010392994
1782815230134201000,7.228201171875,0.6359136387497186,0.69372153846547,-0.5444677098589018
1782815230154283000,7.248282958984375,0.6370031875520944,0.7152711069725454,-0.4057249000031501
1782815230174365000,7.268364990234375,0.6708195324361323,0.6859145179763436,-0.31535102079063654
1782815230194447000,7.288447021484375,0.6876274593740701,0.633105157200247,-0.2467144877422601
1782815230214529000,7.308529052734375,0.7614730323076248,0.5695072759062051,-0.20605156489908694
1782815230234611000,7.32861083984375,0.6212497381031513,0.49063715280890463,-0.1347895421853289
1782815230254693000,7.348693115234375,0.31079145779013634,0.4921308984979987,-0.04513959333319217
1782815230274774300,7.368774169921875,0.06192892516851425,0.4781174245841801,-0.00073415949344635
1782815230294856200,7.388856201171875,-0.10211363604068756,0.4043247508816421,0.031225049749203024
1782815230314938400,7.4089384765625,-0.18405542166829109,0.3339116366147995,0.07045801285449416
1782815230335020300,7.429020263671875,-0.29812428391873835,0.4142946484930813,0.2053330778988078
1782815230355103500,7.449103515625,-0.29921441724300385,0.5129198578961194,0.27971443820949643
1782815230375185400,7.469185302734375,-0.2114782661229372,0.5384671177372337,0.21513510813005268
1782815230395267600,7.489267578125,-0.029544074392318723,0.4973353352732956,0.1326447852415964
1782815230415349500,7.509349609375,0.10427461346685886,0.5381028144694865,0.12232373610492794
1782815230435431400,7.529431396484375,0.18263444895446299,0.5467044924676417,0.18754425016473977
1782815230455513600,7.549513671875,0.1040419737547636,0.5498198480091989,0.16832896982412784
1782815230475595500,7.569595458984375,-0.06877250745296477,0.5612561649113893,0.07250084379371255
1782815230495677400,7.589677490234375,-0.1689624819546938,0.6171623226590455,-0.05474412823095917
1782815230515759400,7.60975927734375,-0.48552901601493353,0.6693285632260143,-0.19825232585761696
1782815230535841500,7.629841552734375,-0.937833223298192,0.8003069130927324,-0.22228333591688423
1782815230555923500,7.64992333984375,-1.2055004096329212,0.9791016377538442,-0.10848912588935344
1782815230576006400,7.67000634765625,-1.014201592707634,1.053641768822819,-0.051798576298356054
1782815230596088300,7.69008837890625,-0.2544394559711218,0.728016168385744,-0.09700677788835019
1782815230616170500,7.71017041015625,0.4637479768395424,0.3665089610978961,-0.09843030788544564
1782815230636252400,7.73025244140625,0.8612064952135086,0.18030162209272382,-0.045558622462861235
1782815230656334300,7.750334228515625,1.063088665473461,-0.03320303529128432,-0.08614924725480377
1782815230676416500,7.77041650390625,1.0187573563158512,-0.24232494754642248,-0.11785532198660074
1782815230696498400,7.79049853515625,0.764600224417448,-0.4535714507400989,-0.09822820944208652
1782815230716580400,7.810580322265625,0.31614918543100357,-0.5977984276279806,-0.25692371053490787
1782815230736662300,7.830662353515625,0.0458142411917448,-0.8113255891047417,-0.4537840340448543
1782815230756744400,7.850744384765625,-0.19610943207740783,-0.9222330647148191,-0.6054330506922677
1782815230776826400,7.870826416015625,-0.3147358115017414,-0.866078046772629,-0.6079730540312827
1782815230796909300,7.890909423828125,-0.3607721710115671,-0.8215998764902352,-0.46721587214581667
1782815230816991200,7.9109912109375,-0.4581465035706758,-0.6908129575423896,-0.336338498435542
1782815230837073400,7.931073486328125,-0.588784223306179,-0.5837023899972439,-0.22896259448509662
1782815230857155300,7.9511552734375,-0.5363274753600359,-0.4122555438809097,0.0503305495724082
1782815230877237200,7.9712373046875,-0.42977264200150966,-0.3213045223675668,0.3404475777221843
1782815230897319400,7.9913193359375,-0.32714521121978757,-0.25593539361730216,0.5018026899456978
1782815230917401300,8.0114013671875,-0.19274024790525435,-0.26265710308775303,0.59718197623007
1782815230937483300,8.031483154296875,0.025199323186278343,-0.32651860375404357,0.6223096224196255
1782815230957565200,8.051565185546876,0.14571078570485113,-0.38309827684909104,0.6100178211992606
1782815230977647400,8.0716474609375,0.18265782983005047,-0.4215072102203965,0.6472918687891215
1782815230997729300,8.091729248046875,0.1369113931775093,-0.466185286989063,0.6092077834580093
1782815231017812500,8.1118125,0.1402098502010107,-0.4957778766982257,0.5173542601469904
1782815231037894400,8.131894287109375,0.1753062980234623,-0.5719741044111549,0.5462098042858764
1782815231057976600,8.1519765625,0.33577801500856874,-0.7035768697865307,0.5393844517778605
1782815231078058500,8.17205859375,0.6518208174556493,-0.5548376761712134,0.43016295649334785
1782815231098140400,8.192140380859374,-0.042646717071533204,-0.5272125871427357,0.17600092922411859
1782815231118222600,8.21222265625,-0.7108809091895818,-0.22573373209908604,-0.019522547058342023
1782815231138304500,8.232304443359375,-0.998404888638854,0.036566228114068504,0.08820263612065464
1782815231158386400,8.252386474609375,-1.290274788337946,0.21651552963778375,0.06986693335985765
1782815231178468400,8.27246826171875,-1.3237018416434525,0.2749833545669913,-0.07574791768984869
1782815231198550500,8.292550537109374,-1.0694582005053759,0.2805399657808244,-0.136683420507377
1782815231218632400,8.312632568359374,-0.5209089569538832,0.32883564852476116,0.004964015615545213
1782815231238715400,8.33271533203125,0.16102409017086028,0.3618617198139429,0.22274695310695095
1782815231258797300,8.35279736328125,0.6402811863094567,0.245026315459609,0.21556537103978915
1782815231278880000,8.3728798828125,0.9754735103845595,0.11147051632031797,0.22688803496705368
1782815231298962200,8.392962158203124,1.0794242987245322,0.0457237864293158,0.25904704109812154
1782815231319044000,8.413044189453124,0.8884136510908603,0.13623042517602443,0.3143809336494654
1782815231339126000,8.4331259765625,0.4003670992970466,0.22836554190739988,0.28540088634807614
1782815231359208200,8.453208251953125,-0.16828794369399547,0.3442752097189426,0.23881865645851938
1782815231379290000,8.4732900390625,-0.32377485800385475,0.38144568733647466,0.20583921905634925
1782815231399372000,8.4933720703125,-0.23613164586424826,0.3349300198771059,0.1696089814309962
1782815231419454200,8.5134541015625,-0.05330138207674026,0.26940613895654675,0.13121867969492448
1782815231439536000,8.5335361328125,-0.04560615139901638,0.2746742886178195,0.062385381965432314
1782815231459619000,8.553619140625,-0.11828969481587409,0.3017456892862916,-0.01066620931252837
1782815231479701000,8.573700927734375,-0.055361821737885474,0.27721257492378354,-0.1397652665049769
1782815231499783000,8.593782958984375,0.02088029094338417,0.24882000865414738,-0.3008575265412219
1782815231519865000,8.613864990234376,-0.02372808158993721,0.290860722656548,-0.35261063799634573
1782815231539947000,8.633947021484374,-0.10297814391553402,0.46376653540953994,-0.23746806383347138
1782815231560029000,8.65402880859375,-0.0073036010116338725,0.6593574965707958,-0.03990121775567532
1782815231580111000,8.674111083984375,0.16102116756141185,0.7336765322349965,0.13969081302927805
1782815231600193300,8.694193359375,0.2308183418869972,0.7275977968432009,0.1367377536436543
1782815231620275200,8.714275146484376,0.31458558937609193,0.7204571313083171,0.037609937613876536
1782815231640357400,8.734357421875,0.42918928915560245,0.6580098813541233,-0.0407949517250061
1782815231660440300,8.7544404296875,0.5794634372532368,0.6433811981514096,-0.0003254508283920586
1782815231680522200,8.774522216796875,0.5789911435663699,0.5717746363162994,0.009938022902142256
1782815231700604200,8.794604248046875,0.5385170943588018,0.5228469392791391,-0.012019098925939761
1782815231720686000,8.81468603515625,0.2536275550663471,0.3134944331385195,-0.23031145181078463
1782815231740768300,8.834768310546876,-0.17984744858443735,0.0666015931546688,-0.5042644769493491
1782815231760850200,8.85485009765625,-0.6681915220201015,-0.0004668868593871593,-0.4547506871199235
1782815231780932000,8.87493212890625,-1.1471470048636196,0.1907923287078738,-0.17485893784845247
1782815231801014300,8.89501416015625,-1.3965005358725786,0.42941564525738357,0.16281128411488607
1782815231821096200,8.91509619140625,-1.6275357353806494,0.4309158206872642,0.20464215475888922
1782815231841178000,8.93517822265625,-0.9554875379323958,0.37044250115454197,0.2538180178708397
1782815231861261000,8.955260986328126,-0.20058862331807611,-0.04122311400920153,0.31303839646670967
1782815231881343200,8.97534326171875,0.3640811494290829,-0.2587701786518097,0.22614687947724013
1782815231901425200,8.995425048828125,0.7222253100246191,-0.40359307560622687,0.04872126034540124
1782815231921507000,9.015507080078125,0.8849234708875418,-0.5758946388557553,-0.04805518851894885
1782815231941589000,9.035589111328125,0.6107780284494161,-0.6849157161973416,-0.0540989256625995
1782815231961671200,9.055671142578126,0.29977146660387516,-0.5408412995226681,-0.032005203808844085
1782815231981753000,9.075753173828126,0.16488661081790923,-0.47990153152197595,0.06316380072571337
1782815232001835000,9.0958349609375,0.22032149779200552,-0.5036848504304886,0.0983911266525276
1782815232021917200,9.115917236328125,0.23576982681453226,-0.5270709867149591,0.23462093077404422
1782815232041999000,9.1359990234375,0.04857259998917579,-0.5087808583952487,0.32919388737790284
1782815232062081000,9.1560810546875,-0.12243103240430354,-0.5027700736731291,0.2910252290358767
1782815232082164000,9.1761640625,-0.05030804547965526,-0.589282235956192,0.34034700342454016
1782815232102246100,9.19624609375,-0.10208850159943103,-0.6940218365862966,0.3783775319375097
1782815232122328000,9.216328125,-0.22223405341506003,-0.6743783939614891,0.2316152461520396
1782815232142410000,9.236409912109375,0.10011690926551818,-0.8062529620155692,0.20156711296141147
1782815232162492200,9.2564921875,0.3535375435829162,-0.9390927218399941,0.1974786928703077
1782815232182574000,9.276573974609375,0.2672872471064329,-0.95621190668419,0.13633604097496718
1782815232202656000,9.296656005859376,0.08886661645472049,-0.9212481453306972,0.013237265376932919
1782815232222738000,9.316738037109374,-0.030374095475673674,-0.8917714370861649,-0.07042443937845527
1782815232242820400,9.3368203125,-0.10581599768996239,-0.8652942029185593,-0.10089085278008132
1782815232262902300,9.35690234375,-0.41949031744003296,-0.7686518378958106,-0.13320875753359868
1782815232282984000,9.37698388671875,-0.756373663341999,-0.6779748110182583,-0.08905245788302273
1782815232303066000,9.397066162109375,-0.9973866515070199,-0.506118653448671,-0.18974608932426199
1782815232323149000,9.417149169921874,-1.2298030762404202,-0.36498423574864863,-0.07450579040795564
1782815232343231000,9.43723095703125,-1.1661942351609467,-0.159803023943305,0.0996215634966269
1782815232363313000,9.45731298828125,-0.8459130644917487,-0.04869914897829294,0.1425963069461286
1782815232383395000,9.47739501953125,-0.5497825847387313,0.0850774533048272,0.1885274525158107
1782815232403477000,9.49747705078125,-0.4323006991744041,0.26074644716084,0.20940518617592752
1782815232423559000,9.517558837890626,-0.3987514807939529,0.45371655829921365,0.10870766401086002
1782815232443640800,9.537640869140626,-0.2720686361640692,0.6206710614323616,0.014195735145546494
1782815232463723000,9.557722900390624,-0.012007833179831505,0.6935365372873842,-0.029221929765865205
1782815232483805000,9.577804931640625,0.12910744142830372,0.823606101746112,-0.06280578106828033
1782815232503886800,9.597886962890625,0.10838614043891429,0.888149447196722,-0.22230236941091716
1782815232523969800,9.6179697265625,0.02848725881576538,0.9245575621396303,-0.360273062383011
1782815232544052000,9.638052001953126,0.3149088299810886,0.8464937869891523,-0.30635869950708
1782815232564134000,9.6581337890625,0.6457903051197529,0.8497251701258123,-0.20879604130163787
1782815232584215800,9.6782158203125,0.8210621163517237,0.8299648231230675,-0.18533574380241333
1782815232604298000,9.698298095703125,0.846722042787075,0.7788008914664387,-0.10387936707157641
1782815232624380000,9.7183798828125,0.6339204191058874,0.8460911975376307,-0.08086827464457601
1782815232644462800,9.738462890625,0.5396142419457435,0.8659371769972145,-0.1111358410058543
1782815232664544800,9.758544677734376,0.4548673357695341,0.783545894036442,-0.17794314933307467
1782815232684627000,9.778626953125,0.19824527506232262,0.6625333501279353,-0.2951047534344718
1782815232704709000,9.798709228515625,-0.07267185297906398,0.5874164420843124,-0.3723265613354742
1782815232724791000,9.818791015625,-0.2965823151737451,0.5558244952514767,-0.3796625302467495
1782815232744873000,9.838873046875,-0.5801087494194507,0.5370823853805661,-0.29535691983094436
1782815232764955100,9.858955078125,-0.7754168019860982,0.49676045799478885,-0.27448638309659434
1782815232785037000,9.879037109375,-0.8685627031952142,0.45719767841324205,-0.25854705568673086
1782815232805119000,9.899118896484374,-0.7094844863951206,0.4122260255254805,-0.1330475390898995
1782815232825202000,9.919201904296875,-0.399741660875082,0.46190205671191215,-0.010672328526061028
1782815232845284000,9.9392841796875,-0.08583645497858523,0.4860011635713279,0.04159479686580598
1782815232865366000,9.959365966796875,0.19671090510189532,0.4509634601987898,0.01639582073939964
1782815232885448000,9.979447998046876,0.4019283572643995,0.35352746058031914,-0.007561101170349866
1782815232905529900,9.99952978515625,0.40867081726193427,0.2761471376493573,-0.017108133727218956
1782815232925612000,10.019612060546875,0.2934323267102241,0.3587697451479733,0.041193011131882666
1782815232945694000,10.03969384765625,0.34952363176643847,0.31597426725551486,0.08949210967561229
1782815232965776000,10.05977587890625,0.4916711720317602,0.2709131825186312,0.1831111996207386
1782815232985858000,10.079858154296875,0.42589959996044635,0.24547566666230558,0.2213514253616333
1782815233005941000,10.09994091796875,0.14205577032864092,0.2657385563597083,0.17024402793152257
1782815233026023000,10.12002294921875,0.03149930011332035,0.21062281833738086,0.14077921105418353
1782815233046104800,10.140104736328125,0.184346513569355,0.1510052388511598,0.15658334951074793
1782815233066187000,10.16018701171875,0.19237024554908275,0.06444149251133204,0.11264785300400107
1782815233086269000,10.18026904296875,-0.01167991639971733,0.14471023036018013,0.02275171083845198
1782815233106350800,10.200350830078126,0.006283610314130782,0.1685575544156134,0.09769625798985361
1782815233126432800,10.220432861328124,0.015605565410852432,-0.09108999159261584,0.04898194797504693
1782815233146515000,10.240514892578124,-0.7261813541740179,-0.023793840302526948,-0.24656309657283126
1782815233166596900,10.260596923828125,-0.6403484063267707,-0.06176482064798474,-0.29637309286985547
1782815233186679800,10.2806796875,-0.3204290547072887,0.04512172888293862,-0.13500201589222996
