time,seconds_elapsed,z,y,x
1782814965836999700,0.063999755859375,0.07376628369092941,0.7563421130180359,0.13246206939220428
1782814965857082600,0.08408251953125,0.3089624345302582,0.7986482381820679,-0.024410368874669075
1782814965877164500,0.10416455078125,0.4390987157821655,0.798098087310791,-0.20514100790023804
1782814965897247500,0.12424755859375,0.3414945900440216,0.7362995147705078,-0.38503795862197876
1782814965917330700,0.14433056640625,0.2903834283351898,0.5856857895851135,-0.4635586142539978
1782814965937412900,0.164412841796875,0.2397143840789795,0.6355302333831787,-0.4038284420967102
1782814965957495800,0.184495849609375,0.17678694427013397,0.6513327956199646,-0.3037206530570984
1782814965977577700,0.20457763671875,0.23179280757904053,0.26300811767578125,-0.4650537073612213
1782814965997660700,0.22466064453125,0.5022088885307312,0.18633796274662018,-0.7683638334274292
1782814966017742000,0.2447421875,0.8888171911239624,0.6740416288375854,-0.756139874458313
1782814966037825000,0.264824951171875,1.3003655672073364,0.9420192241668701,-0.6602430939674377
1782814966057908000,0.284907958984375,1.5266361236572266,0.6662342548370361,-0.5074214339256287
1782814966077990100,0.304990234375,1.3646130561828613,0.19965532422065735,-0.39900800585746765
1782814966098073000,0.325072998046875,1.176998496055603,-0.18377119302749634,-0.18179479241371155
1782814966118155000,0.345155029296875,1.0920149087905884,-0.6584951281547546,0.05609520524740219
1782814966138238200,0.36523828125,1.1437371969223022,-0.651683509349823,0.18713583052158356
1782814966158321200,0.385321044921875,1.1210496425628662,-0.451894074678421,0.19432492554187775
1782814966178403000,0.405403076171875,1.0575932264328003,-0.2143111675977707,0.07019779086112976
1782814966198486000,0.425486083984375,1.0111145973205566,-0.04702562093734741,-0.1357554793357849
1782814966218568200,0.445568115234375,0.9882984161376953,-0.06743978708982468,-0.30276089906692505
1782814966238651100,0.465651123046875,0.9477505087852478,-0.1654256135225296,-0.43471869826316833
1782814966258733000,0.485733154296875,0.8727682828903198,-0.36137259006500244,-0.49453380703926086
1782814966278816300,0.505816162109375,0.8859993815422058,-0.5897796154022217,-0.479256272315979
1782814966298899200,0.525899169921875,0.9529595971107483,-0.6481693387031555,-0.47582343220710754
1782814966318981000,0.545981201171875,1.0279392004013062,-0.5272077918052673,-0.47608131170272827
1782814966339064000,0.56606396484375,1.07460618019104,-0.25201189517974854,-0.49383166432380676
1782814966359146200,0.586146240234375,1.0882598161697388,-0.11164338141679764,-0.5150977969169617
1782814966379229200,0.606229248046875,1.1050359010696411,-0.14525440335273743,-0.4746861755847931
1782814966399312100,0.62631201171875,1.148992657661438,-0.157642662525177,-0.3427489995956421
1782814966419394000,0.64639404296875,1.2320624589920044,-0.05460990220308304,-0.14889384806156158
1782814966439477200,0.666477294921875,1.314436674118042,-0.11286699771881104,0.0578908808529377
1782814966459559200,0.68655908203125,1.2887991666793823,-0.31214556097984314,0.2067788690328598
1782814966479642000,0.70664208984375,1.1234986782073975,-0.4238634407520294,0.2856094539165497
1782814966499724000,0.72672412109375,0.9895083904266357,-0.16686312854290009,0.3627834618091583
1782814966519807000,0.746806884765625,0.8957855105400085,0.18126018345355988,0.3600221872329712
1782814966539890200,0.76689013671875,0.869846761226654,0.4709406793117523,0.2865453362464905
1782814966559972000,0.78697216796875,0.820183515548706,0.4493974447250366,0.16208627820014954
1782814966580055000,0.807054931640625,0.7910486459732056,0.40283533930778503,0.08337076753377914
1782814966600137200,0.82713720703125,0.7702013254165649,0.3476869463920593,0.051546309143304825
1782814966620220200,0.84722021484375,0.7430059909820557,0.25615260004997253,0.046185050159692764
1782814966640302000,0.867302001953125,0.6970983147621155,0.12505647540092468,0.07183301448822021
1782814966660385000,0.887385009765625,0.6593343019485474,-0.010577271692454815,0.11749480664730072
1782814966680468000,0.907468017578125,0.6510037779808044,-0.0362626351416111,0.20213265717029572
1782814966700550100,0.927550048828125,0.6638780236244202,0.10287415981292725,0.33401715755462646
1782814966720633000,0.947633056640625,0.6263542771339417,0.3012566566467285,0.497067391872406
1782814966740715000,0.967715087890625,0.5232182741165161,0.41980740427970886,0.6079807281494141
1782814966760798200,0.987798095703125,0.40116262435913086,0.41260695457458496,0.6156937479972839
1782814966780880100,1.007880126953125,0.30094677209854126,0.39432576298713684,0.5393438935279846
1782814966800963000,1.027963134765625,0.2535461187362671,0.3617591857910156,0.4320072829723358
1782814966821046000,1.0480458984375,0.2555089294910431,0.34623149037361145,0.34766483306884766
1782814966841128200,1.068128173828125,0.28606292605400085,0.38435786962509155,0.2812184691429138
1782814966861211100,1.088211181640625,0.31956154108047485,0.44660279154777527,0.22072117030620575
1782814966881293000,1.10829296875,0.4107474684715271,0.5759086012840271,0.13687187433242798
1782814966901376000,1.1283759765625,0.5730223059654236,0.7479128241539001,0.026556219905614853
1782814966921458000,1.1484580078125,0.8070440888404846,0.8767547011375427,-0.1315055787563324
1782814966941541000,1.168541015625,0.9837666749954224,0.9629178047180176,-0.3331628441810608
1782814966961624000,1.1886240234375,0.9852564334869385,0.8437908887863159,-0.5321230292320251
1782814966981706200,1.208706298828125,0.8022130727767944,0.4640793204307556,-0.6788932085037231
1782814967001789200,1.2287890625,0.569733738899231,0.05874249339103699,-0.744437038898468
1782814967021871400,1.248871337890625,0.3535722494125366,-0.11282822489738464,-0.7233680486679077
1782814967041954300,1.268954345703125,0.2587638199329376,-0.011496899649500847,-0.6629106998443604
1782814967062036200,1.2890361328125,0.2773221731185913,0.3206169605255127,-0.6110994815826416
1782814967082119200,1.309119140625,0.27532702684402466,0.5673922896385193,-0.6113684177398682
1782814967102201300,1.329201416015625,0.23476332426071167,0.5702547430992126,-0.6308937668800354
1782814967122284300,1.3492841796875,0.236083984375,0.5075978636741638,-0.6233313679695129
1782814967142367500,1.369367431640625,0.25943484902381897,0.48928239941596985,-0.5778132677078247
1782814967162449400,1.389449462890625,0.2578819692134857,0.5325679779052734,-0.5038145780563354
1782814967182532400,1.409532470703125,0.2402932196855545,0.5498168468475342,-0.41673722863197327
1782814967202614300,1.4296142578125,0.19540807604789734,0.4256483316421509,-0.37111297249794006
1782814967222697200,1.449697265625,0.11598268896341324,0.07345514744520187,-0.3792714476585388
1782814967242779100,1.469779052734375,0.026110652834177017,-0.200456440448761,-0.3751894235610962
1782814967262862000,1.489862060546875,-0.07179900258779526,-0.4471881091594696,-0.39253610372543335
1782814967282944300,1.5099443359375,-0.13779228925704956,-0.5052836537361145,-0.3924097716808319
1782814967303027500,1.53002734375,-0.11890628188848495,-0.4253635108470917,-0.3729029595851898
1782814967323110400,1.5501103515625,-0.04432462155818939,-0.2654666304588318,-0.33507758378982544
1782814967343192300,1.5701923828125,-0.034103672951459885,-0.1156717911362648,-0.3000437021255493
1782814967363275300,1.590275146484375,-0.11604343354701996,-0.16175130009651184,-0.2862274944782257
1782814967383357200,1.610357177734375,-0.19272476434707642,-0.23107606172561646,-0.2601624131202698
1782814967403440000,1.630440185546875,-0.25560012459754944,-0.23230519890785217,-0.21492134034633636
1782814967423522300,1.650522216796875,-0.29281383752822876,-0.20114892721176147,-0.17124100029468536
1782814967443605200,1.670605224609375,-0.3150838613510132,-0.13106802105903625,-0.15345364809036255
1782814967463687200,1.690687255859375,-0.31910786032676697,-0.046547871083021164,-0.160891592502594
1782814967483770400,1.710770263671875,-0.2828103005886078,-0.025739070028066635,-0.15979613363742828
1782814967503853300,1.730853271484375,-0.21889176964759827,-0.02457386814057827,-0.10982724279165268
1782814967523935200,1.750935302734375,-0.16921301186084747,-0.10843911021947861,-0.008579696528613567
1782814967544018200,1.77101806640625,-0.1137167289853096,-0.13757476210594177,0.14936953783035278
1782814967564100400,1.791100341796875,-0.07677556574344635,-0.20385342836380005,0.3042888641357422
1782814967584183300,1.811183349609375,-0.08123168349266052,-0.2660938501358032,0.3957115411758423
1782814967604265200,1.83126513671875,-0.1380387246608734,-0.33639535307884216,0.38414645195007324
1782814967624348200,1.85134814453125,-0.2825720012187958,-0.4568326473236084,0.23723934590816498
1782814967644430300,1.871430419921875,-0.4662416875362396,-0.5772980451583862,-0.020546764135360718
1782814967664513300,1.89151318359375,-0.5749457478523254,-0.6405975222587585,-0.2587204873561859
1782814967684595500,1.911595458984375,-0.5264903903007507,-0.383505642414093,-0.3209797143936157
1782814967704678400,1.931678466796875,-0.3338436484336853,0.07399750500917435,-0.1709793657064438
1782814967724761300,1.95176123046875,-0.07227594405412674,0.5033848285675049,0.08946777880191803
1782814967744843300,1.97184326171875,0.15765848755836487,0.6315208673477173,0.3245910704135895
1782814967764926200,1.99192626953125,0.30936330556869507,0.48602932691574097,0.5005993247032166
1782814967785008000,2.012008056640625,0.37511980533599854,0.20306457579135895,0.6014337539672852
1782814967805091300,2.03209130859375,0.39611274003982544,-0.053652774542570114,0.635621964931488
1782814967825173500,2.052173583984375,0.37660619616508484,-0.2182466685771942,0.6190136075019836
1782814967845256400,2.07225634765625,0.33854618668556213,-0.2490379959344864,0.5826640129089355
1782814967865338400,2.09233837890625,0.28592783212661743,-0.24309998750686646,0.5015338659286499
1782814967885421300,2.11242138671875,0.21625392138957977,-0.24766069650650024,0.3710097372531891
1782814967905503200,2.132503173828125,0.14446774125099182,-0.22097060084342957,0.24641047418117523
1782814967925586200,2.152586181640625,0.0892602801322937,-0.14980989694595337,0.1894616037607193
1782814967945669000,2.172669189453125,0.03446633741259575,-0.04874163120985031,0.2072593867778778
1782814967965751300,2.192751220703125,-0.034549251198768616,0.08775970339775085,0.26187121868133545
1782814967985834200,2.212834228515625,-0.09799465537071228,0.15352024137973785,0.29238972067832947
1782814968005916400,2.23291650390625,-0.11676082760095596,0.09986776858568192,0.26253455877304077
1782814968026000100,2.253000244140625,-0.09962495416402817,-0.05177907645702362,0.18356731534004211
1782814968046082000,2.27308203125,-0.09109111875295639,-0.2130807489156723,0.07398428022861481
1782814968066165000,2.2931650390625,-0.1140621230006218,-0.3353799879550934,-0.03493095561861992
1782814968086247000,2.313246826171875,-0.11734997481107712,-0.31467145681381226,-0.08698690682649612
1782814968106329900,2.333329833984375,-0.07955779880285263,-0.17515993118286133,-0.055326949805021286
1782814968126412000,2.353412109375,-0.03439002484083176,0.024378672242164612,0.007132545113563538
1782814968146495000,2.373494873046875,0.003663859097287059,0.1764775961637497,0.03735443949699402
1782814968166578200,2.393578125,0.02178119868040085,0.19139765202999115,0.009831639938056469
1782814968186660000,2.41366015625,0.011664793826639652,0.07832679152488708,-0.04731836915016174
1782814968206743000,2.433742919921875,-0.025313619524240494,-0.055373236536979675,-0.115460604429245
1782814968226825000,2.453824951171875,-0.08526874333620071,-0.18131913244724274,-0.18487504124641418
1782814968246908000,2.473907958984375,-0.1382555067539215,-0.21565568447113037,-0.21994298696517944
1782814968266989800,2.49398974609375,-0.16720737516880035,-0.1329553872346878,-0.2413245141506195
1782814968287073000,2.514072998046875,-0.14882782101631165,-0.018476475030183792,-0.24910619854927063
1782814968307155000,2.534155029296875,-0.11378947645425797,0.08141498267650604,-0.2324996441602707
1782814968327238100,2.554238037109375,-0.0879933312535286,0.14921808242797852,-0.2130216509103775
1782814968347320000,2.574320068359375,-0.06390932947397232,0.10713926702737808,-0.22285422682762146
1782814968367403000,2.594403076171875,-0.03631383180618286,0.016368001699447632,-0.2375643402338028
1782814968387486000,2.61448583984375,0.006755494978278875,-0.07218047976493835,-0.20101171731948853
1782814968407568000,2.63456787109375,0.047531116753816605,-0.1083112433552742,-0.11690957099199295
1782814968427650800,2.65465087890625,0.09573087096214294,-0.0881403312087059,-0.016476519405841827
1782814968447733000,2.67473291015625,0.13484099507331848,-0.08771635591983795,0.042589567601680756
1782814968467816000,2.69481591796875,0.1653885394334793,-0.13594506680965424,0.04166819900274277
1782814968487897900,2.71489794921875,0.1742764711380005,-0.18444295227527618,-0.01250810083001852
1782814968507981000,2.73498095703125,0.17620506882667542,-0.17345431447029114,-0.06627631187438965
1782814968528063000,2.75506298828125,0.15952125191688538,-0.09450926631689072,-0.0636182352900505
1782814968548146000,2.77514599609375,0.11696292459964752,-0.06202070787549019,-0.06838677823543549
1782814968568228000,2.79522802734375,0.10245796293020248,-0.0577271543443203,-0.05668504163622856
1782814968588311000,2.81531103515625,0.11599918454885483,0.005843412596732378,0.013659310527145863
1782814968608394000,2.83539404296875,0.13757479190826416,0.0547354482114315,0.10335913300514221
1782814968628476000,2.855475830078125,0.1604701429605484,0.05452895164489746,0.19744719564914703
1782814968648559000,2.87555908203125,0.16747285425662994,0.0068105789832770824,0.27559930086135864
1782814968668641000,2.89564111328125,0.13084657490253448,-0.02335175685584545,0.2698173224925995
1782814968688724000,2.915723876953125,0.08582388609647751,-0.02307870239019394,0.18638737499713898
1782814968708806100,2.93580615234375,0.06947766989469528,-0.03204023465514183,0.08834272623062134
1782814968728889000,2.95588916015625,0.07735846936702728,-0.06443951278924942,0.06134740263223648
1782814968748971000,2.975970947265625,0.10620221495628357,-0.05707363784313202,0.15759217739105225
1782814968769054000,2.996053955078125,0.1177743598818779,-0.004254409112036228,0.3172089457511902
1782814968789136000,3.016135986328125,0.09435783326625824,0.04407062008976936,0.41788360476493835
1782814968809218800,3.03621875,0.09138314425945282,0.0005432264879345894,0.4080805480480194
1782814968829301000,3.056301025390625,0.09723715484142303,-0.12238871306180954,0.34860965609550476
1782814968849384200,3.07638427734375,0.09430436789989471,-0.21233415603637695,0.3286825716495514
1782814968869467100,3.096467041015625,0.08503168076276779,-0.23310191929340363,0.35294675827026367
1782814968889549000,3.116549072265625,0.05697768181562424,-0.14761924743652344,0.38452598452568054
1782814968909632000,3.136632080078125,0.009966435842216015,-0.02037113346159458,0.3640090525150299
1782814968929714000,3.1567138671875,-0.018340568989515305,0.054817091673612595,0.261604368686676
1782814968949796900,3.176796875,0.0037823421880602837,0.07509898394346237,0.14722242951393127
1782814968969878800,3.196878662109375,0.04007900133728981,0.08361772447824478,0.06864534318447113
1782814968989962000,3.2169619140625,0.04237796738743782,0.07425255328416824,0.013179514557123184
1782814969010044000,3.2370439453125,0.03784499317407608,0.042702894657850266,-0.03339581564068794
1782814969030126800,3.257126953125,0.03457058221101761,-0.009099571965634823,-0.06458652764558792
1782814969050208800,3.277208740234375,0.048358771950006485,-0.13410581648349762,-0.11758285015821457
1782814969070291700,3.297291748046875,0.03164137154817581,-0.2980448305606842,-0.18577100336551666
1782814969090374700,3.317374755859375,-0.03693348914384842,-0.43099233508110046,-0.273113876581192
1782814969110456800,3.337456787109375,-0.10845392197370529,-0.4556024372577667,-0.3551008701324463
1782814969130539800,3.357539794921875,-0.16478799283504486,-0.263202965259552,-0.362390398979187
1782814969150622000,3.3776220703125,-0.1976873278617859,0.005559444893151522,-0.32810908555984497
1782814969170705000,3.397704833984375,-0.18635688722133636,0.26924601197242737,-0.28827324509620667
1782814969190786800,3.417786865234375,-0.12408747524023056,0.4405854642391205,-0.25715842843055725
1782814969210869800,3.437869873046875,-0.0646112784743309,0.4629117548465729,-0.22485584020614624
1782814969230951700,3.45795166015625,-0.02680571936070919,0.3665784001350403,-0.17292118072509766
1782814969251034600,3.47803466796875,-0.012300279922783375,0.20455366373062134,-0.11635226011276245
1782814969271116800,3.49811669921875,0.023236671462655067,0.05557510256767273,-0.0865774154663086
1782814969291199700,3.51819970703125,0.06548523902893066,-0.026503700762987137,-0.11094042658805847
1782814969311281700,3.53828173828125,0.08298918604850769,-0.06048125773668289,-0.18682004511356354
1782814969331364900,3.55836474609375,0.07480192184448242,-0.03635750338435173,-0.24056924879550934
1782814969351446800,3.57844677734375,0.06812457740306854,0.03358149901032448,-0.24368949234485626
1782814969371529700,3.59852978515625,0.07986479997634888,0.08988260477781296,-0.22617587447166443
1782814969391612700,3.61861279296875,0.09051986783742905,0.08031871914863586,-0.21363289654254913
1782814969411694800,3.63869482421875,0.10759022831916809,0.003961560782045126,-0.19004873931407928
1782814969431777800,3.65877783203125,0.12454251945018768,-0.07213026285171509,-0.15597973763942719
1782814969451859700,3.678859619140625,0.1330232173204422,-0.10245171934366226,-0.11724229902029037
1782814969471943000,3.69894287109375,0.14163771271705627,-0.05490262806415558,-0.07679929584264755
1782814969492024800,3.71902490234375,0.14486120641231537,0.029583754017949104,-0.036595575511455536
1782814969512107800,3.739107666015625,0.15744173526763916,0.10416324436664581,-0.005452650133520365
1782814969532190000,3.75918994140625,0.1761355847120285,0.12388873845338821,0.04168187454342842
1782814969552273000,3.77927294921875,0.1979476809501648,0.08351468294858932,0.10880790650844574
1782814969572354800,3.799354736328125,0.2127043753862381,0.006984589155763388,0.167445108294487
1782814969592437800,3.819437744140625,0.2145511507987976,-0.06802717596292496,0.19326047599315643
1782814969612519700,3.839519775390625,0.18845629692077637,-0.09022238850593567,0.18525856733322144
1782814969632602600,3.8596025390625,0.15334518253803253,-0.04795429855585098,0.13361375033855438
1782814969652685800,3.879685791015625,0.11366758495569229,-0.10609418153762817,0.020306747406721115
1782814969672768000,3.89976806640625,0.09245352447032928,-0.11372357606887817,-0.052854984998703
1782814969692851000,3.919850830078125,0.06719918549060822,-0.11469054222106934,-0.05826995149254799
1782814969712932900,3.939932861328125,0.0582466796040535,-0.05644500255584717,-0.013882995583117008
1782814969733015800,3.960015869140625,0.046037301421165466,0.05989934504032135,0.029419751837849617
1782814969753097700,3.98009765625,0.03609178215265274,0.15817730128765106,0.04243526607751846
1782814969773180700,4.0001806640625,0.043689366430044174,0.22711052000522614,0.055807437747716904
1782814969793262800,4.020262939453125,0.0727086216211319,0.25391027331352234,0.1027342826128006
1782814969813345800,4.040345703125,0.12042947858572006,0.2545275092124939,0.18703563511371613
1782814969833427700,4.060427734375,0.16936500370502472,0.19033773243427277,0.26203107833862305
1782814969853511000,4.080510986328125,0.21107780933380127,0.06126384437084198,0.30106619000434875
1782814969873592800,4.1005927734375,0.23774035274982452,-0.04929424077272415,0.30650031566619873
1782814969893675800,4.12067578125,0.2306259423494339,-0.10086660087108612,0.287639856338501
1782814969913757700,4.1407578125,0.1795116513967514,-0.12438851594924927,0.24549312889575958
1782814969933840600,4.160840576171875,0.1026371642947197,-0.08243349194526672,0.191902294754982
1782814969953923600,4.180923583984375,0.040015123784542084,0.019709642976522446,0.17231664061546326
1782814969974005800,4.201005859375,0.004972084425389767,0.10166359692811966,0.15359045565128326
1782814969994089000,4.2210888671875,-0.036221593618392944,0.13881832361221313,0.15832671523094177
1782814970014169900,4.241169921875,-0.09227823466062546,0.14148980379104614,0.19323799014091492
1782814970034252800,4.261252685546875,-0.15154582262039185,0.09151691943407059,0.18112654983997345
1782814970054335000,4.2813349609375,-0.21238765120506287,-0.05104593187570572,0.06300812214612961
1782814970074418000,4.30141796875,-0.293001264333725,-0.19841349124908447,-0.10802378505468369
1782814970094499800,4.321499755859375,-0.3894332945346832,-0.316336452960968,-0.2791425585746765
1782814970114582800,4.341582763671875,-0.451410710811615,-0.30917859077453613,-0.3797905743122101
1782814970134664700,4.361664794921875,-0.43408215045928955,-0.1448645293712616,-0.37925150990486145
1782814970154748000,4.381747802734375,-0.35864490270614624,0.18014338612556458,-0.22492308914661407
1782814970174830000,4.401830078125,-0.27468347549438477,0.38394731283187866,-0.03192528709769249
1782814970194913000,4.4219130859375,-0.2499270737171173,0.3873926103115082,0.047930072993040085
1782814970214995000,4.441994873046875,-0.26243653893470764,0.3179842531681061,0.022326139733195305
1782814970235078000,4.462077880859375,-0.3062436878681183,0.17363187670707703,-0.044582851231098175
1782814970255159800,4.482159912109375,-0.3394123315811157,0.022452624514698982,-0.094650499522686
1782814970275242800,4.50224267578125,-0.3540404140949249,-0.038329340517520905,-0.10084686428308487
1782814970295325000,4.522324951171875,-0.37210819125175476,-0.026391688734292984,-0.08399614691734314
1782814970315408000,4.542407958984375,-0.39759770035743713,0.013903161510825157,-0.07051350921392441
1782814970335490800,4.56249072265625,-0.4405563771724701,0.04949425533413887,-0.08377919346094131
1782814970355573000,4.582572998046875,-0.47835448384284973,0.03997867554426193,-0.1319991797208786
1782814970375656000,4.602656005859375,-0.49767911434173584,0.0050509111024439335,-0.17933328449726105
1782814970395737900,4.62273779296875,-0.5056694149971008,-0.018695492297410965,-0.20006725192070007
1782814970415820800,4.64282080078125,-0.5017997026443481,-0.025500047951936722,-0.18871380388736725
1782814970435902700,4.66290283203125,-0.4693279266357422,0.021428490057587624,-0.16222374141216278
1782814970455985700,4.682985595703125,-0.43097278475761414,0.04901210591197014,-0.12953251600265503
1782814970476067800,4.70306787109375,-0.3931167423725128,0.08844519406557083,-0.076871857047081
1782814970496151000,4.723151123046875,-0.3459516167640686,0.10305715352296829,-0.0159468874335289
1782814970516233000,4.74323291015625,-0.30573585629463196,0.05616597831249237,0.017494868487119675
1782814970536316000,4.76331591796875,-0.26703885197639465,-0.04499645158648491,0.03194347023963928
1782814970556397800,4.783397705078125,-0.24051140248775482,-0.1042165532708168,0.055788133293390274
1782814970576480800,4.803480712890625,-0.21854281425476074,-0.0854807198047638,0.07990485429763794
1782814970596563000,4.82356298828125,-0.20869052410125732,-0.027769936248660088,0.10052797198295593
1782814970616646000,4.84364599609375,-0.2116408348083496,-0.04872673377394676,0.10592091828584671
1782814970636727800,4.863727783203125,-0.23639453947544098,-0.20783904194831848,0.0702156350016594
1782814970656810800,4.883810791015625,-0.2645830512046814,-0.22383306920528412,0.10137826949357986
1782814970676894000,4.90389404296875,-0.2902052700519562,-0.11027109622955322,0.1672409325838089
1782814970696976000,4.923975830078125,-0.30005595088005066,-0.049506776034832,0.1928108036518097
1782814970717058800,4.944058837890625,-0.3270327150821686,-0.08219660818576813,0.13460056483745575
1782814970737141000,4.96414111328125,-0.3891683518886566,-0.06592686474323273,0.023104343563318253
1782814970757224000,4.984223876953125,-0.44176122546195984,-0.003049173392355442,-0.003597463248297572
1782814970777305900,5.004305908203125,-0.44059309363365173,0.05380171164870262,0.06901490688323975
1782814970797388800,5.024388916015625,-0.4144575297832489,0.08968591690063477,0.1674492359161377
1782814970817470700,5.044470703125,-0.42350032925605774,0.029306931421160698,0.22592583298683167
1782814970837554000,5.064553955078125,-0.47136303782463074,-0.12078239768743515,0.22257168591022491
1782814970857636000,5.084635986328125,-0.5397223234176636,-0.2594217360019684,0.17667269706726074
1782814970877719000,5.104718994140625,-0.5960906147956848,-0.23752498626708984,0.11114829033613205
1782814970897801000,5.124801025390625,-0.6269341111183167,-0.04657465219497681,0.09864876419305801
1782814970917884000,5.1448837890625,-0.6611837148666382,0.15293113887310028,0.13869266211986542
1782814970937965800,5.1649658203125,-0.6935465335845947,0.23338763415813446,0.17349986732006073
1782814970958048800,5.185048828125,-0.6895954012870789,0.23782825469970703,0.18782708048820496
1782814970978131000,5.205130859375,-0.6836826205253601,0.15856730937957764,0.1906476616859436
1782814970998214000,5.2252138671875,-0.6868525147438049,0.008965292945504189,0.18343745172023773
1782814971018296600,5.245296630859375,-0.7026386857032776,-0.1731260120868683,0.1779666393995285
1782814971038379500,5.265379638671875,-0.7281655073165894,-0.2717647850513458,0.20769058167934418
1782814971058461400,5.28546142578125,-0.7757676839828491,-0.33941394090652466,0.2060481756925583
1782814971078544400,5.30554443359375,-0.8549798727035522,-0.42757245898246765,0.14215873181819916
1782814971098626300,5.325626220703125,-0.9368435740470886,-0.43338534235954285,0.0737495869398117
1782814971118709200,5.345709228515625,-1.0317989587783813,-0.4050511419773102,0.017217693850398064
1782814971138791400,5.36579150390625,-1.112258791923523,-0.35615041851997375,-0.017997954040765762
1782814971158874400,5.385874267578125,-1.161928653717041,-0.24377265572547913,-0.0024068152997642756
1782814971178956300,5.405956298828125,-1.1740119457244873,-0.12668465077877045,0.0442347526550293
1782814971199039500,5.42603955078125,-1.1700658798217773,-0.08891736716032028,0.08297895640134811
1782814971219122400,5.446122314453125,-1.1799989938735962,-0.08709396421909332,0.08832373470067978
1782814971239204400,5.466204345703125,-1.2232314348220825,-0.09184388816356659,0.026682065799832344
1782814971259287300,5.486287353515625,-1.2704012393951416,-0.04240729287266731,-0.08203200995922089
1782814971279369500,5.506369384765625,-1.2972016334533691,0.029141858220100403,-0.15942896902561188
1782814971299452400,5.526452392578125,-1.322609543800354,0.07660859823226929,-0.1803845465183258
1782814971319534300,5.546534423828125,-1.3165316581726074,0.07358402758836746,-0.14797118306159973
1782814971339617300,5.5666171875,-1.2855377197265625,0.05374925956130028,-0.0673658698797226
1782814971359699200,5.58669921875,-1.266433596611023,-0.02189530059695244,0.01830597035586834
1782814971379782400,5.606782470703125,-1.2573426961898804,-0.1436595618724823,0.08214250952005386
1782814971399864300,5.6268642578125,-1.2830054759979248,-0.2450970709323883,0.1098184585571289
1782814971419947300,5.646947265625,-1.3426185846328735,-0.32301953434944153,0.0893218070268631
1782814971440030500,5.667030517578125,-1.3882875442504883,-0.35073721408843994,0.041625455021858215
1782814971460112400,5.6871123046875,-1.4428521394729614,-0.38232672214508057,0.015074824914336205
1782814971480195300,5.7071953125,-1.5114662647247314,-0.4058864414691925,-0.004130955785512924
1782814971500277200,5.72727734375,-1.5781282186508179,-0.39467161893844604,-0.03617367148399353
1782814971520360400,5.7473603515625,-1.6178836822509766,-0.393219918012619,-0.06399252265691757
1782814971540442400,5.7674423828125,-1.6400784254074097,-0.43887636065483093,-0.07018676400184631
1782814971560525300,5.787525390625,-1.6373603343963623,-0.474054753780365,-0.09470011293888092
1782814971580607500,5.807607421875,-1.6782292127609253,-0.450009822845459,-0.12628091871738434
1782814971600690400,5.8276904296875,-1.7771574258804321,-0.4042508006095886,-0.1272382289171219
1782814971620772400,5.8477724609375,-1.8840532302856445,-0.37685686349868774,-0.10381084680557251
1782814971640855300,5.867855224609375,-1.9356271028518677,-0.3803209364414215,-0.07813476771116257
1782814971660937200,5.887937255859375,-1.9426532983779907,-0.4049232304096222,-0.04949057474732399
1782814971681020200,5.908020263671875,-1.9621987342834473,-0.46547189354896545,-0.02342037484049797
1782814971701103400,5.928103271484375,-1.9836620092391968,-0.4358614385128021,0.0003081429749727249
1782814971721185500,5.948185546875,-2.003605842590332,-0.4595893621444702,-0.02219950035214424
1782814971741268500,5.9682685546875,-2.007786273956299,-0.350501149892807,-0.02694600261747837
1782814971761350400,5.988350341796875,-1.9742391109466553,-0.13745500147342682,0.03845425695180893
1782814971781433300,6.008433349609375,-1.936461329460144,-0.11384495347738266,0.10591132193803787
1782814971801515300,6.028515380859375,-1.8938252925872803,-0.2084219604730606,0.13227024674415588
1782814971821598200,6.04859814453125,-1.8755394220352173,-0.30408379435539246,0.10685427486896515
1782814971841680400,6.068680419921875,-1.9080396890640259,-0.3827989995479584,0.028482723981142044
1782814971861763600,6.088763671875,-1.9628448486328125,-0.38213250041007996,-0.06948980689048767
1782814971881845500,6.108845458984375,-1.96552574634552,-0.2585676312446594,-0.14799784123897552
1782814971901928400,6.128928466796875,-1.909225583076477,-0.044758252799510956,-0.15373358130455017
1782814971922010400,6.14901025390625,-1.794379472732544,0.170047327876091,-0.031098704785108566
1782814971942093300,6.16909326171875,-1.6833782196044922,0.2605249881744385,0.1622070074081421
1782814971962175500,6.189175537109375,-1.6144875288009644,0.2044844925403595,0.30579647421836853
1782814971982258400,6.209258544921875,-1.5558481216430664,0.13413521647453308,0.3538094162940979
1782814972002340400,6.22934033203125,-1.518326997756958,0.06307937949895859,0.3572985827922821
1782814972022423300,6.24942333984375,-1.4834266901016235,-0.03703560680150986,0.31373265385627747
1782814972042505200,6.269505126953125,-1.4755825996398926,-0.13457556068897247,0.24271652102470398
1782814972062588200,6.289588134765625,-1.512040376663208,-0.19435210525989532,0.16104896366596222
1782814972082670300,6.30967041015625,-1.5396336317062378,-0.15569433569908142,0.10813426226377487
1782814972102753300,6.329753173828125,-1.5268243551254272,-0.1033008024096489,0.11095396429300308
1782814972122836200,6.349836181640625,-1.5102626085281372,-0.1001981645822525,0.1639474332332611
1782814972142918400,6.36991845703125,-1.5048439502716064,-0.1548881232738495,0.23866784572601318
1782814972163001300,6.39000146484375,-1.506852626800537,-0.2459135353565216,0.2950260639190674
1782814972183083300,6.410083251953125,-1.4899214506149292,-0.30625224113464355,0.3178395926952362
1782814972203166200,6.430166259765625,-1.464174747467041,-0.361405611038208,0.29582610726356506
1782814972223248100,6.450248046875,-1.4407649040222168,-0.38468408584594727,0.28220945596694946
1782814972243331000,6.4703310546875,-1.4472754001617432,-0.3498874306678772,0.2535693049430847
1782814972263413200,6.490413330078125,-1.4720115661621094,-0.31675589084625244,0.2224574089050293
1782814972283496400,6.510496337890625,-1.4905465841293335,-0.28863903880119324,0.20478573441505432
1782814972303578400,6.530578369140625,-1.5053279399871826,-0.2604616582393646,0.19990859925746918
1782814972323661300,6.550661376953125,-1.5361149311065674,-0.24703530967235565,0.20615188777446747
1782814972343743200,6.5707431640625,-1.617604374885559,-0.35745397210121155,0.22387193143367767
1782814972363826200,6.590826171875,-1.679673671722412,-0.5333942770957947,0.3024527430534363
1782814972383908400,6.610908447265625,-1.6072361469268799,-0.6021760702133179,0.42258527874946594
1782814972403991300,6.6309912109375,-1.5200130939483643,-0.6730102300643921,0.3912976086139679
1782814972424073200,6.6510732421875,-1.5618929862976074,-0.516514241695404,0.250082790851593
1782814972444156200,6.67115625,-1.5662899017333984,-0.2793866991996765,0.09854494780302048
1782814972464238000,6.691238037109375,-1.5014533996582031,-0.22862611711025238,-0.028793063014745712
1782814972484321300,6.7113212890625,-1.4479448795318604,-0.3714863359928131,-0.09106365591287613
1782814972504403500,6.731403564453125,-1.4075160026550293,-0.5512495636940002,-0.10880625247955322
1782814972524486400,6.751486328125,-1.365373134613037,-0.6295676827430725,-0.11540451645851135
1782814972544568300,6.771568359375,-1.2992074489593506,-0.509498119354248,-0.08531354367733002
1782814972564651300,6.7916513671875,-1.212687373161316,-0.26274728775024414,-0.04865528643131256
1782814972584733200,6.811733154296875,-1.1092538833618164,-0.06668998301029205,-0.062254875898361206
1782814972604816100,6.831816162109375,-1.0055369138717651,-0.012610887177288532,-0.15365584194660187
1782814972624898300,6.851898193359375,-0.9239083528518677,-0.021724199876189232,-0.2691837549209595
1782814972644981500,6.8719814453125,-0.8676583170890808,-0.007191769313067198,-0.3434138298034668
1782814972665063400,6.8920634765625,-0.7968733310699463,0.019545381888747215,-0.342060923576355
1782814972685146400,6.912146484375,-0.7319237589836121,0.028776856139302254,-0.23684434592723846
1782814972705229300,6.932229248046875,-0.6764308214187622,0.02119886502623558,-0.11939682811498642
1782814972725311200,6.952311279296875,-0.6088218688964844,0.004270921461284161,-0.043524984270334244
1782814972745394200,6.972394287109375,-0.5275772213935852,-0.06424777209758759,0.0037113779690116644
1782814972765476400,6.992476318359375,-0.42107170820236206,-0.2282049059867859,0.07539044320583344
1782814972785559300,7.012559326171875,-0.3349950313568115,-0.2900371253490448,0.17535652220249176
1782814972805641200,7.03264111328125,-0.2579139471054077,-0.1958489716053009,0.2558732032775879
1782814972825724400,7.052724365234375,-0.2035416215658188,-0.08106717467308044,0.27832114696502686
1782814972845806300,7.072806396484375,-0.1899443417787552,-0.05535295233130455,0.22831697762012482
1782814972865889300,7.09288916015625,-0.18604935705661774,-0.09686646610498428,0.17197805643081665
1782814972885971200,7.11297119140625,-0.18379217386245728,-0.01794871687889099,0.16288131475448608
1782814972906054100,7.13305419921875,-0.18823236227035522,0.13344977796077728,0.16956093907356262
1782814972926136300,7.15313623046875,-0.17025208473205566,0.2521321475505829,0.1838415265083313
1782814972946219300,7.17321923828125,-0.13353432714939117,0.21665233373641968,0.1946706771850586
1782814972966301200,7.19330126953125,-0.09876403212547302,0.07883419096469879,0.18014082312583923
1782814972986384400,7.21338427734375,-0.07574953138828278,-0.014893817715346813,0.13411788642406464
1782814973006466300,7.23346630859375,-0.06026224046945572,-0.12246540188789368,0.06291405856609344
1782814973026550000,7.253550048828125,-0.05688221752643585,-0.2442312389612198,0.05842447280883789
1782814973046632000,7.2736318359375,-0.07742448896169662,-0.2478182017803192,0.11983326077461243
1782814973066715100,7.293715087890625,-0.1052522137761116,-0.14208075404167175,0.17428117990493774
1782814973086797300,7.31379736328125,-0.1291438192129135,-0.06283397972583771,0.16452300548553467
1782814973106880300,7.33388037109375,-0.15048277378082275,-0.10982555896043777,0.1251082420349121
1782814973126962200,7.353962158203125,-0.21916842460632324,-0.25927868485450745,0.13341832160949707
1782814973147045000,7.374045166015625,-0.29324302077293396,-0.40570157766342163,0.10885708034038544
1782814973167127000,7.394126953125,-0.2796623408794403,-0.41846367716789246,0.01875694841146469
1782814973187210000,7.4142099609375,-0.1872541904449463,-0.28795087337493896,-0.10607870668172836
1782814973207292200,7.434292236328125,-0.0912633091211319,-0.21325843036174774,-0.16718003153800964
1782814973227375400,7.454375244140625,-0.09930732846260071,-0.19401870667934418,-0.13229645788669586
1782814973247457300,7.474457275390625,-0.15509578585624695,-0.16725905239582062,-0.039265088737010956
1782814973267540200,7.494540283203125,-0.2100938856601715,-0.09431298077106476,0.0694245770573616
1782814973287622100,7.5146220703125,-0.25355085730552673,-0.015093114227056503,0.10432082414627075
1782814973307705000,7.534705078125,-0.26192301511764526,0.05992286652326584,0.06525909900665283
1782814973327787300,7.554787353515625,-0.2719813287258148,0.15202957391738892,0.016903860494494438
1782814973347870200,7.5748701171875,-0.2839997410774231,0.21990032494068146,0.010898716747760773
1782814973367952100,7.5949521484375,-0.31002432107925415,0.2749437689781189,0.04917364940047264
1782814973388035000,7.61503515625,-0.34189870953559875,0.3193587362766266,0.09731573611497879
1782814973408117000,7.635116943359375,-0.3640342056751251,0.31163132190704346,0.12338326126337051
1782814973428200200,7.6552001953125,-0.378103107213974,0.26810988783836365,0.11241156607866287
1782814973448282400,7.675282470703125,-0.3948040008544922,0.2077440619468689,0.07021994143724442
1782814973468365300,7.695365234375,-0.4382771849632263,0.11195521056652069,0.025128625333309174
1782814973488447200,7.715447265625,-0.4883827865123749,0.0010299906134605408,0.009220064617693424
1782814973508530200,7.7355302734375,-0.5278178453445435,-0.04080154001712799,-0.023593652993440628
1782814973528612000,7.755612060546875,-0.5307959318161011,-0.06996858865022659,-0.10121002793312073
1782814973548695000,7.775695068359375,-0.5076274275779724,-0.1334742158651352,-0.2023347169160843
1782814973568777000,7.79577685546875,-0.49023696780204773,-0.13261960446834564,-0.26280298829078674
1782814973588860200,7.815860107421875,-0.4863576591014862,-0.07293945550918579,-0.27572134137153625
1782814973608942300,7.8359423828125,-0.47809284925460815,-0.04719434306025505,-0.2599014937877655
1782814973629025300,7.856025390625,-0.45443034172058105,-0.023151475936174393,-0.1936081498861313
1782814973649107200,7.876107177734375,-0.40528300404548645,0.027339665219187737,-0.09414450079202652
1782814973669190100,7.896190185546875,-0.3531690239906311,0.06875582784414291,0.0015718669164925814
1782814973689272000,7.91627197265625,-0.320950448513031,-0.006507943384349346,0.032807037234306335
1782814973709355000,7.93635498046875,-0.3019348680973053,-0.11229018121957779,0.01051419973373413
1782814973729437200,7.956437255859375,-0.2776467204093933,-0.17319004237651825,-0.007542925421148539
1782814973749520100,7.97652001953125,-0.2723951041698456,-0.11396224796772003,0.0006234054453670979
1782814973769602000,7.99660205078125,-0.2805677056312561,-0.11741805821657181,-0.017293132841587067
1782814973789685200,8.016685302734375,-0.2812193036079407,-0.16893832385540009,-0.06118561327457428
1782814973809767200,8.03676708984375,-0.27847257256507874,-0.2046695351600647,-0.07964606583118439
1782814973829850000,8.05685009765625,-0.269879549741745,-0.22391028702259064,-0.06110651046037674
1782814973849932300,8.076932373046875,-0.26021918654441833,-0.13889247179031372,-0.030652446672320366
1782814973870015200,8.09701513671875,-0.24299880862236023,-0.03564801812171936,-0.007725838106125593
1782814973890097200,8.11709716796875,-0.2257186770439148,0.06359962373971939,0.02001422829926014
1782814973910180000,8.13718017578125,-0.20298025012016296,-0.09783396869897842,0.009766979143023491
1782814973930262000,8.157261962890624,-0.15407851338386536,-0.22845448553562164,-0.010618031024932861
1782814973950345000,8.177344970703125,-0.08366625756025314,-0.023327937349677086,0.015636570751667023
1782814973970427400,8.197427490234375,-0.04890724644064903,0.13414312899112701,0.06850145757198334
1782814973990510300,8.21751025390625,-0.028308827430009842,0.03750527277588844,0.08310566842556
1782814974010591500,8.237591552734376,0.01643432304263115,-0.05824073776602745,0.06531888991594315
1782814974030674400,8.25767431640625,0.0672854334115982,-0.06647154688835144,0.020557746291160583
1782814974050756400,8.27775634765625,0.1178385391831398,0.017167113721370697,-0.008635621517896652
1782814974070839300,8.29783935546875,0.14682865142822266,0.16054224967956543,0.03510075435042381
1782814974090921500,8.31792138671875,0.1506003588438034,0.1798589825630188,0.11674085259437561
1782814974111004400,8.33800439453125,0.1660984754562378,0.08726523816585541,0.16831067204475403
1782814974131086300,8.35808642578125,0.1913263350725174,0.015886936336755753,0.1517089456319809
1782814974151169300,8.378169189453125,0.2240501046180725,0.013323193415999413,0.11052152514457703
1782814974171251200,8.398251220703125,0.23723159730434418,0.0419611856341362,0.08865370601415634
1782814974191334400,8.41833447265625,0.21368013322353363,0.056930962949991226,0.09169322997331619
1782814974211416600,8.43841650390625,0.17013052105903625,0.05108492448925972,0.09225240349769592
1782814974231499500,8.45849951171875,0.11211739480495453,0.02068445459008217,0.06144971027970314
1782814974251581400,8.47858154296875,0.07330064475536346,-0.010431434027850628,0.006015788298100233
1782814974271664400,8.498664306640626,0.05122344195842743,-0.012492481619119644,-0.029613779857754707
1782814974291746300,8.518746337890626,0.0511312372982502,0.03947899118065834,-0.024646669626235962
1782814974311829200,8.538829345703125,0.009625541977584362,0.09609035402536392,0.02271229214966297
1782814974331911400,8.558911376953125,-0.05535564199090004,0.07304416596889496,0.10270765423774719
1782814974351994600,8.57899462890625,-0.10398972779512405,-0.002897408325225115,0.168108269572258
1782814974372076500,8.59907666015625,-0.16859936714172363,-0.14170728623867035,0.141296848654747
1782814974392159500,8.619159423828124,-0.25994738936424255,-0.27409929037094116,-0.00449744425714016
1782814974412241400,8.639241455078125,-0.36993393301963806,-0.34297752380371094,-0.22187405824661255
1782814974432324400,8.659324462890625,-0.4354267716407776,-0.25998032093048096,-0.4110286235809326
1782814974452406500,8.679406494140625,-0.43506792187690735,-0.008406981825828552,-0.49605393409729004
1782814974472489500,8.699489501953124,-0.37736740708351135,0.21450774371623993,-0.4479769170284271
1782814974492571400,8.7195712890625,-0.3194529414176941,0.23192806541919708,-0.28155407309532166
1782814974512654300,8.739654296875,-0.2903801500797272,0.08006586134433746,-0.07682828605175018
1782814974532736300,8.759736328125,-0.2917367219924927,-0.12891140580177307,0.06991119682788849
1782814974552819500,8.7798193359375,-0.288911372423172,-0.21953584253787994,0.0998762845993042
1782814974572901400,8.7999013671875,-0.28183841705322266,-0.20960329473018646,-0.011064514517784119
1782814974592984300,8.819984375,-0.2835632264614105,-0.16078703105449677,-0.18458271026611328
1782814974613066500,8.84006640625,-0.2884460985660553,-0.1048310324549675,-0.29592517018318176
1782814974633149400,8.8601494140625,-0.275197297334671,-0.0011711737606674433,-0.2908874750137329
1782814974653231400,8.8802314453125,-0.24036794900894165,0.10561719536781311,-0.2298637181520462
1782814974673314300,8.900314208984375,-0.1786736398935318,0.14369411766529083,-0.15703020989894867
1782814974693396200,8.920396240234375,-0.13892477750778198,0.15634889900684357,-0.07585113495588303
1782814974713479400,8.9404794921875,-0.08532150089740753,0.13865359127521515,-0.02077963575720787
1782814974733561600,8.9605615234375,-0.0005049372557550669,0.10178907215595245,0.004564198199659586
1782814974753644500,8.98064453125,0.08057554066181183,0.06084151193499565,0.0021245572715997696
1782814974773726500,9.0007265625,0.13507422804832458,0.009705014526844025,-0.0017558252438902855
1782814974793809400,9.020809326171875,0.1765405535697937,-0.06500560790300369,-0.015800179913640022
1782814974813891300,9.040891357421875,0.21508431434631348,-0.05488181859254837,-0.03052457422018051
1782814974833974300,9.060974365234374,0.23757807910442352,-0.15252013504505157,-0.06866304576396942
1782814974854056400,9.081056396484374,0.2746375799179077,-0.17173923552036285,-0.08432118594646454
1782814974874139400,9.101139404296875,0.3141048848628998,0.0479794517159462,-0.029078396037220955
1782814974894221300,9.12122119140625,0.3532005846500397,0.1432519257068634,0.07321544736623764
1782814974914304500,9.141304443359376,0.4047918915748596,0.04523925855755806,0.17243333160877228
1782814974934387500,9.161387451171874,0.4901939332485199,-0.07978165149688721,0.2289784699678421
1782814974954469400,9.181469482421875,0.526332676410675,-0.08620450645685196,0.2952156662940979
1782814974974552300,9.20155224609375,0.4797377288341522,0.10544229298830032,0.42506057024002075
1782814974994634500,9.221634521484376,0.4201585054397583,0.30725032091140747,0.5306830406188965
1782814975014717000,9.241717041015624,0.3919243812561035,0.26821526885032654,0.5165615677833557
1782814975034798800,9.261798828125,0.39077138900756836,0.1224072203040123,0.42437073588371277
1782814975054881800,9.2818818359375,0.40382951498031616,-0.0022810741793364286,0.32941144704818726
1782814975074963700,9.301963623046875,0.4117080867290497,-0.0034040980972349644,0.2722819447517395
1782814975095063800,9.322063720703126,0.38946953415870667,0.0449429526925087,0.2551809251308441
1782814975115128800,9.34212890625,0.34101536870002747,0.07402828335762024,0.23390567302703857
1782814975135210800,9.362210693359375,0.2599155306816101,0.0033060326240956783,0.1916140913963318
1782814975155294000,9.3822939453125,0.2107379138469696,-0.03927287086844444,0.11006876826286316
1782814975175376000,9.4023759765625,0.2134791612625122,-0.04942924901843071,0.008763941936194897
1782814975195458800,9.422458740234376,0.24260199069976807,-0.07431378960609436,-0.0457700751721859
1782814975215541000,9.442541015625,0.25149163603782654,-0.15220080316066742,-0.020119119435548782
1782814975235624000,9.4626240234375,0.21529746055603027,-0.28461214900016785,0.01769404299557209
1782814975255705900,9.482705810546875,0.16824139654636383,-0.3885959982872009,-0.012211567722260952
1782814975275788800,9.502788818359376,0.12284238636493683,-0.4464542865753174,-0.11954554170370102
1782814975295870700,9.52287060546875,0.07352274656295776,-0.4586518704891205,-0.2622995376586914
1782814975315954000,9.542953857421875,0.04233266040682793,-0.3051394522190094,-0.3502325117588043
1782814975336035800,9.563035888671875,0.012172895483672619,-0.015629060566425323,-0.3116864562034607
1782814975356119000,9.583119140625,-0.022336700931191444,0.33058664202690125,-0.1699906438589096
1782814975376201000,9.603200927734376,-0.028329817578196526,0.5150418281555176,-0.044194143265485764
1782814975396284000,9.623283935546874,0.0042435117065906525,0.4611997604370117,0.003395793493837118
1782814975416365800,9.64336572265625,0.02658713422715664,0.30749937891960144,-0.013016926124691963
1782814975436448800,9.66344873046875,0.04029427841305733,0.134199857711792,-0.0690530464053154
1782814975456531700,9.68353173828125,0.04435787349939346,-0.034122686833143234,-0.10852108150720596
1782814975476613600,9.703613525390624,0.016693903133273125,-0.17521120607852936,-0.132159024477005
1782814975496696800,9.72369677734375,-0.03798164427280426,-0.2331186980009079,-0.14774008095264435
1782814975516779800,9.74377978515625,-0.08406034111976624,-0.17033696174621582,-0.1742585152387619
1782814975536862000,9.763862060546876,-0.12357425689697266,-0.05198061838746071,-0.21351486444473267
1782814975556945000,9.78394482421875,-0.15046939253807068,0.06224992498755455,-0.24761036038398743
1782814975577026800,9.80402685546875,-0.16342848539352417,0.09438586235046387,-0.25877806544303894
1782814975597109800,9.82410986328125,-0.16836503148078918,0.044224586337804794,-0.20835883915424347
1782814975617191700,9.844191650390625,-0.17059537768363953,0.031061232089996338,-0.09812132269144058
1782814975637275000,9.86427490234375,-0.15722332894802094,0.04485611990094185,0.0030360622331500053
1782814975657357000,9.884357177734374,-0.1206527054309845,0.045096784830093384,0.0523209273815155
1782814975677440000,9.90443994140625,-0.09566158801317215,0.023261312395334244,0.08392639458179474
1782814975697522000,9.92452197265625,-0.09461808949708939,-0.010687602683901787,0.10507117956876755
1782814975717604900,9.94460498046875,-0.09348222613334656,-0.008548234589397907,0.13031914830207825
1782814975737686800,9.964686767578126,-0.10343818366527557,0.026654232293367386,0.16124233603477478
1782814975757769700,9.984769775390625,-0.10508940368890762,0.018113357946276665,0.1676563322544098
1782814975777852000,10.004851806640625,-0.11609642207622528,-0.01699358969926834,0.17690175771713257
1782814975797934800,10.024934814453125,-0.12006476521492004,-0.07047232985496521,0.16993370652198792
1782814975818016800,10.045016845703126,-0.12070854753255844,-0.09883251041173935,0.14805719256401062
1782814975838100000,10.065099853515624,-0.1351725310087204,-0.23438426852226257,0.06343714892864227
1782814975858182000,10.085181884765625,-0.15389566123485565,-0.38653409481048584,-0.05949264019727707
1782814975878264800,10.105264892578125,-0.1700502634048462,-0.3668276071548462,-0.173623725771904
1782814975898347000,10.125346923828126,-0.1719299852848053,-0.23732353746891022,-0.2601572275161743
1782814975918430000,10.145429931640624,-0.12656773626804352,0.01938592828810215,-0.23936967551708221
1782814975938512000,10.165511962890625,-0.05741338059306145,0.3313484489917755,-0.056043583899736404
1782814975958594800,10.1855947265625,0.0284589771181345,0.441219687461853,0.21154865622520447
1782814975978677800,10.205677734375,0.11286120861768723,0.46401435136795044,0.4976654648780823
1782814975998760000,10.225760009765626,0.16850201785564423,0.295755535364151,0.7137249708175659
1782814976018843400,10.245843505859375,0.22429707646369934,-0.11519278585910797,0.6909362077713013
1782814976038925300,10.26592529296875,0.24460004270076752,-0.25545862317085266,0.5200891494750977
1782814976059008500,10.286008544921875,0.2079712599515915,-0.19664514064788818,0.294389545917511
1782814976079090700,10.306090576171876,0.1252734214067459,-0.21057884395122528,0.051951438188552856
