time,seconds_elapsed,z,y,x
1782814928220785000,0.057784912109375,-0.3513356496244669,0.31039807455837726,-0.49933732274547216
1782814928240869000,0.077869140625,0.24817922653257846,0.3782388541191816,-0.43784726391825823
1782814928260952000,0.0979521484375,0.7944079181820154,0.41507103969305753,-0.04925057231597602
1782814928281035000,0.118034912109375,0.9890507848381995,0.4367249453574419,-0.08352068884950131
1782814928301118000,0.138117919921875,0.7880074034899472,0.3726362118065357,-0.28736992139872164
1782814928321201200,0.158201171875,0.3969008844912052,0.3414990230038762,-0.3471372115539387
1782814928341284000,0.1782841796875,-0.18389818527996538,0.5952724162817001,-0.1931375401271507
1782814928361367000,0.198366943359375,-0.40983050869107246,0.5967915886729955,-0.13874452688880265
1782814928381450000,0.218449951171875,-0.2886351555615663,0.43548838929980993,-0.3009828151550144
1782814928401533000,0.238532958984375,0.10210837534368038,0.41490123608410356,-0.26915698650106784
1782814928421617200,0.2586171875,0.237680044350028,0.35749446451514955,-0.17269330251347273
1782814928441700000,0.2787001953125,-0.04871346976459026,0.30447365294545886,-0.27866854588575657
1782814928461783000,0.298782958984375,-0.31441900063753125,0.26969313920438287,-0.36802301892265676
1782814928481866200,0.3188662109375,-0.3840437410056591,0.3797437057241797,-0.32895584083832796
1782814928501949200,0.33894921875,-0.3060492316991091,0.4545575391680002,-0.0668253371742554
1782814928522032000,0.3590322265625,0.02537234166562557,0.5295063971683382,0.06783920865822583
1782814928542115000,0.379114990234375,0.3036883477866649,0.6188342013940215,-0.007699139667861163
1782814928562198000,0.399197998046875,-0.0580880318313837,0.7774982844352721,-0.13167787643820048
1782814928582281200,0.41928125,-0.5258955131947994,0.6513599219456314,-0.21679628280792385
1782814928602364200,0.4393642578125,-0.23044658596515655,0.48534722970724103,-0.23306670533567667
1782814928622447900,0.45944775390625,0.9034627516627312,0.05318973839581012,-0.37863822870030994
1782814928642530800,0.47953076171875,2.540105922606587,-0.5320733250468969,-0.2533843939602375
1782814928662614000,0.499614013671875,3.2928292467474933,-0.9764254042819142,0.030623686322569846
1782814928682697000,0.519697021484375,2.227136536255479,-0.736677321486175,0.3081835403140634
1782814928702780000,0.53977978515625,0.9950830507397651,-0.7383592832237481,0.5408196722127497
1782814928722862800,0.55986279296875,0.3668184654384851,-0.5341998156815767,0.6388920700386166
1782814928742945800,0.57994580078125,0.13884440706670284,-0.698041885882616,0.8366513151496648
1782814928763029000,0.600029052734375,0.2847404862105846,-0.975986574473232,1.3716376050338148
1782814928783112000,0.62011181640625,0.07083645424544811,-1.295319504506886,1.6347909672059118
1782814928803195000,0.64019482421875,-0.14964987871944904,-1.0902328391171991,0.6616378625929356
1782814928823278800,0.66027880859375,-0.0947872386753559,-1.0309075205758214,-0.06361176368892192
1782814928843362000,0.680362060546875,-0.5912216795861721,-0.9038878452070057,-0.304356894697994
1782814928863445000,0.700445068359375,-0.7438637258589267,-1.0202136926040053,-0.14446736151501535
1782814928883528000,0.72052783203125,-0.7195014380186796,-1.2502267094574868,-0.32047917745932936
1782814928903611000,0.74061083984375,-0.7646165910303592,-1.4076001681663095,-0.5728901963427663
1782814928923693800,0.76069384765625,-0.7434937235027551,-1.2909075332835316,-0.6896324425209314
1782814928943777000,0.780777099609375,-1.1590724204570055,-0.9113216484695672,-0.7136324729200452
1782814928963860000,0.80085986328125,-1.569859791481495,-0.5824607193730771,-0.6416035209544002
1782814928983942400,0.8209423828125,-1.4570868142604827,-0.48001375972479576,-0.5507123398695141
1782814929004025300,0.841025390625,-1.2690537211328745,-0.4679217553928494,-0.5632039379782975
1782814929024109600,0.861109619140625,-1.394466984218359,-0.2793383349061012,-0.6600998393706977
1782814929044192500,0.881192626953125,-1.5981845532119274,0.14926467879414557,-0.552522458031401
1782814929064275500,0.901275390625,-1.7495552643746137,0.6545085221696645,-0.41227731732130046
1782814929084358400,0.9213583984375,-1.4256617484271525,0.9321510860085487,-0.3432096993792802
1782814929104441300,0.94144140625,-0.7443997324317694,0.9608062487371265,-0.3214333363790065
1782814929124524500,0.961524658203125,0.15607435880899428,0.9480693706303834,-0.211365562996082
1782814929144607500,0.981607421875,0.7292161918252706,0.9579556816115975,-0.07479048910085112
1782814929164690400,1.0016904296875,1.01756610070467,0.9176758398018777,-0.024183789468184114
1782814929184773400,1.0217734375,1.261441492563486,0.8127339945979416,0.013983151840791106
1782814929204856300,1.041856201171875,1.6314087774217128,0.8880538778677582,0.3809971763839945
1782814929224939500,1.061939453125,1.9751585019618272,1.196050736503303,0.7525784357775003
1782814929245023500,1.0820234375,1.8083499831706284,1.4743006916508077,0.9036931263525039
1782814929265106400,1.1021064453125,1.5635715049922465,1.3273805301561952,0.8455570175956935
1782814929285189400,1.122189453125,1.1037211201131343,0.9481286996021866,0.9846152866087853
1782814929305272600,1.1422724609375,0.37770635467767716,0.6068037179909647,1.1958381897311656
1782814929325355500,1.16235546875,0.20005553935468195,0.3876423500195145,1.060090798831731
1782814929345438500,1.1824384765625,0.09981354240477085,0.628152649359405,0.8548250505480914
1782814929365521400,1.202521484375,-0.6397913569658994,0.4455540023706853,0.8758483301587402
1782814929385604600,1.2226044921875,-1.2663964846223592,0.42745720466598863,0.7035442096259444
1782814929405687600,1.2426875,-1.4678613062530754,0.4584318963833153,0.6400789417356252
1782814929425770500,1.2627705078125,-1.0290180535674094,0.47386268974915147,0.7099368332725018
1782814929445853400,1.282853515625,-0.3862602480113506,0.3319390213675797,0.7649870317779481
1782814929465937700,1.302937744140625,0.12123977679312228,0.1916509913638234,0.6682479283824563
1782814929486020600,1.3230205078125,0.5056681332021952,0.1076470125094056,0.6170230603188276
1782814929506103600,1.343103515625,0.6826391495674848,-0.10083440988510846,0.6968567677512765
1782814929526186500,1.3631865234375,0.7981026810467243,-0.34851430859342214,0.7402311415102333
1782814929546269400,1.38326953125,0.54902036819458,-0.48750309256687757,0.6473137883599848
1782814929566352600,1.4033525390625,0.04603460594415664,-0.5286037492401897,0.36771285699494183
1782814929586435600,1.423435546875,-0.37719548254609103,-0.6140108728908003,0.2047652879482135
1782814929606518500,1.4435185546875,-0.6917278804302215,-0.6465427309222519,0.11498104519192129
1782814929626601500,1.4636015625,-0.7730757918179034,-0.7235282093167305,-0.12539744446184486
1782814929646684400,1.483684326171875,-0.5337018030315638,-0.8745026146382093,-0.3114299748893827
1782814929666767600,1.503767578125,-0.11912965277135372,-1.076389314942807,-0.23950926907118408
1782814929686851600,1.5238515625,0.014493804776668548,-1.1457207714527844,-0.07514945860635489
1782814929706934500,1.5439345703125,-0.2317114913344383,-0.9522514786206185,-0.14507573920432476
1782814929727017500,1.564017578125,-0.6816822872340679,-0.834781283494085,-0.14526377258971332
1782814929747100700,1.5841005859375,-1.023343515062332,-0.6855711113661527,-0.258188743768353
1782814929767183600,1.60418359375,-0.9325374549776315,-0.5320714253507555,-0.1634072589803487
1782814929787266600,1.6242666015625,-0.9850701907694339,-0.5407179654039442,-0.1468122076081112
1782814929807349500,1.644349609375,-0.96141049824059,-0.31935470347404477,-0.21789193255752323
1782814929827432400,1.664432373046875,-0.9060229575395583,-0.148291303717345,-0.09068393154237418
1782814929847515600,1.684515625,-0.8267717261701821,0.03316489523798227,-0.3268196325272322
1782814929867598600,1.7045986328125,-0.8608125274598598,0.09685001642405987,-0.4788985284918919
1782814929887681500,1.724681640625,-0.7210434067636727,0.26325273089334367,-0.3194818004524335
1782814929907764500,1.744764404296875,-0.2079746419161558,0.5589699536703526,0.10358168103294446
1782814929927848700,1.7648486328125,0.3253460528433323,0.8268740175008773,0.5051876927414909
1782814929947931600,1.784931640625,0.7856541183620691,0.9805135503783822,0.7824061494167893
1782814929968014600,1.8050146484375,1.0679553947269915,1.0439036341406405,0.8733545405816286
1782814929988097800,1.825097900390625,1.1190677423268556,1.0347215259060263,0.8489047936536371
1782814930008180700,1.8451806640625,0.8803951798081397,1.0896126613922417,0.7840485097963362
1782814930028263700,1.865263671875,0.7153180148541927,1.1844203583337365,0.6978815076891333
1782814930048346600,1.8853466796875,0.7106991228818893,1.1548664931997656,0.6586945026174187
1782814930068429800,1.905429931640625,0.7438233938485384,0.9525890400119126,0.6147915018744766
1782814930088512800,1.9255126953125,0.585751723742485,0.7910835960648953,0.4633058590952307
1782814930108595700,1.945595703125,0.18033084818720815,0.7292552086614071,0.39135870366152375
1782814930128678700,1.9656787109375,-0.2713818229436874,0.8192991983324289,0.34336288064699616
1782814930148762600,1.9857626953125,-0.5560112499952315,0.9539641277574002,0.4615553256334737
1782814930168845600,2.005845458984375,-0.6042950961709023,1.0474576733604073,0.7168171673707664
1782814930188928500,2.025928466796875,-0.40217385645806786,0.9604597733870148,0.9194482563018799
1782814930209011500,2.046011474609375,0.04144318650066852,0.7439451205320656,1.0069227608110756
1782814930229094700,2.0660947265625,0.5430892245799303,0.4702766479559242,1.0403732680574058
1782814930249177600,2.086177490234375,0.8852332674890756,0.2560311090767383,1.053613711772114
1782814930269260500,2.106260498046875,0.9928425783365964,0.166543145853281,1.1375083850331604
1782814930289343500,2.126343505859375,0.9546867429435253,0.21228256824314592,1.2848182764977216
1782814930309426400,2.146426513671875,0.6425386098474264,0.2310511277295649,1.2128558869622648
1782814930329509600,2.166509521484375,0.13142507072091103,0.25426556070894,1.0700910185161978
1782814930349592600,2.186592529296875,-0.47261049773097036,0.3978785704169422,0.9359048855841159
1782814930369675500,2.206675537109375,-0.6864473096787929,0.5631815800160169,0.8747622154224663
1782814930389759500,2.226759521484375,-0.6950275064975023,0.5165800609041005,0.7221375586759299
1782814930409842700,2.2468427734375,-0.7454729146212339,0.398064594508335,0.4649768610473722
1782814930429925600,2.266925537109375,-0.8378624445050954,0.3074301646634936,0.22521657635718584
1782814930450008600,2.287008544921875,-0.7797106997877359,0.22290654584914443,0.09766659350395201
1782814930470091500,2.307091552734375,-0.4965238727599382,0.05159538187645375,-0.12564911766797304
1782814930490174500,2.327174560546875,-0.2565086634606123,-0.17834763848073779,-0.3588602729756385
1782814930510257700,2.347257568359375,-0.10819967795610427,-0.30263072849251327,-0.5512085258886218
1782814930530340600,2.367340576171875,-0.03657996437847614,-0.3594306202095002,-0.5645299258850515
1782814930550423600,2.387423583984375,-0.0922346315830946,-0.373659052048251,-0.6133498516988009
1782814930570506500,2.407506591796875,-0.12074117962121962,-0.41978959264755245,-0.8080814195517451
1782814930590589400,2.42758935546875,-0.08475859661400317,-0.5438002223934978,-0.9856376884590834
1782814930610672600,2.447672607421875,-0.05265197825729847,-0.5945759584501386,-1.1290289451751858
1782814930630755600,2.467755615234375,-0.16622750403285025,-0.5273990496255457,-1.1477253892734647
1782814930650839600,2.487839599609375,-0.2397761398464441,-0.387181235313788,-1.0813134004067628
1782814930670922500,2.507922607421875,-0.23193302513062952,-0.38687209629938,-1.153900716907531
1782814930691005700,2.528005615234375,-0.2454448331326246,-0.41922530982829626,-1.2068242055825888
1782814930711088600,2.548088623046875,-0.20442542500197886,-0.38641098159365356,-1.266988313035667
1782814930731171600,2.568171630859375,-0.09388824400901793,-0.34795988958105445,-1.2064760497320444
1782814930751254500,2.588254638671875,0.00317278481721878,-0.4453552649281919,-1.0758917406842112
1782814930771337700,2.608337646484375,0.3159182992845774,-0.565799945820868,-1.0932034524258225
1782814930791420700,2.628420654296875,0.08905190989375114,-0.5594922239787876,-1.0587659799687563
1782814930811503600,2.648503662109375,-0.4318839350670576,-0.38873613660559053,-0.9108835493132471
1782814930831586600,2.668586669921875,-0.5925228253126144,-0.220652629442513,-0.7148484245810657
1782814930851669500,2.68866943359375,-0.34403087956905365,-0.13478987097889183,-0.521633252640441
1782814930871752700,2.708752685546875,0.09241407980322837,-0.01475771640986204,-0.3589189443603158
1782814930891835600,2.728835693359375,0.040814825469255446,0.1549538303464651,-0.2712061741158366
1782814930911919600,2.748919677734375,-0.4251151715844869,0.48464185791686176,-0.1691037170562893
1782814930932002600,2.76900244140625,-0.7923977474033832,0.8480661508724093,0.07313757079467177
1782814930952085800,2.789085693359375,-0.818198543614149,1.0864353465303778,0.2739006738968193
1782814930972169200,2.809169189453125,-0.47403614661991594,1.0913368548363447,0.24625322690606116
1782814930992252200,2.829252197265625,0.07337444829046726,0.9316054348245263,0.1252614335246384
1782814931012335000,2.849335205078125,0.2339133852928877,0.797124922055751,0.13046338608190416
1782814931032418000,2.86941796875,0.18990005604326723,1.0159344078496098,0.0418453375607729
1782814931052501000,2.8895009765625,0.1930564742475748,1.1584164407663047,-0.05602912654019892
1782814931072584200,2.909584228515625,0.518889433825016,1.0264693919979035,-0.10235303428713231
1782814931092667100,2.929667236328125,0.947861280837655,0.7803060353323816,0.13396609697323292
1782814931112750000,2.94975,1.3108499588549136,0.567696719352901,0.30857882324196395
1782814931132833000,2.9698330078125,1.4506243402481078,0.21412425058707593,0.3420446011226624
1782814931152916000,2.989916015625,1.374324944421649,-0.06812894885241985,0.19715517827067522
1782814931173000200,3.010000244140625,0.8769190281301736,-0.26314386369138953,-0.040241007636673744
1782814931193083100,3.030083251953125,0.11887655479311943,-0.18388488740697503,-0.18314236194398253
1782814931213166000,3.050166015625,-0.7741817072331905,-0.0257708394639194,0.07182415010854601
1782814931233249000,3.0702490234375,-1.3615677541792393,0.08822364237606525,0.31666290710680184
1782814931253332200,3.090332275390625,-1.5795663619816303,0.317703721396625,0.3703798477144912
1782814931273415200,3.110415283203125,-1.4904314499795437,0.47829000467211,0.23140927525116128
1782814931293498000,3.130498046875,-1.0695663370549677,0.42274084366858006,0.16596940108593553
1782814931313581000,3.1505810546875,-0.39407939732968805,0.2706013400904834,0.17367950053922832
1782814931333664000,3.1706640625,0.32275486730635167,0.08948460222259164,0.2872986279944889
1782814931353747200,3.190747314453125,0.8926678014039993,-0.14103709480538965,0.3334663040000945
1782814931373830100,3.210830078125,1.2825930016636848,-0.24894261212050914,0.4354018800601363
1782814931393913000,3.2309130859375,1.4247726906329392,-0.4024953434973955,0.5120210458928719
1782814931413996000,3.25099609375,1.421183141708374,-0.5826962816946208,0.4349570954347029
1782814931434079000,3.271078857421875,1.2285825945347546,-0.7997288209438324,0.29986659754142164
1782814931454163200,3.2911630859375,0.962887585055828,-0.9583953882031142,0.216598787474446
1782814931474246100,3.31124609375,0.4522691359698772,-0.924168270561099,0.13875935913175344
1782814931494329000,3.3313291015625,-0.05411795915663242,-0.8140203811466693,0.10850766619304195
1782814931514412300,3.351412353515625,-0.39371757827997206,-0.8870245348200202,0.013240078388527034
1782814931534495200,3.3714951171875,-0.5723913069099188,-0.9849759366147219,-0.17167367714215068
1782814931554578200,3.391578125,-0.6242237854778766,-1.0874607440553605,-0.2614696103362366
1782814931574661000,3.4116611328125,-0.6268740077257156,-1.0682247131876648,-0.2148977191776037
1782814931594744000,3.431744140625,-0.6959124726384878,-0.91166154794842,-0.09144987441357225
1782814931614827300,3.4518271484375,-0.6331593716055155,-0.8439566697269678,-0.03442272012921749
1782814931634910200,3.47191015625,-0.4652759170591831,-0.7787617284998297,-0.05057649172407109
1782814931654993200,3.4919931640625,-0.4229787440776825,-0.8186775593027472,-0.08304767364342697
1782814931675076000,3.512076171875,-0.5724339770078659,-0.9159148214787244,-0.06293561799302697
1782814931695159000,3.532158935546875,-0.4697551082998514,-1.0067255577385426,-0.10979015288478694
1782814931715242200,3.5522421875,-0.8967103547930717,-1.0391697374865412,-0.1889284345321357
1782814931735325200,3.5723251953125,-1.5524147356837987,-1.0388096720024942,-0.09434382402310147
1782814931755409000,3.592408935546875,-1.6887638188034295,-0.9609894963495432,-0.05598029156294651
1782814931775491800,3.612491943359375,-1.5255740750312805,-0.7550294091261923,0.08761852522292174
1782814931795575000,3.632574951171875,-1.6216478463858366,-0.3527456625528633,0.11133447798364796
1782814931815658000,3.652657958984375,-2.1674626965373753,0.1263974518172443,0.14360050641945563
1782814931835741000,3.672740966796875,-2.2175673283994195,0.5663840293191373,0.13002961604082955
1782814931855824000,3.692823974609375,-1.3848942692309618,0.9317539033845067,0.16310146270049736
1782814931875907000,3.712906982421875,-0.17714520388841629,1.0432631442800164,0.17922544422857462
1782814931895990000,3.732989990234375,0.9529916294634342,0.9036983139842748,0.2946641335275024
1782814931916073000,3.753072998046875,1.8001982408970594,0.6889813582010567,0.052358584801293906
1782814931936156200,3.77315625,2.1615701313674447,0.35226357812434433,-0.4144376371603459
1782814931956239000,3.793239013671875,1.845177200308442,0.15113456431925296,-0.6833813462369144
1782814931976321500,3.813321533203125,1.1567138746321202,0.44097646532207724,-1.0397537479195744
1782814931996404500,3.833404541015625,0.3439455393731594,0.692098175047338,-1.2401064435899256
1782814932016487700,3.85348779296875,-0.14337971240878106,1.0024554792039095,-1.1681436887282877
1782814932036570600,3.873570556640625,-0.3249707897901535,1.2906985667079687,-1.0688380958456545
1782814932056654300,3.893654296875,-0.5670452697068452,1.5019970923498271,-0.8847351817738264
1782814932076737300,3.9137373046875,-0.8241518990606069,1.8170343710161745,-0.6810390208944678
1782814932096820500,3.933820556640625,-0.7750093902289867,2.0018739287994802,-0.4543137935400009
1782814932116903400,3.9539033203125,-0.4269564155369997,2.0293143089108168,-0.2472122446639463
1782814932136986400,3.973986328125,0.1065337905704975,1.887955873196572,-0.16031722054313868
1782814932157069600,3.994069580078125,0.5422691403687,1.628516709242016,-0.1473934780947864
1782814932177152500,4.014152587890625,0.9606330841273069,1.3877375298328696,-0.15374094742536543
1782814932197235700,4.034235595703125,1.425329155471921,1.1187038774505258,-0.14806604359410702
1782814932217318700,4.054318603515625,1.7577508457899094,0.7375481129713356,-0.10010565721914172
1782814932237401600,4.074401611328125,1.8559855945706367,0.33350422485768794,0.015676804016157984
1782814932257484500,4.094484619140625,1.6570874085575342,-0.0216392926171422,0.10822795420251786
1782814932277567500,4.1145673828125,1.3688310231804848,-0.29156697122976183,0.04407075852528214
1782814932297650700,4.134650634765625,1.1578402483135461,-0.616167174141854,-0.12435264811664819
1782814932317733600,4.154733642578125,1.0360755708634852,-0.8966957417458296,-0.1154698881547898
1782814932337816600,4.174816650390625,0.7051169388353824,-1.0772481237292288,0.12631897975355386
1782814932357899500,4.1948994140625,0.28545711004734037,-0.8865073790781199,0.3589055734220892
1782814932377983500,4.2149833984375,0.11415712505578994,-0.8334468200199305,0.39914530241712926
1782814932398066400,4.23506640625,0.07258242112994194,-0.9996526967428624,0.30180560277998447
1782814932418149400,4.2551494140625,0.0879559313505888,-1.1495794927075504,0.10228596040029078
1782814932438232300,4.275232421875,-0.21570552842915056,-1.231352497639507,-0.03814330470506102
1782814932458315500,4.2953154296875,-0.7761638209611177,-1.1245673626564443,-0.05945522853136062
1782814932478398500,4.3153984375,-1.2055705522596836,-1.0111169245652853,-0.11392748101837932
1782814932498481400,4.3354814453125,-1.3479121537923813,-1.0095895688675343,-0.3034688232844695
1782814932518564400,4.355564453125,-1.318548112142086,-1.0096620495818556,-0.33922022788431494
1782814932538647300,4.375647216796875,-1.1215496222704648,-0.9172313109047711,-0.25930472391992804
1782814932558730500,4.39573046875,-0.9557236847758293,-0.6655021368056535,-0.022101320638321337
1782814932578813400,4.4158134765625,-0.9810217921614647,-0.3703348029963672,0.14297957064267247
1782814932598896400,4.435896484375,-0.9910568639636039,-0.08278335101827979,0.14622531109824777
1782814932618979300,4.455979248046875,-1.3624918832868338,0.16050605764612555,0.06676500355545431
1782814932639062500,4.4760625,-1.813539368507266,0.5307246869169175,0.05738302536718547
1782814932659145500,4.4961455078125,-1.9339245742976665,0.9504165182784199,0.18168419902492314
1782814932679228700,4.516228759765625,-1.3736749560803174,1.1136303735785185,0.17527703539635986
1782814932699312400,4.5363125,-0.5758376479715108,0.9643937518350779,0.15518272546520456
1782814932719395300,4.556395263671875,-0.025807810473442078,0.9010027912899852,-0.05546027714367956
1782814932739478500,4.576478515625,0.31231063018143174,0.9584177461653948,-0.10889567912993953
1782814932759561500,4.5965615234375,0.49373745691180226,1.1920812483504415,-0.0737588444981724
1782814932779644400,4.61664453125,0.4853793784111738,1.3935159671038388,0.052749666478112335
1782814932799727400,4.636727294921875,0.5873100591003895,1.5163696088343859,0.12796196118760853
1782814932819810300,4.656810302734375,0.9445622392922639,1.5269273893363773,0.21279276452129706
1782814932839893500,4.6768935546875,1.3515817822158336,1.435325064307451,0.349911973496899
1782814932859976400,4.6969765625,1.691901532307267,1.2799950941249727,0.4041691584611311
1782814932880059400,4.717059326171875,1.7738602690696714,1.1431482906162738,0.3588743745662272
1782814932900142300,4.737142333984375,1.3434937528282402,1.1274524165734647,0.15104304097774437
1782814932920225500,4.7572255859375,0.7094429853409528,1.0982521871827542,-0.16451386851537972
1782814932940308500,4.77730859375,-0.05712357071340084,0.9214007055439054,-0.41584425255525853
1782814932960391400,4.797391357421875,-0.7030781264841556,0.7449855694957077,-0.5652620030192658
1782814932980474000,4.81747412109375,-0.8170476200133562,0.6532559648253023,-0.5808376116832717
1782814933000557800,4.837557861328125,-0.30083295835554597,0.4746573472581804,-0.4321700950646773
1782814933020641000,4.85764111328125,0.32217969776690003,0.12876900325417517,-0.35618582960199563
1782814933040724000,4.877723876953125,0.7712871548354625,-0.2471582129217684,-0.3726760323602706
1782814933060807000,4.897806884765625,1.0448223564207553,-0.5253399251386522,-0.3615774229798466
1782814933080889900,4.917889892578125,0.9322223976790904,-0.7232853404715657,-0.18411054938901214
1782814933100972800,4.937972900390625,0.672922057673335,-0.8233403634820133,-0.1695998665427789
1782814933121056000,4.958055908203125,0.46407881622910496,-0.9483991140414029,-0.14789412109330297
1782814933141139000,4.978138916015625,0.17450141138136385,-1.0236171443719417,-0.11802090607816353
1782814933161222000,4.998221923828125,-0.22569968369901178,-0.9808091723240911,-0.18668050947487352
1782814933181304800,5.018304931640625,-0.6285773045122623,-0.9304781843602656,-0.18402937391158192
1782814933201388000,5.038387939453125,-1.1825959193855524,-1.0042861286971718,-0.010484477803763001
1782814933221471000,5.058470947265625,-1.670534334629774,-1.0790824995495378,0.03970287303882651
1782814933241554000,5.078553955078125,-1.7705775941371917,-1.1825073643192647,0.04087408137582242
1782814933261636900,5.098636962890625,-1.289358842536807,-1.3128982696868479,0.15569997253865003
1782814933281719800,5.1187197265625,-0.7359650815635919,-1.4631414381243288,0.24489216768592595
1782814933301803000,5.138802978515625,-0.4024456591367721,-1.6124669071950017,0.18136687670405954
1782814933321886000,5.158885986328125,-0.3919125746846199,-1.799318535453081,-0.033333292341139166
1782814933341970000,5.178969970703125,-0.49828153008222575,-1.728032583874464,-0.22052414422463623
1782814933362052900,5.199052978515625,-0.463843838429451,-1.5145229580543935,-0.1300054314476438
1782814933382136000,5.219135986328125,-0.46645957388579845,-1.307863636520505,0.05373590560306329
1782814933402219000,5.239218994140625,-0.4439321002572775,-1.1920136630069464,0.3183789903096855
1782814933422302000,5.259302001953125,-0.35771921318173405,-0.8753865578658878,0.36353622889742254
1782814933442385000,5.279385009765625,-0.7818775224328041,-0.4996517955221235,0.5096285977983847
1782814933462467800,5.2994677734375,-1.3389169464319943,-0.004416647398471832,0.4886766298582777
1782814933482550000,5.319550048828125,-1.6338257754355667,0.28686982638947667,0.4503764540910721
1782814933502633200,5.33963330078125,-1.9375217220067977,0.7806289836764335,0.36056795367635786
1782814933522717000,5.359717041015625,-1.5542863747745752,1.1148978362310678,0.5028270645573735
1782814933542800000,5.3797998046875,-0.4227770840257406,1.329020844709128,0.6705969757266342
1782814933562882800,5.3998828125,0.9743208332180976,1.217058160957694,0.7924878368396312
1782814933582966000,5.419966064453125,2.0827485235869885,1.054174122133851,0.8231571889348328
1782814933603049000,5.440049072265625,2.264682130795717,0.8550451961047947,0.7142731819763779
1782814933623132000,5.4601318359375,1.6333382841795683,0.8205994672760367,0.29414610100276767
1782814933643214800,5.48021484375,0.8767553620010614,0.9039809303179382,0.12930688212369568
1782814933663297800,5.5002978515625,0.27955577704906465,1.0638101116158067,0.21154420749861746
1782814933683381000,5.520381103515625,-0.14622633401155471,1.2899363501638172,0.25349645776627583
1782814933703464000,5.5404638671875,-0.29364509267807004,1.4030265766404568,0.2887374103596434
1782814933723547000,5.560546875,-0.1902285573452711,1.3285014970101416,0.2675254763090983
1782814933743629800,5.5806298828125,-0.09386252504587173,1.140781269223988,0.1425845525762532
1782814933763713000,5.600713134765625,-0.10809271045029163,0.9829800866223871,-0.19165055297240613
1782814933783796000,5.6207958984375,-0.10760638823807239,0.7792595950193703,-0.4966601028928533
1782814933803879000,5.64087890625,-0.07942366532683372,0.5988455985933542,-0.6744564276337623
1782814933823961900,5.6609619140625,0.12568915741741657,0.48782297217100856,-0.740687506975606
1782814933844046000,5.681046142578125,0.24488076950907706,0.3988340445108711,-0.8070837137512862
1782814933864129000,5.70112890625,-0.05602466956079006,0.3636231765285134,-1.0373507053658366
1782814933884212000,5.7212119140625,-0.7070803478628397,0.3163279029987752,-1.1887707355629653
1782814933904295000,5.741294921875,-1.2608283291012048,0.42231487334147094,-1.0794355507709086
1782814933924377900,5.7613779296875,-1.3275970955163239,0.5612016582451761,-0.8086497209589928
1782814933944461000,5.7814609375,-0.6904922011554241,0.4844445817790925,-0.6172975664112716
1782814933964544000,5.8015439453125,0.184904147452116,0.12189853296279907,-0.5755817735143005
1782814933984627500,5.82162744140625,0.9895125571310519,-0.2601901284523308,-0.6942953197654337
1782814934004710400,5.84171044921875,1.6380191354721783,-0.6100292559087276,-0.7827857963841408
1782814934024794600,5.861794677734375,1.6849387075573206,-0.6894149273127317,-0.6934453518725932
1782814934044877600,5.881877685546875,1.1062252118885516,-0.6164680567845702,-0.6136734576299786
1782814934064960500,5.90196044921875,0.4527192178249359,-0.3903953019894659,-0.7172370732832699
1782814934085043500,5.92204345703125,0.2049994254976511,-0.3403993911989033,-0.6050439052442088
1782814934105126700,5.942126708984375,0.06479249790608882,-0.28751608840376136,-0.3313879633560777
1782814934125209600,5.962209716796875,-0.23598843800127506,-0.25160525545850393,-0.1472888852091506
1782814934145292500,5.98229248046875,-0.5585176798582077,-0.2535425801966339,-0.10393475052062422
1782814934165375500,6.00237548828125,-0.6807540664732455,-0.2563926358655095,-0.01589775329045951
1782814934185458700,6.022458740234375,-0.379649889960885,-0.27900559582039713,0.16657931314520538
1782814934205541600,6.042541748046875,0.0640881490290165,-0.4574338252566755,0.36026086048856376
1782814934225624600,6.06262451171875,0.36897944286465645,-0.6341777548678219,0.3620513971671462
1782814934245707500,6.08270751953125,0.5605746123880148,-0.7165034983117133,0.35408443687595426
1782814934265790500,6.10279052734375,0.5788333226561546,-0.73781509334445,0.3664619070857763
1782814934285873700,6.122873779296875,0.5336579638898372,-0.7285283556915819,0.21590050301197916
1782814934305956600,6.14295654296875,0.5507172352403402,-0.6058610303133726,-0.04523717195615172
1782814934326039600,6.16303955078125,0.6655015522837638,-0.6523281824558973,-0.060266234386991704
1782814934346122500,6.18312255859375,0.3387041315883398,-0.7557391648307442,-0.15166315477062015
1782814934366206700,6.203206787109375,-0.36967970008850093,-0.6000684183865785,-0.2542828406373039
1782814934386289700,6.22328955078125,-0.8132575800806283,-0.46011502716466784,-0.35026560924015937
1782814934406372600,6.24337255859375,-1.1121522638499737,-0.49522024281546473,-0.37866526283770796
1782814934426455600,6.26345556640625,-1.5911369727879763,-0.5514722913913428,-0.5537473236512392
1782814934446538500,6.28353857421875,-1.8919827906250952,-0.17105682388544083,-0.8113407866738737
1782814934466621700,6.30362158203125,-2.206779392403364,0.3469698556303978,-0.7194914280813187
1782814934486704600,6.32370458984375,-2.0580290928721428,0.8497821610100567,-0.514349342709966
1782814934506787600,6.34378759765625,-1.3843518329173325,1.066872860187292,-0.37870227037984877
1782814934526870500,6.36387060546875,-0.4652507826179266,1.0518826501958072,-0.5439795610157773
1782814934546953500,6.383953369140625,0.42499359103143214,0.9842625276483595,-0.6879796338126063
1782814934567036700,6.40403662109375,0.9747644853323697,0.9094963327385485,-0.7457697056107223
1782814934587119600,6.42411962890625,0.9867939458221197,0.850398831603676,-0.8351759819000959
1782814934607202600,6.44420263671875,0.6311164676010609,0.9292629633516073,-0.9108259739071131
1782814934627285500,6.464285400390625,0.183270408770442,1.1547190475530922,-0.9423978277999907
1782814934647368400,6.484368408203125,-0.017688801425695417,1.2527521362818776,-0.8531564597487449
1782814934667451600,6.50445166015625,-0.058335284590721126,1.2528459520451725,-0.7016045468002557
1782814934687534600,6.52453466796875,-0.09973229386210442,1.2146410168133674,-0.548075269364193
1782814934707618600,6.54461865234375,-0.11501111153662204,1.1261205834478138,-0.6100677978208289
1782814934727701800,6.56470166015625,-0.10519757353067398,0.9809221311792731,-0.6532656825017183
1782814934747784700,6.58478466796875,0.0019575638085603713,0.9245495249636471,-0.6664212244119495
1782814934767867600,6.60486767578125,-0.045348377245664595,0.8840257913954556,-0.6216804576706141
1782814934787950600,6.62495068359375,0.023576690420508382,0.8993782588280737,-0.5837699753407388
1782814934808033500,6.645033447265625,0.059790744096040724,0.7503896204963326,-0.5220545833250507
1782814934828116700,6.66511669921875,-0.00868833336830139,0.6139326930880546,-0.5881645205052569
1782814934848199700,6.68519970703125,-0.34526129814684386,0.5909897705264389,-0.6130544489488006
1782814934868282600,6.70528271484375,-0.8662316298991442,0.7037799911431968,-0.46980555984545497
1782814934888365600,6.725365478515625,-0.9007739509701729,0.9264680719360708,-0.21043527814233676
1782814934908448500,6.745448486328125,-0.5347229627728461,0.9591675416193902,0.03199930379102006
1782814934928531700,6.76553173828125,-0.2753261766552925,0.6820787392057478,0.24247628391692413
1782814934948614700,6.78561474609375,-0.2876221791267395,0.5060869431361555,0.2817253761731088
1782814934968697600,6.805697509765625,-0.23439795393943785,0.4039310753889382,0.1138525069528725
1782814934988780800,6.82578076171875,-0.0740174223691225,0.29581819893345235,-0.05719353981022723
1782814935008863700,6.84586376953125,0.12130816585421561,0.2261027115419507,-0.014622424708574543
1782814935028946700,6.86594677734375,0.12866905001103876,0.28023908313810825,0.16909701332086696
1782814935049030000,6.88602978515625,0.0011105915904045104,0.3721811615154147,0.2814877314923331
1782814935069112800,6.90611279296875,-0.09370821126699447,0.38461730310991404,0.09695354073061607
1782814935089196800,6.92619677734375,-0.03725976333618164,0.2548050744131207,-0.15031506462991237
1782814935109279700,6.94627978515625,0.1232914486259222,0.11905176522955298,-0.2048824663207866
1782814935129363000,6.966363037109375,0.31698037555813785,0.05761734557971358,-0.016755059672961942
1782814935149446000,6.98644580078125,0.36413375639915463,0.1357151691302657,0.09361081530712545
1782814935169528800,7.00652880859375,0.2869026326805353,0.11271437890157103,0.07776629004124551
1782814935189611800,7.02661181640625,0.05443126288950443,-0.017691139513254163,0.054425171075435354
1782814935209695000,7.046695068359375,-0.1600830099284649,-0.0582689413562417,0.05856810696590691
1782814935229778000,7.06677783203125,-0.26615269011855125,-0.03524184764251113,0.16384981511607766
1782814935249860900,7.08686083984375,-0.14723054261803625,0.021864041283726692,0.2331121519125998
1782814935269943800,7.10694384765625,-0.07319383102655411,0.016143763940781354,0.37478652170822024
1782814935290026800,7.12702685546875,-0.20377134500741959,0.0053336161129176616,0.45812443786934015
1782814935310110000,7.14710986328125,-0.25195289985239505,-0.04887406715378165,0.4873376728720963
1782814935330193000,7.16719287109375,0.20309856031239032,-0.1820505115866661,0.40788609662503
1782814935350275800,7.18727587890625,0.4661386713683605,-0.2402262217015028,0.3843563871514052
1782814935370358800,7.20735888671875,0.2568541158974171,-0.12049684947133063,0.5287785943504423
1782814935390441700,7.227441650390625,-0.10408581289649009,0.1702357167609036,0.5843461312608793
1782814935410525000,7.24752490234375,-0.3969353712826967,0.5225723601214587,0.744368752771616
1782814935430608000,7.26760791015625,-0.5279506921589374,0.7272555592767894,0.8291863860964774
1782814935450690800,7.28769091796875,-0.422739090102911,0.7088305525310337,0.8467190471123903
1782814935470773800,7.307773681640625,-0.34011633647382256,0.6045506783671677,0.7469304930184036
1782814935490856700,7.327856689453125,-0.5248807831943035,0.60646732564345,0.5514552306586876
1782814935510940700,7.347940673828125,-0.6966583225697278,0.7291144850164651,0.37564284627661104
1782814935531023600,7.368023681640625,-0.4963689744591713,0.6984804234303533,0.2588000623334199
1782814935551106800,7.38810693359375,-0.0056254386663436885,0.5863517354622483,0.19408760739360004
1782814935571189800,7.408189697265625,0.35537235779464244,0.46869040167778725,0.13415383809767661
1782814935591272700,7.428272705078125,0.4135574202597141,0.37461847166493534,0.17312734654918313
1782814935611356000,7.44835595703125,0.3290279562264681,0.4234298488460481,0.03490483424048871
1782814935631438800,7.46843896484375,0.37629356527030466,0.436125079768151,-0.05977382949385791
1782814935651521800,7.488521728515625,0.4464034588068723,0.4953861009016633,-0.030922559671290217
1782814935671605000,7.50860498046875,0.3179863377302885,0.6273316883653401,0.14142693437319248
1782814935691688000,7.52868798828125,0.08417875089943408,0.7316220839232206,0.2112178616210818
1782814935711771000,7.54877099609375,-0.011418050593137741,0.6164169111192226,0.12480061107985675
1782814935731853800,7.568853759765625,0.11354396159350871,0.42784035876467824,-0.11470416447930037
1782814935751936800,7.588936767578125,0.3552952009052038,0.318535496045649,-0.2191235932443291
1782814935772020000,7.60902001953125,0.4824070846021175,0.2669436943657696,-0.12843261090666055
1782814935792103000,7.62910302734375,0.19528642525672912,0.26563085820153354,-0.2130729149032384
1782814935812185900,7.649185791015625,-0.2066846021056175,0.3025220804862678,-0.27772534675151106
1782814935832268800,7.669268798828125,-0.4206973551422357,0.44089331708326934,-0.3036815527196973
1782814935852351700,7.689351806640625,-0.3651975862383842,0.42518999038636685,-0.2259096731878817
1782814935872435000,7.70943505859375,-0.1963625300556421,0.6232135855220258,-0.5349565523330122
1782814935892518000,7.729517822265625,0.029565701702237126,0.5224738681830465,-0.6649032210644334
1782814935912600800,7.749600830078125,0.07749649665653705,0.14319149636030196,-0.7215568361785263
1782814935932683800,7.769683837890625,0.5258458288341761,0.00017827917635440825,-0.8082698547959327
1782814935952766700,7.7897666015625,0.5731973625957966,-0.17019626153334974,-0.6729786832313984
1782814935972850000,7.809849853515625,-0.022104279780387877,-0.1627079516045749,-0.8197272875513881
1782814935992933600,7.82993359375,-0.536537903240323,0.12919950362592936,-0.9734682349767535
1782814936013016600,7.8500166015625,-0.4935749598264694,0.2562657946154475,-0.8041213568143546
1782814936033099500,7.870099609375,-0.37520050933659077,0.2685819630920887,-0.6607824148073792
1782814936053183200,7.890183349609375,-0.5589040488272905,0.21562501053884625,-0.7351533998545259
1782814936073266400,7.910266357421875,-0.6166331842184066,0.2147977659344673,-0.859402076140046
1782814936093349400,7.930349365234375,-0.6035217737108469,0.215470696759969,-0.7756012186422944
1782814936113432300,7.950432373046875,-0.5383393997043371,0.1621300055861473,-0.7242751552265138
1782814936133515300,7.970515380859375,-0.4787479775726795,0.09583382511883974,-0.6219520411536097
1782814936153598200,7.99059814453125,-0.48811260276734825,0.08378127601444721,-0.5198058910828084
1782814936173681400,8.010681396484374,-0.24864859760999677,0.0785911600254476,-0.514272076222673
1782814936193764400,8.030764404296875,0.13936638511419294,0.0710895522236824,-0.39704043909236786
1782814936213847300,8.050847412109375,0.3821300163388252,0.06445259842723608,-0.2844637516284361
1782814936233930200,8.07093017578125,0.44274785890877244,-0.0003282090410590172,-0.24412074492201208
1782814936254013400,8.091013427734374,0.40687107436358927,0.006059007778018713,-0.2201815413320437
1782814936274096400,8.111096435546875,0.3314613208532333,0.06816255886107683,-0.11826244148276746
1782814936294179300,8.131179443359375,0.3916284970462322,0.0914225845478475,-0.04014372127465903
1782814936314262300,8.15126220703125,0.4384714967638254,0.06790230048969388,-0.0001635565312579274
1782814936334345200,8.17134521484375,0.48353813445866106,0.05434373073652386,0.008316833174787461
1782814936354428400,8.191428466796875,0.4440174404531717,0.0014877543397247791,-0.02484320322498679
1782814936374511400,8.211511474609376,0.17771394368708132,-0.021619565003365277,-0.13179459815304725
1782814936394594300,8.23159423828125,-0.047427521607279775,-0.021282588133960962,-0.23448044459111989
1782814936414677500,8.251677490234375,0.05696867241263389,-0.023646394655853508,-0.2517946405507624
1782814936434760400,8.271760498046875,-0.0034060090512037277,-0.018002543549984693,-0.19419252907279877
1782814936454843600,8.29184375,-0.5526438193887472,0.06989712756872177,-0.2619101206453517
1782814936474926600,8.311926513671875,-1.0686983220487833,0.14112097369655965,-0.3992718879388645
1782814936495009500,8.332009521484375,-1.3599059584468602,0.3126053753443062,-0.409479284100607
1782814936515092500,8.352092529296876,-1.3374977272838353,0.5015994224585593,-0.3407042924296111
1782814936535175400,8.372175537109374,-1.1234838052034377,0.5842264138713479,-0.29845687687397
1782814936555258600,8.392258544921875,-0.7848901482522487,0.5899019752897322,-0.3285855096885934
1782814936575341600,8.412341552734375,-0.4206850801825523,0.49622050589919087,-0.4698497277807444
1782814936595424500,8.432424560546876,-0.0674473963290453,0.48356692216172814,-0.5002656896367669
1782814936615507500,8.452507568359374,0.1661246281802654,0.5033813374392688,-0.49775750620812176
1782814936635590400,8.47259033203125,0.409454661116004,0.6251594588927925,-0.6027124300893396
1782814936655674400,8.49267431640625,0.5786643958300351,0.6332502647593617,-0.6936108446326107
1782814936675757300,8.51275732421875,0.4803665186852216,0.6125036831982433,-0.7031906469479203
1782814936695840300,8.53284033203125,0.3513911792039871,0.6784003429539501,-0.7385710262782871
1782814936715923200,8.552923095703125,0.34837037007808686,0.8215064991183578,-0.6481403753772378
1782814936736006400,8.57300634765625,0.4481652077823877,0.8991517565958201,-0.5493137251179665
1782814936756089300,8.59308935546875,0.37804479285180564,0.8000476776346563,-0.4304962070357054
1782814936776172300,8.61317236328125,0.11858663193583488,0.7066257359631359,-0.3822882025752216
1782814936796255200,8.633255126953125,0.04857084642350673,0.6119141928724944,-0.35943186231851576
1782814936816338400,8.65333837890625,0.06768588126003741,0.5336114943996072,-0.27071349522806704
1782814936836421400,8.67342138671875,-0.03257891204357147,0.5925733864560723,-0.18807145237661896
1782814936856504300,8.69350439453125,-0.1861637921243906,0.7042119528196752,-0.21220826089791953
1782814936876587300,8.713587158203126,-0.2522287941843271,0.6012599662587046,-0.1964029351312667
1782814936896670500,8.73367041015625,-0.30941666230559345,0.48558878337815403,-0.012979746951907872
1782814936916753400,8.75375341796875,-0.3506488364040851,0.5223910122051835,0.04112045735232532
1782814936936836600,8.773836669921875,-0.3051695262551308,0.6922920901842415,0.037071035831049086
1782814936956919600,8.79391943359375,-0.004633505019545555,0.7933274294689298,-0.030886246248893436
1782814936977001200,8.814001220703124,0.3285463101893663,0.8531389240920543,-0.016417539380863308
1782814936997084200,8.834084228515625,0.36720366536378857,0.7912713737219571,0.11974550138106568
1782814937017167400,8.85416748046875,0.2874444844722748,0.713652858120948,0.23276629761699585
1782814937037250300,8.874250244140624,0.40440205390155315,0.5866016185700893,0.3941099385984242
1782814937057333200,8.894333251953125,0.3998468748152256,0.31019290737509725,0.49904060482122004
1782814937077416200,8.914416259765625,0.27083763306438924,0.15503376371487973,0.5203949064845219
1782814937097499400,8.93449951171875,0.10847791037559508,0.08795739265531301,0.48545781394224613
1782814937117582300,8.954582275390624,-0.18777941062748432,-0.13094137885719537,0.6564349601875991
1782814937137665300,8.974665283203125,-0.3008540011435747,-0.2087178614988923,0.7048919709730893
1782814937157748200,8.994748291015625,-0.4114765223324299,-0.2573748518358916,0.700801632919535
1782814937177831200,9.0148310546875,-0.5132487975895405,-0.25748795682154596,0.6876470408573746
1782814937197914400,9.034914306640625,-0.6070797584533691,-0.3248312351889908,0.7078481904301792
1782814937217997300,9.054997314453125,-0.5552355894476175,-0.40427470119483766,0.6662871497035027
1782814937238080300,9.075080322265626,-0.3790180217981338,-0.6056165540330112,0.6643443450726568
1782814937258163200,9.0951630859375,-0.20341186404526232,-0.7652326771020889,0.61740095372051
1782814937278246100,9.11524609375,-0.2191162136554718,-0.7950346717782318,0.595847366625443
1782814937298329300,9.135329345703125,-0.16886194418966768,-0.8015917652714997,0.6513457472898065
1782814937318412300,9.155412353515626,-0.1458779589653015,-0.8838923742741346,0.6053625062067062
1782814937338495200,9.1754951171875,-0.3420809145450592,-0.9393590446259826,0.4585243969723582
1782814937358578200,9.195578125,-0.6147492701679468,-0.872005098734051,0.3237166980758309
1782814937378661000,9.2156611328125,-0.6347685603678226,-0.8597966284155845,0.31225736562423406
1782814937398744300,9.235744384765624,-0.5782184056282043,-0.8749556191027164,0.3454302980381995
1782814937418827300,9.2558271484375,-0.40491117246747016,-0.9195263630393892,0.2871813034914434
1782814937438910200,9.27591015625,-0.41018297539055343,-0.9891698081079869,0.08442030457034706
1782814937458993200,9.2959931640625,-0.5274047487139701,-0.9939634721253067,-0.14385175036732106
1782814937479076000,9.316076171875,-0.5151964245259761,-0.9203974467854946,-0.24335147758256642
1782814937499786200,9.3367861328125,-0.19923662418723107,-0.926042540000379,-0.32034064577147364
1782814937519869400,9.356869384765625,0.16694997308850287,-0.9769548349834978,-0.3859287510346621
1782814937539952400,9.376952392578126,0.267993934071064,-1.0334742292586714,-0.5019288370760158
1782814937560035300,9.397035400390624,0.19320494280755518,-0.8165012381769716,-0.5138032531345262
1782814937580118300,9.4171181640625,0.16245499975681305,-0.548986392859742,-0.3157492628606036
1782814937600201500,9.437201416015625,0.08387129238545894,-0.2527594669949263,-0.12044584993645548
1782814937620284400,9.457284423828124,0.08057984962463378,-0.033194340528175235,-0.05896558185089379
1782814937640367400,9.477367431640625,0.1820633710682392,0.01660064086280763,0.02673654269091785
1782814937660450300,9.4974501953125,0.291256151714921,0.06712013713605701,0.04182392944656312
1782814937680533200,9.517533203125,0.29683482863008975,0.05641673761829734,0.09952990315780043
1782814937700616400,9.537616455078124,0.1747258677870035,0.14627126913182437,0.15410554295405746
1782814937720699400,9.557699462890625,0.15412848543822766,0.1840380321420729,0.19857246119007468
1782814937740782300,9.5777822265625,0.3257558026880026,0.1880798548787832,0.23380466422140597
1782814937760865300,9.597865234375,0.3491214807063341,0.11227489150576293,0.23388328241556883
1782814937780948200,9.6179482421875,0.22048633296489714,0.0380959218993783,0.1639339132029563
1782814937801660400,9.638660400390625,0.3023094606488943,-0.14156842520311474,0.0013393588449805973
1782814937821743400,9.658743408203126,0.19080548045039175,-0.1976902715280652,-0.010729410741850734
1782814937841826300,9.678826416015625,-0.10144202038943767,-0.1318671153999865,-0.05509776397421956
1782814937861909200,9.6989091796875,-0.28992402632832526,-0.07818564796447754,-0.15021101973354817
1782814937881992400,9.718992431640626,-0.14176292486190795,-0.14757278018444775,-0.1962557086803019
1782814937902075400,9.739075439453124,0.10839841539859771,-0.19460881825610993,-0.15990516914352773
1782814937922158300,9.759158447265625,0.14157646237909793,-0.1970408677086234,-0.0715357616212219
1782814937942241300,9.7792412109375,0.013465630772709845,-0.09898264453858137,-0.02704568170532584
1782814937962324200,9.79932421875,-0.013800561815500259,-0.026769787373393774,-0.01928162357509136
1782814937982407400,9.819407470703124,0.10303601158261298,-0.0012624211512506007,-0.003915566008538008
1782814938002490400,9.839490478515625,0.11369535276293755,0.04460428088009357,0.04229410424157977
1782814938022573300,9.8595732421875,0.11558686559796333,0.10650719482451677,0.10843312138579785
1782814938042656300,9.87965625,0.19270985276699065,0.11404708881005644,0.15303776759207247
1782814938062739500,9.899739501953125,0.14493044898211954,0.049784459996968504,0.14568031750135124
1782814938082822400,9.919822509765625,0.2386135258078575,0.08029401842057704,0.0370988006208092
1782814938102905300,9.9399052734375,0.4482482098907232,0.039920214717090126,0.03678250121325254
1782814938122988300,9.95998828125,0.4380348589122295,-0.07335822780802846,0.0010329963095486163
1782814938143071200,9.9800712890625,0.04825988077819347,-0.10461641264185309,-0.13637480208277702
1782814938163154400,10.000154541015625,-0.4148907146900892,-0.06194806826040149,-0.2043797592293471
1782814938183237400,10.0202373046875,-0.6281207929164171,-0.06143149704039096,-0.22055326072126627
1782814938203320300,10.0403203125,-0.4904162035346031,-0.039449528465420006,-0.18979213868938385
1782814938223403300,10.0604033203125,-0.16275544400811195,-0.017299071455746887,-0.0878108237914741
1782814938243486200,10.080486328125,-0.04882277535796165,-0.06411284507885574,0.029110359150171277
1782814938263569400,10.1005693359375,-0.1026560723543167,-0.01687850795611739,-0.021781769827753303
1782814938283652400,10.12065234375,-0.1924590928763151,0.10758476092815399,-0.05619418090879917
1782814938303735300,10.1407353515625,0.06650163991153239,0.06783171947151422,0.04685827035196125
1782814938323818200,10.160818359375,0.22383330530524254,-0.08151756886616349,0.10402399970665574
1782814938343901200,10.180901123046874,-0.06522212149500846,-0.05115779417678713,-0.1369694800402969
1782814938363984400,10.200984375,-0.09532382977008819,-0.035636984439939255,-0.11479023532755672
1782814938384067300,10.2210673828125,-0.06362345412671566,0.15176803991720078,-0.006860825680196285
