time,seconds_elapsed,z,y,x
1782814623002024400,0.0600244140625,-0.0681049834549427,-0.009427169036865234,-0.058410797512345014
1782814623022105300,0.080105224609375,0.016729601004719732,-0.0638499563589692,0.019341683199256658
1782814623042187500,0.1001875,-0.11511223382353782,-0.012159370479732751,0.052438956561125814
1782814623062269400,0.12026953125,-0.22257190706729887,0.06971972517520189,0.07338548114113509
1782814623082350600,0.1403505859375,-0.20786767441034315,0.13419804256558418,0.08078161927442998
1782814623102432500,0.1604326171875,-0.07049392441809177,0.11891849423870443,0.1084969073370099
1782814623122514400,0.180514404296875,0.10413199012577533,0.05514861737862229,0.09223112445175648
1782814623142595600,0.200595703125,0.1524830563187599,0.028577129056304693,0.022813670158758757
1782814623162677500,0.220677490234375,0.1760591622173786,0.038646249258518214,-0.0015337489059194921
1782814623182759400,0.240759521484375,0.10858546240329742,0.011162468396872282,0.03477072299942374
1782814623202841600,0.260841552734375,-0.025861586487293243,0.03094078944772482,-0.05991104600746184
1782814623222922500,0.280922607421875,-0.09133329882919788,-0.04503536577373743,-0.0914387684976682
1782814623243004700,0.301004638671875,-0.040787937462329865,-0.03376417630538344,-0.06943831441793591
1782814623263086600,0.321086669921875,-0.1126952358096838,-0.058311903715133666,-0.031438875162974
1782814623283167500,0.34116748046875,-0.14574936414957046,-0.03595058043375611,-0.03180094994101673
1782814623303249400,0.36124951171875,-0.11969196282923221,-0.03757379772141575,0.006704356476850807
1782814623323331300,0.381331298828125,0.0029319617986679077,-0.03944456002935767,0.059129028784297405
1782814623343412500,0.40141259765625,-0.003418284010887146,0.02087678381204605,0.06626914632990956
1782814623363494400,0.421494384765625,0.06481412521600723,-0.020296938097476958,0.05557002112846821
1782814623383576300,0.441576416015625,0.009245382729172706,0.053253743542730804,0.07816431291550398
1782814623403657500,0.461657470703125,-0.03267828076481819,0.07726561051011085,0.10151753331106156
1782814623423739400,0.481739501953125,-0.05267828174233436,0.04923413263782859,0.00011365297492593526
1782814623443821300,0.5018212890625,-0.016314005941152572,0.007496347104758024,-0.002416376959346235
1782814623463902500,0.52190234375,-0.0537573091506958,0.050212183889746666,-0.003936535731330514
1782814623483984400,0.541984375,-0.02914776855111122,0.013252864804863929,-0.0011793094450607896
1782814623504066600,0.562066650390625,0.05886544594466686,-0.013406447931379078,-0.04332165719103068
1782814623524147500,0.5821474609375,0.09645663319230079,-0.07485328867137432,-0.060680678673088545
1782814623544229600,0.602229736328125,-0.006910217779874802,-0.05712707784473896,-0.0970588734017685
1782814623564311600,0.6223115234375,-0.08004793470501899,-0.03486673071980476,0.00957465121615678
1782814623584393500,0.6423935546875,-0.10108253942728042,0.005290799884498119,-0.0113171840345487
1782814623604474600,0.662474609375,-0.014538228440284727,-0.060864072415977716,0.005946121988072991
1782814623624556500,0.682556640625,-0.07145020222961902,-0.045399815171957014,0.04675086445473134
1782814623644638500,0.702638427734375,-0.19366028535962104,0.06951002794727683,0.09053378248196095
1782814623664719600,0.7227197265625,-0.27837504283189773,0.10091741199344396,0.1145773962944746
1782814623684801500,0.742801513671875,-0.21161855137646196,0.12683350514695046,0.1068921755541116
1782814623704883500,0.762883544921875,-0.028871289697289464,0.03505918455198407,0.050330476507171984
1782814623724964600,0.782964599609375,0.17790917399823664,-0.007257862173765897,0.03424330159183592
1782814623745046500,0.803046630859375,0.21747955236434935,0.0011782499991357326,0.056110923072136935
1782814623765128700,0.823128662109375,0.109492640376091,0.016791706455498934,0.0055395139485597605
1782814623785209600,0.843209716796875,0.007900982382893561,-0.011790683297812937,-0.04760810233857483
1782814623805291800,0.863291748046875,0.03014671646058559,-0.018764467833191155,-0.05232442680336535
1782814623825373700,0.883373779296875,-0.02626958276629448,-0.07861936320662498,-0.03202942493464798
1782814623845454600,0.90345458984375,-0.10936638364791869,-0.034044746812433004,-0.033395817917026574
1782814623865536800,0.923536865234375,-0.1483615924745798,-0.023008096752315757,-0.015539149111136793
1782814623885618700,0.94361865234375,-0.08399638006985187,-0.04701104976087808,0.03772577341273427
1782814623905699800,0.963699951171875,-0.03488426637649536,-0.0037426936596632,0.061844169494509695
1782814623925781800,0.98378173828125,-0.0705231505125761,0.00869271728247404,0.06755509448722004
1782814623945863700,1.00386376953125,-0.0626280133485794,0.06010580139458179,0.043320013223215936
1782814623965944600,1.023944580078125,0.06284662453532218,0.028177900605648756,0.06188325939588248
1782814623986026500,1.044026611328125,0.124772627094388,0.0011538462102413177,0.032541539175249636
1782814624006108400,1.0641083984375,0.01447802268564701,0.009497603924572467,0.025700879500247537
1782814624026189600,1.084189453125,-0.14150515070855615,0.08353022386282682,0.00124769850615412
1782814624046271500,1.104271484375,-0.09886194076836109,0.051529696229100225,0.006096234515868127
1782814624066353700,1.124353759765625,-0.0364729968726635,0.007128098314255475,-0.0393226141501218
1782814624086434600,1.1444345703125,0.0006347907721996307,-0.016786884149909018,-0.022734065583907066
1782814624106516500,1.1645166015625,0.01863455784320831,0.029069150356948376,-0.015442629934102297
1782814624126598700,1.1845986328125,0.09541793779432774,-0.02807005631700158,-0.05896974656935781
1782814624146680600,1.2046806640625,0.16388298673331736,-0.03126461457461119,-0.03564677518159151
1782814624166761700,1.22476171875,0.083716394084692,-0.033720921685546634,-0.03650214990191161
1782814624186843600,1.24484375,0.0060106385916471475,-0.04334419781640172,-0.07597714160215109
1782814624206925600,1.264925537109375,-0.044379824474453926,-0.04742869065105915,-0.026383381871692833
1782814624227006700,1.2850068359375,-0.17622282834649086,-0.03259001795947552,-0.008734875923767685
1782814624247088600,1.305088623046875,-0.23914310263991354,-0.009658347444236277,-0.01996116680447012
1782814624267170600,1.325170654296875,-0.16345687027573585,0.01767374998703599,0.07066917138714343
1782814624287251700,1.345251708984375,-0.047443888220191,0.03193564570397139,0.0858537714395672
1782814624307333600,1.365333740234375,-0.008770166432857513,0.011803981170803307,0.034729916065
1782814624327415800,1.385415771484375,0.09394435811042785,-0.00312660758793354,0.027475013033300636
1782814624347496700,1.40549658203125,0.15916998673677443,0.003523059559613466,0.037488311395049094
1782814624367578600,1.42557861328125,0.07256196286380291,0.001720247921347618,0.03250412977430969
1782814624387660800,1.445660888671875,0.0051198272317647935,0.021159692406654357,0.03405238212961703
1782814624407741400,1.465741455078125,-0.09074585433006287,-0.010375409672409295,-0.005858772498182952
1782814624427823600,1.48582373046875,-0.08157762849032879,-0.05030366156548261,-0.06761245069764554
1782814624447905500,1.505905517578125,-0.024579145461320874,-0.056615475060790774,-0.05169891531616449
1782814624467986700,1.525986572265625,-0.025842297264933586,-0.018929595267027616,0.015020897390693426
1782814624488068600,1.546068603515625,-0.0785229170948267,0.01465644799247384,0.035126002710498865
1782814624508150500,1.566150634765625,-0.05546820472180843,-0.04796133622303605,-0.020108320190198717
1782814624528231700,1.586231689453125,-0.018901099824905395,-0.013391981014609335,-0.0065821914019063114
1782814624548313600,1.606313720703125,0.09409048858284949,-0.04661664361581206,-0.0027174787977710365
1782814624568395500,1.6263955078125,0.08434066346287727,-0.00873626416325569,0.04894329646509141
1782814624588476700,1.6464765625,-0.08304770104289054,0.05062514860481024,0.054901620347611604
1782814624608558600,1.66655859375,-0.09042787442207335,0.07044511684030294,0.028331629862636327
1782814624628640800,1.686640869140625,0.029126141241192817,0.018558569997549054,0.03003342881184071
1782814624648721700,1.7067216796875,0.03068272303342819,0.004839110594242811,0.0729737585350871
1782814624668803600,1.726803466796875,-0.0450561163008213,0.01203399053439498,0.034802762105502184
1782814624688886000,1.746885986328125,-0.00022854805886745453,-0.0401968397013843,-0.015274652956053614
1782814624708967000,1.766966796875,0.06411679060161113,-0.07757263063266873,-0.013469941621646284
1782814624729049000,1.787049072265625,-0.011751228070259094,-0.03443988360986113,0.019360716693289575
1782814624749131000,1.807131103515625,-0.09481237311661243,-0.03336056394055485,-0.010415924345888197
1782814624769212000,1.8272119140625,0.0025385785669088364,-0.07109525131210684,-0.027942959338612853
1782814624789294000,1.847294189453125,0.11887246313989162,-0.08496493284106255,0.06999485232215374
1782814624809376000,1.8673759765625,-0.0433832146525383,-0.043952977364510294,0.051794009721092875
1782814624829457000,1.887456787109375,-0.2034434282273054,0.026509090610593557,0.03204911601580679
1782814624849538800,1.907538818359375,-0.11007716226577759,0.039546120707690716,0.012266812909580767
1782814624869620700,1.927620849609375,0.0844002846956253,0.02332695344313979,0.0660270081371069
1782814624889702000,1.947701904296875,0.12429098105728625,-0.003658522507548332,0.055971039677411315
1782814624909783800,1.96778369140625,0.09205459884107112,-0.006364566595852375,0.04980283590387553
1782814624929865700,1.98786572265625,0.01622398957014084,0.01855082508251071,0.05150364847239106
1782814624949947000,2.00794677734375,-0.06909224092662335,0.005145838455855846,0.057677149475552136
1782814624970028800,2.02802880859375,-0.10004910472631454,-0.0005580722741782665,0.054997335807047784
1782814624990111000,2.048111083984375,-0.05696107362806797,-0.04004471787959337,0.041818887945264574
1782814625010192000,2.06819189453125,-0.08320552195310592,-0.039741497149318454,-0.0052589434415102
1782814625030273800,2.088273681640625,-0.09762450792789458,-0.053893941142410036,-0.012715725720860063
1782814625050356000,2.10835595703125,-0.06188800863623619,-0.03620382454246282,-0.013945778972469269
1782814625070436900,2.128436767578125,0.021310499054193497,-0.04481222454234957,0.019707557369582355
1782814625090519000,2.14851904296875,-0.005505611678957939,-0.037165363050997255,0.030842772433347997
1782814625110601000,2.16860107421875,0.007834931409358977,-0.02688333075046539,-0.008054711639881133
1782814625130682000,2.18868212890625,0.03988368209898471,-0.029535160433501004,-0.018199344763718546
1782814625150764000,2.208763916015625,0.01793313157558441,-0.029330285511165857,-0.03382708547376096
1782814625170846000,2.228845947265625,-0.02908990088403225,-0.020377602118253707,-0.04350212832447141
1782814625190926800,2.2489267578125,-0.029991233637928962,0.01606631479039788,0.008233758001215756
1782814625211008800,2.2690087890625,-0.04257423635721207,0.034969752702862025,0.051217123148590324
1782814625231090700,2.289090576171875,-0.06828209358751773,-0.0031748306438326834,0.003224040080420673
1782814625251171800,2.309171875,-0.11470716015398502,-0.02179740578830242,-0.009906367388553917
1782814625271253800,2.329253662109375,-0.0749976655781269,-0.02200593397244811,0.02744027051348239
1782814625291336000,2.3493359375,-0.04992693720757961,-0.011739099241048098,0.07475622150506823
1782814625311417900,2.36941796875,-0.08439443947672844,0.019100129528343675,0.09829652543794364
1782814625331498800,2.389498779296875,-0.06507365293502808,-0.007825140667706728,0.019747962445206938
1782814625351581000,2.409580810546875,0.05129822556078434,-0.0708937373906374,-0.010308993372693658
1782814625371661800,2.429661865234375,0.0786748927861452,-0.06381050113141537,0.03126410311795771
1782814625391744000,2.449743896484375,-0.06401274570524693,0.01100157874673605,0.04140643468685448
1782814625411826000,2.469825927734375,-0.128206108674407,0.057271600881963966,0.028698271217942235
1782814625431907800,2.489907958984375,-0.059631754142045974,0.04342617701143026,0.0003350771732628345
1782814625451989000,2.509989013671875,0.10073299533724785,0.02382584287598729,0.03832925573121756
1782814625472071000,2.53007080078125,0.14035831876099109,0.0048734512552618976,0.05590714412834495
1782814625492152800,2.55015283203125,0.05902618946433067,0.026394524320214986,0.026633374577388166
1782814625512234000,2.57023388671875,-0.04495967018902301,0.019905746822804212,0.015611045303568242
1782814625532316000,2.59031591796875,0.00940554172694683,0.04020005457177758,0.049171004273742436
1782814625552398000,2.610398193359375,0.03242985896170139,0.011016630185395478,0.05346201599854976
1782814625572478700,2.630478759765625,-0.023528759625554084,-0.0030997195810079574,0.02878145598936826
1782814625592561000,2.650560791015625,-0.13421966987550257,0.04119622600227594,0.02738127033524215
1782814625612643000,2.67064306640625,-0.10579027872681616,-0.009195844499021768,0.02871171522140503
1782814625632723700,2.6907236328125,-0.049349429580569266,-0.016436755537986753,0.02198675434794277
1782814625652806000,2.710805908203125,-0.05379238046407699,0.006490969454497099,-0.0009485328964889049
1782814625672887800,2.7308876953125,-0.05394377163350582,0.01736234595030546,0.016859109135903418
1782814625692969000,2.750968994140625,0.04036065196096897,0.00663753831833601,-0.027074798201955852
1782814625713051100,2.771051025390625,0.10085749849975109,-0.025468203255534172,-0.01935461574606597
1782814625733133000,2.791133056640625,0.07248655954003333,0.0052304479993879795,-0.028179398442991076
1782814625753214000,2.8112138671875,-0.03893266498446464,0.06098273035958409,-0.022235139618441462
1782814625773295900,2.8312958984375,-0.05043839386105537,0.0612885814383626,-0.008163286580890416
1782814625793377800,2.851377685546875,-0.005489245066046714,0.05593991388678551,-0.016406469997577368
1782814625813459000,2.871458984375,0.029641689547896383,0.019763269612193105,-0.016596074285544455
1782814625833540900,2.891540771484375,-0.01528232480585575,0.016656097377091644,-0.00039944764636456965
1782814625853623000,2.911623046875,-0.026785131072998045,0.02599120421633124,-0.02940557923708111
1782814625873704000,2.931703857421875,0.012663082218170165,-0.03351780032888055,-0.03091576460432261
1782814625893785900,2.951785888671875,-0.0500537784576416,0.00415098219960928,-0.0015749211665242908
1782814625913868000,2.971867919921875,-0.022772388300299644,-0.017816957850009203,-0.04029379726983606
1782814625933949000,2.991948974609375,0.037387773630023,-0.09077727238163351,-0.04239712622463703
1782814625954031000,3.012031005859375,-0.07751286326944827,-0.04883285836055874,-0.005301650072075426
1782814625974113000,3.032113037109375,-0.19721534749269484,0.010036971498280763,0.027872853244468566
1782814625994194000,3.05219384765625,-0.19003040442466734,0.03148527158796787,0.020130787750333546
1782814626014276000,3.072276123046875,-0.0459580335766077,0.005617109229415655,0.04274206720478833
1782814626034358000,3.09235791015625,0.06964578315615653,0.0005706394948065281,0.08457432608827949
1782814626054439200,3.112439208984375,0.12749299196898936,0.0022808044135570523,0.07735219281502068
1782814626074521000,3.13252099609375,0.07977554750442505,0.01423033153489232,0.05041830092109739
1782814626094603000,3.15260302734375,0.01589315018057823,0.015058014530688524,0.05333977785836905
1782814626114684000,3.172683837890625,-0.004583236137032509,0.07268705054819584,0.09076192868202924
1782814626134765800,3.192765869140625,0.025390461844205854,-0.01655365991592407,0.06968786873221397
1782814626154847700,3.21284765625,-0.037975802651047705,-0.03597966039776802,0.0030309286611154675
1782814626174929000,3.232928955078125,-0.10638415296673774,-0.02418020927160978,0.010951857853494585
1782814626195010800,3.2530107421875,-0.13155483458042144,0.09403627417758106,0.08083006152603775
1782814626215093000,3.273093017578125,-0.1023334162712097,0.03198401489034295,0.00951828138642013
1782814626235174000,3.293173828125,-0.030983167284727095,0.00426467170715332,-0.013378463945910335
1782814626255256000,3.313256103515625,0.06461889490485191,0.020823738450556992,0.026422325642593204
1782814626275338000,3.333337890625,0.07576806542873382,0.007361760939657688,0.019455774565599857
1782814626295419000,3.3534189453125,0.056207040390372276,0.002989683335274458,0.01452500363253057
1782814626315501000,3.3735009765625,0.023839725270867345,-0.013402210147678851,0.009368936043605208
1782814626335583000,3.3935830078125,-0.04991641581356525,0.00688435268625617,0.025990144770406187
1782814626355664100,3.4136640625,-0.11455459994077682,-0.019827128628641364,-0.004063121253065765
1782814626375746000,3.43374609375,-0.11044891818761825,-0.012771218767762183,-0.007284932843782007
1782814626395828000,3.453827880859375,-0.08793313499689101,-0.022738632161170242,-0.006231733996421098
1782814626415909000,3.4739091796875,-0.06215279705226421,-0.023564999982714652,-0.04866404113229364
1782814626435991000,3.493990966796875,-0.040115152767300606,-0.007960603615641593,-0.035400435737706716
1782814626456073000,3.514072998046875,0.02781447412073612,-0.04012991194501519,-0.024343984998576342
1782814626476154000,3.534154052734375,-0.06333937648832798,0.001260667585581541,-0.01730016743429005
1782814626496236000,3.554236083984375,-0.048991702184081075,0.025356559574604032,-0.01830090544205159
1782814626516318200,3.574318115234375,0.058850832897424696,-0.0232088800214231,-0.0229705777535215
1782814626536398800,3.59439892578125,0.058659109717607495,-0.02037541016116738,0.0010833747899159788
1782814626556480800,3.614480712890625,-0.13364976103305815,-0.004598872097581625,-0.009624993163906036
1782814626576563000,3.63456298828125,-0.23124387382268904,0.03137392016798258,-0.009176664874516427
1782814626596643800,3.654643798828125,-0.13579495636820793,0.04660714513510465,0.048512942223809655
1782814626616726000,3.67472607421875,0.010156067833304404,0.010958762518316506,0.0443870944654569
1782814626636808000,3.694807861328125,0.09680851536989211,-0.012187281399965286,0.034802214116230606
1782814626656889000,3.71488916015625,0.08164367946386336,0.007119184355437755,0.02499700554721057
1782814626676971000,3.734970947265625,0.041947628891468046,0.023637919088453054,0.03266827082745731
1782814626697052700,3.755052734375,-0.05412906507253647,0.037189328448474404,0.0034913857797160743
1782814626717133600,3.775133544921875,-0.06435995170772076,0.022992899183183906,-0.020252149107679723
1782814626737215700,3.7952158203125,-0.030983167284727095,-0.03670782854184508,-0.06449939671102911
1782814626757297700,3.815297607421875,-0.03512684296071529,-0.06369768840670585,-0.08235029336325823
1782814626777378600,3.835378662109375,-0.02347323004603386,-0.06328676951825618,-0.03631915801782161
1782814626797460500,3.85546044921875,-0.09400047221183776,-0.027611937285959717,-0.02951320433001965
1782814626817542700,3.875542724609375,-0.09227262550592422,-0.018972996017336843,-0.046398872679285705
1782814626837623600,3.89562353515625,0.034111528438329694,-0.019341537068784234,0.06604454379379748
1782814626857705500,3.91570556640625,0.09917992067635059,-0.018903876303881406,0.043911805103905494
1782814626877787600,3.93578759765625,0.010327332746982575,0.023885902500152587,0.03559025922138244
1782814626897868500,3.95586865234375,-0.08324410039782523,0.09105667384490371,0.08948281212430446
1782814626917950700,3.97595068359375,-0.045785015097260476,0.1091645774655044,0.14135931249707936
1782814626938032600,3.99603271484375,0.018814006063342093,0.08526099317818879,0.10649776940904557
1782814626958113800,4.01611376953125,0.04573825334608555,0.04959098325148224,0.030379319640062748
1782814626978195700,4.03619580078125,-0.0023117840737104413,0.02317936166599393,-0.050749834430404005
1782814626998277600,4.056277587890625,-0.016476503026485442,0.02627688928991556,-0.024724070357345043
1782814627018358800,4.07635888671875,-0.015281155762076377,0.004960252755880356,-0.007798179595544933
1782814627038440700,4.096440673828125,0.03223813578188419,-0.01780906680449843,-0.0390437606761232
1782814627058522600,4.116522705078125,0.04698971471190452,-0.09000000439882277,-0.08393840280491859
1782814627078604800,4.136604736328125,0.0006190086811780929,-0.032115970706939695,-0.03296732683926821
1782814627098685700,4.156685791015625,-0.07615794152915477,0.006787468183040619,-0.04131798921842128
1782814627118767600,4.176767578125,0.004515431597828865,-0.05132686713337898,-0.03176880123708397
1782814627138849800,4.196849853515625,-0.023632220000028608,-0.032210809383541344,0.06930581061206757
1782814627158930400,4.216930419921875,-0.18390870667397974,0.06521729918941856,0.12886687413807957
1782814627179012600,4.2370126953125,-0.23936931261122224,0.08374708148390055,0.08157065076027065
1782814627199094500,4.257094482421875,-0.16771452772021292,0.07587444841265678,0.07140775132738053
1782814627219175700,4.27717578125,0.004554010042548179,0.025734745237231252,0.07560228040777146
1782814627239257600,4.297257568359375,0.09939794734120368,0.011833061134815215,0.07711798220034688
1782814627259339500,4.317339599609375,0.08982873948514461,0.015400544358044862,0.05216013961974531
1782814627279420700,4.337420654296875,0.06417874992191791,0.008764759605377911,0.008649901054054498
1782814627299502600,4.357502685546875,0.11126374170184135,-0.021383272029459475,-0.06409910881444811
1782814627319584500,4.37758447265625,0.09283025938868522,-0.07613996748104691,-0.07855159520003945
1782814627339665700,4.397665771484375,0.01841770022213459,-0.05407879619002342,-0.07832520256564021
1782814627359747600,4.41774755859375,-0.050907764938473696,-0.06022796646952629,-0.08601502641588449
1782814627379829800,4.437829833984375,-0.12398702967464924,-0.037600539597868916,-0.03281326878871769
1782814627399910700,4.45791064453125,-0.1640121660709381,-0.009246259512007237,0.04465875101368874
1782814627419992600,4.47799267578125,-0.17070961788296699,0.011786737775057553,0.0840391597656533
1782814627440074800,4.49807470703125,-0.18511457533240316,0.05025076233446598,0.14705814519319682
1782814627460155600,4.51815576171875,-0.11511281834542751,0.04824292964339256,0.12519914541076868
1782814627480237800,4.53823779296875,-0.01957096191048622,0.05108092954829335,0.12161975255403668
1782814627500319700,4.55831982421875,0.07436287480592728,0.010131810174882412,0.07900193278342485
1782814627520400600,4.578400634765625,0.09948913275599479,-0.004097060055285692,0.051388862986303865
1782814627540482600,4.598482666015625,0.02571837862432003,0.03551744971349835,0.04432677911296486
1782814627560564700,4.618564697265625,0.0010205752193927764,-0.012260638897120951,-0.0590365281952545
1782814627580645600,4.638645751953125,0.03307283304035664,-0.03528378708809614,-0.14377181699890643
1782814627600727600,4.6587275390625,0.026057401320338246,-0.05595438080355525,-0.1126702840315178
1782814627620809500,4.6788095703125,-0.037460254344344135,-0.015197569131851196,-0.07510382936634123
1782814627640890600,4.698890625,-0.0850713158249855,0.010401859287917613,-0.021375234853476286
1782814627660972500,4.71897265625,-0.008386720073223114,-0.016159984423220156,-0.020349581600166856
1782814627681054700,4.7390546875,0.037169746965169906,-0.03028407910466194,0.0539969631254673
1782814627701136000,4.759135986328125,-0.09723346278369425,0.0246771990083158,0.05837813735175877
1782814627721217800,4.7792177734375,-0.0983861399501562,0.03759337920472026,0.06759940855298191
1782814627741300000,4.799300048828125,-0.046563598254323005,-0.0034225217945873737,0.109298213782534
1782814627761380900,4.819380859375,-0.14267302544414998,0.01965717888921499,0.10077544623948632
1782814627781462800,4.839462890625,-0.182781748470664,0.0025637130081653595,0.02290354039929807
1782814627801545000,4.859544921875,-0.17263327942192552,0.025064883151650428,-0.030128157890588043
1782814627821625900,4.8796259765625,-0.1352554426640272,0.014546119485795497,-0.08880487633012235
1782814627841708000,4.8997080078125,0.02562427060008049,-0.017824118243157862,-0.0945333735121414
1782814627861790000,4.9197900390625,0.1013362219274044,-0.0004151566721498966,-0.05650441590175032
1782814627881870800,4.939870849609375,0.10710136132538318,0.01332753747627139,-0.05222750576753169
1782814627901952800,4.959952880859375,0.0323509485065937,0.03831307178139686,-0.014015264012105762
1782814627922034700,4.98003466796875,-0.03256196090877056,0.06591039602011442,-0.00018332067765295504
1782814627942115800,5.00011572265625,0.011420973202586173,0.07128302896916866,0.04937025317288935
1782814627962197800,5.02019775390625,0.16430091988444329,0.007967325617372989,0.03970912924967706
1782814627982279700,5.04027978515625,0.16710487138926983,-0.04924085463955998,0.015889204657822845
1782814628002360800,5.06036083984375,0.013046528577804565,-0.019246552261710168,0.021350246542692183
1782814628022442800,5.08044287109375,-0.11711655938327312,0.014199644135683774,0.06740976773239672
1782814628042525000,5.10052490234375,-0.13568097459971903,0.05922127364501357,0.11070124898087233
1782814628062605800,5.120605712890625,-0.0981119991838932,0.008203764721751213,0.08452208444438875
1782814628082687700,5.140687744140625,-0.08568915546238422,-0.03189735952019691,0.03486998212281614
1782814628102770000,5.16077001953125,-0.04670680611729622,-0.018043021690845488,0.01506575944572687
1782814628122850800,5.180850830078125,-0.045425534135103224,-0.021894582552462814,0.03057754562590271
1782814628142933000,5.20093310546875,-0.0747884067416191,0.027009002956748008,0.045567938280478115
1782814628163015000,5.221014892578125,-0.06979600528180599,0.0037244273506104944,0.05123495106622576
1782814628183095800,5.241095703125,-0.01612929702401161,0.009561901332437991,-0.0019801044339314102
1782814628203178000,5.261177978515625,0.09638006082475185,-0.012579495587944984,-0.014422785367071627
1782814628223260000,5.281260009765625,0.14546704007685182,-0.021312398750334978,-0.017054668240621684
1782814628243340800,5.3013408203125,0.06497136160433292,-0.013743717061728238,0.003946984060108662
1782814628263423000,5.321423095703125,0.029652795463800428,-0.030898703871667384,0.0022445640563964844
1782814628283505000,5.3415048828125,0.04374152657091617,-0.023035130889713762,0.019239245738089085
1782814628303585800,5.361585693359375,0.020691490373015403,0.01991086138933897,0.10591887354254723
1782814628323667700,5.381667724609375,-0.022715105155110358,0.02442497781291604,0.06954166519455611
1782814628343750000,5.40175,0.04882102179229259,-0.041015462607890366,-0.00007397855166345834
1782814628363830800,5.421830810546875,0.037509938704967494,-0.05581131907105445,0.026875439704954623
1782814628383912700,5.44191259765625,-0.1751484771132469,0.026567688930034635,0.046296946674771605
1782814628403995000,5.461994873046875,-0.3237906400948763,0.05219999670609832,0.002361468434333801
1782814628424075800,5.48207568359375,-0.19040917460918425,0.05088935249894857,-0.020522782742604613
1782814628444158000,5.502157958984375,0.052146951344609255,0.011716449017822742,0.05666457489952445
1782814628464239900,5.522239990234375,0.15782207925915717,-0.027614275373518467,0.03520896828621626
1782814628484320800,5.54232080078125,0.09360182828307151,0.012206570622324943,0.006465615817531943
1782814628504403000,5.56240283203125,0.02079436622560024,0.0313369491584599,-0.009714680741354823
1782814628524484900,5.58248486328125,-0.010237900897860527,0.035613603564351795,0.01641823350060731
1782814628544566000,5.60256591796875,-0.004489128112792969,0.002993774988502264,-0.014205672017671167
1782814628564648000,5.62264794921875,0.006353168419003487,-0.031096272270381448,-0.048948995553515846
1782814628584729900,5.642729736328125,0.03441957147419453,-0.057336044420301914,-0.05796520916931331
1782814628604811000,5.66281103515625,0.05502864426076412,-0.03131093793436885,-0.0024533114362508056
1782814628624893000,5.682892822265625,0.020362404549121856,-0.03232975958809256,0.009394764604605733
1782814628644974800,5.702974853515625,-0.04120762417912483,-0.010636544826626777,0.009655022975988685
1782814628665055700,5.7230556640625,-0.0669242492377758,-0.031878070297837256,0.00297923500649631
1782814628685138200,5.74313818359375,-0.02012859579324722,-0.026538024444133043,0.004606324751675129
1782814628705220000,5.76322021484375,0.006923077261447906,-0.04512611279711127,0.03083089933246374
1782814628725301200,5.78330126953125,-0.12884499109983444,-0.01664674502685666,0.055773580876551564
1782814628745383200,5.803383056640625,-0.12839023306965827,0.013917466193437575,0.035166225123032926
1782814628765465300,5.82346533203125,-0.07619301284253596,0.015590075580775737,0.09650430825892835
1782814628785546200,5.843546142578125,-0.0010188216537237167,0.008513999714702368,0.07994626442883163
1782814628805628400,5.86362841796875,-0.056605684319138524,0.026335633739829063,0.05387384820245206
1782814628825710300,5.88371044921875,-0.04335866473317146,0.042633419198542834,0.02133840997442603
1782814628845791200,5.903791259765625,0.013549801924824714,0.0410609091848135,0.01919420101996511
1782814628865873400,5.923873291015625,0.032687633115053176,0.003965834891051054,-0.025745705022662876
1782814628885955300,5.943955322265625,0.038726913279294964,0.018840455678850412,-0.021391236140206455
1782814628906036200,5.9640361328125,0.09762567697167396,0.014393997664004564,0.005976772854663431
1782814628926118100,5.9841181640625,0.010436638340353965,0.012979162430018185,-0.012076587567105888
1782814628946200000,6.004199951171875,-0.029357027387619018,-0.020359335809201,-0.07547299147229641
1782814628966281200,6.02428125,0.05291968928277492,-0.07565379139930009,-0.07794296178240329
1782814628986363100,6.044363037109375,-0.007618658310174942,-0.05709434461891651,0.006669504359178245
1782814629006445000,6.064445068359375,-0.2263444113433361,0.028235768272727727,0.05907338960692286
1782814629026526200,6.084526123046875,-0.29022154797017574,0.0367559054672718,0.030743769038282333
1782814629046608100,6.104608154296875,-0.16645839017927647,0.00769216193780303,0.030413148844428358
1782814629066690300,6.124690185546875,0.027035306441783903,0.023851854100078344,0.06804320679772645
1782814629086771200,6.144771240234375,0.02761807476580143,0.026015315744280815,0.08128434463217854
1782814629106853000,6.16485302734375,-0.035821254965662956,0.024862200186401603,0.036040925598330796
1782814629126935300,6.184935302734375,-0.04438976134657859,0.05012845112904906,-0.04489858765155077
1782814629147017200,6.205017333984375,-0.005796703580021858,0.008423983343690633,0.04785466097816825
1782814629167098400,6.225098388671875,-0.05937631807625293,0.028274931239336727,-0.022542196273617445
1782814629187180300,6.24518017578125,0.006490531063079834,-0.0064496145308017725,-0.006115231477282941
1782814629207262200,6.26526220703125,0.004101590099930763,-0.04575608126372099,-0.01394545017890632
1782814629227343400,6.28534326171875,-0.01912789431810379,-0.015000439124554395,-0.028381643016822635
1782814629247425300,6.30542529296875,-0.00556874004304409,-0.0022710136719048023,0.0463671258341521
1782814629267507200,6.325507080078125,0.00215805481672287,0.043375908128917215,0.09632814797442406
1782814629287588000,6.345588134765625,0.028075170883536338,0.021722440855950115,0.09910674584228545
1782814629307670000,6.365669921875,-0.0005389291822910309,0.03949263695478439,0.06250727304574102
1782814629327752200,6.385752197265625,-0.017061024916172028,0.03428396239578724,0.06497150773480534
1782814629347833000,6.4058330078125,-0.050804304563999175,0.05540259213969111,0.05905267561245709
1782814629367915300,6.425915283203125,-0.0014759177714586257,0.02400339139997959,0.025246121470071374
1782814629387997200,6.4459970703125,0.048103813433647155,0.030057430741935967,0.007383461314812302
1782814629408078000,6.466078125,0.059224342384934424,0.003164309249818325,-0.005532207424938679
1782814629428160300,6.48616015625,-0.01996317609846592,0.004263502663373947,-0.03669862232208252
1782814629448242200,6.5062421875,-0.09859715235233306,0.006617810704559087,-0.03230557499490678
1782814629468323300,6.5263232421875,-0.061145665836334226,0.04910217682123184,0.002253404949977994
1782814629488405200,6.5464052734375,0.017974048107862472,0.028619214632362125,0.018755371211282908
1782814629508487200,6.566487060546875,0.08258300614058971,-0.03079378219246864,-0.017593524357676506
1782814629528568300,6.586568359375,0.020675708281993863,-0.01878010379374027,-0.009645816756226121
1782814629548650200,6.606650146484375,-0.09875205065310001,0.014951923807710408,-0.0016095540884882211
1782814629568732200,6.626732177734375,-0.13487316534817217,0.03756181502267718,-0.03224160638060421
1782814629588814300,6.646814453125,0.002537409523129463,-0.02192702351734042,-0.021708960319869217
1782814629608895200,6.666895263671875,0.019448212313652038,-0.018669336895644664,-0.006297602306865155
1782814629628977400,6.686977294921875,-0.06967617829442024,-0.02895765280649066,-0.03022690555732697
1782814629649059300,6.707059326171875,-0.13766250380575656,0.03072437021806836,-0.061280288534052665
1782814629669140200,6.72714013671875,-0.046187166157364845,-0.012364391532540321,-0.04640840769261122
1782814629689221600,6.7472216796875,0.09197218125462532,-0.04249152650982141,-0.029944691082462668
1782814629709303600,6.767303466796875,0.08359948970675468,-0.06656652184128761,0.0038463732298463582
1782814629729384700,6.787384765625,-0.0496311691313982,0.03911605872735381,0.011435074793174863
1782814629749466600,6.807466552734375,-0.11182196010649204,0.04159998449757695,0.08851393055953084
1782814629769548500,6.827548583984375,-0.1581955887466669,0.07004135834500193,0.07224635757599025
1782814629789629700,6.847629638671875,-0.07685176901221275,0.0015647650986909865,0.05466386606898158
1782814629809711600,6.867711669921875,-0.020568156254291533,-0.032327275370061394,0.052073776510544116
1782814629829793800,6.887793701171875,0.003402501919865608,-0.03846168647184968,0.04650967610999941
1782814629849874700,6.907874755859375,-0.010881459498405455,-0.0018438743010163307,0.0401833226326853
1782814629869956600,6.92795654296875,-0.02611877611875534,-0.023406302289664744,0.037229916187189516
1782814629890038800,6.948038818359375,0.009001052579283714,-0.04989084298089146,-0.019939941353350876
1782814629910119700,6.96811962890625,0.03851064018011093,-0.0482270014218986,-0.01863441171273589
1782814629930201900,6.988201904296875,0.043405426484346386,-0.013150135082751513,0.024308073434978723
1782814629950283800,7.00828369140625,-0.06845920372009277,0.05151216057240963,0.03649272448644042
1782814629970365000,7.028364990234375,-0.0779085845887661,0.053675914477556944,0.03359060983676463
1782814629990446800,7.04844677734375,-0.04089665853381157,0.05826543422490358,0.04264189476594329
1782814630010528800,7.06852880859375,0.01610416258275509,0.049447921518981454,0.05665668385401368
1782814630030609700,7.088609619140625,-0.037488895916938776,0.054042263571918006,0.028069764056056736
1782814630050691600,7.108691650390625,-0.0300070157289505,0.04045549063757062,0.00694875969197601
1782814630070773800,7.128773681640625,0.030334347987174985,-0.0203572899825871,-0.045308191365748644
1782814630090854700,7.148854736328125,0.050616088515520095,-0.06738587540015578,-0.07230597880873829
1782814630110936600,7.1689365234375,-0.0026566519886255264,-0.0482519897326827,-0.07344382373224943
1782814630131018800,7.189018798828125,-0.010736498069763184,-0.02464066639021039,-0.056355143624171614
1782814630151099600,7.209099609375,-0.030057284611463547,0.019026479770243167,0.03150350136440247
1782814630171181600,7.229181640625,-0.0892711056023836,0.0416860553458333,0.02644194365851581
1782814630191263700,7.249263671875,-0.056060909917950624,0.031022184120863674,-0.03619779666047543
1782814630211344600,7.2693447265625,0.020367665246129034,-0.00389803035184741,0.028760632397048173
1782814630231426800,7.2894267578125,-0.03988309757709503,0.03957432388886809,0.09174608088117092
1782814630251508700,7.3095087890625,-0.19601766214072702,0.04874488781616092,0.04477397489119321
1782814630271590700,7.329590576171875,-0.173693602129817,0.07789791706427932,0.057149764600582416
1782814630291671800,7.349671875,-0.00561491727232933,0.03632365152984857,0.05730415144469589
1782814630311753700,7.369753662109375,0.12501520367860794,-0.003604454232752323,-0.007445164906792342
1782814630331835600,7.389835693359375,0.13987258107066153,-0.030797727715224026,-0.02611238291058689
1782814630351916800,7.409916748046875,0.09759878896474837,0.005553980865329503,-0.008919913634471595
1782814630371998700,7.429998779296875,-0.02161620400249958,0.040741321841627355,0.04018040002323687
1782814630392081000,7.450080810546875,-0.0980810195237398,0.039925183153152466,0.021720212366245686
1782814630412161800,7.470161865234375,-0.10036942272186279,0.01060220416560769,-0.0023510201055556533
1782814630432243700,7.49024365234375,-0.03561141160726547,-0.009881927067041397,0.01053334018047899
1782814630452326000,7.510325927734375,0.026911387801170347,-0.07042626600936054,-0.025629860090650616
1782814630472406500,7.530406494140625,0.03071662530303001,-0.0676844199553132,-0.026469379654712973
1782814630492488700,7.55048876953125,-0.02881049942076206,-0.0403952848829329,0.031758754767104984
1782814630512570600,7.570570556640625,-0.10325462276935576,0.02234174179807305,0.06160466165021061
1782814630532651800,7.59065185546875,-0.04532733445763588,0.011715572234988212,0.029278043867275116
1782814630552733700,7.610733642578125,0.03171966486573219,-0.008180676107108592,0.017890242281928658
1782814630572815600,7.630815673828125,0.07189034721255302,-0.009832096575945614,0.026056634135358032
1782814630592896800,7.650896728515625,0.04705693472921848,0.03663184069618582,0.01718107109926641
1782814630612978700,7.670978759765625,-0.05395546207129955,0.02261135251969099,0.041024376566708085
1782814630633060600,7.691060546875,-0.15935294208824632,0.004170855943858623,-0.005963438449054956
1782814630653141800,7.711141845703125,-0.14209142616391182,0.03997033746913075,-0.028667729949206112
1782814630673223700,7.7312236328125,-0.04870411741435528,-0.06854279035031795,-0.08966448883414269
1782814630693306000,7.75130615234375,-0.025092940202355384,-0.04921951959058642,-0.05870868448037654
1782814630713387300,7.77138720703125,-0.025679800179600715,-0.020269027177244422,-0.001397372642531991
1782814630733469200,7.79146923828125,-0.04463292245268821,0.02547697108387947,0.0524678903946653
1782814630753551400,7.81155126953125,0.012525719574093819,0.00942775355875492,0.016600677395425735
1782814630773632000,7.831632080078125,0.09639350482821464,-0.03129764006137848,-0.0009080912882462143
1782814630793714000,7.8517138671875,0.09223580062687396,-0.0064256491333246225,0.019146014496684072
1782814630813796000,7.871796142578125,-0.06042962652146816,0.050002778922766444,0.019479922626167535
1782814630833877000,7.891876953125,-0.05040566063523292,0.041499446732550856,-0.01339537854809314
1782814630853959200,7.911959228515625,-0.0005289923101663589,-0.002613105107843876,0.02828183590415865
1782814630874041000,7.932041015625,-0.030973230412602422,-0.02208791316747665,0.013446231952495872
1782814630894122200,7.952122314453125,-0.11457038203179835,0.011766425639390945,0.004399842394143343
1782814630914204200,7.9722041015625,-0.15036007281541824,0.05125862420275807,0.057163537397608155
1782814630934286000,7.9922861328125,-0.06995207262635231,0.047121232137084,0.03951605436298996
1782814630954367200,8.0123671875,0.09895955592393875,-0.015640344463288783,0.05013520966339856
1782814630974449200,8.03244921875,0.14694237332642077,-0.024033055885881185,0.034612244502082466
1782814630994531000,8.052531005859375,0.02448445291519165,0.03677577921152115,0.08308785039018839
1782814631014612200,8.0726123046875,-0.11543898155987262,0.10168722732216119,0.10519275122508406
1782814631034694100,8.092694091796876,-0.06513502773344516,0.07582841731384396,0.06473547048922627
1782814631054776000,8.112776123046874,0.0178115510225296,-0.06946034358665347,-0.02319455923512578
1782814631074857200,8.132857177734374,-0.004252981269359589,-0.1298836864978075,-0.11734287895243614
1782814631094939100,8.152939208984375,-0.12143734519183635,-0.05654416339024901,-0.08025777806341648
1782814631115021300,8.173021240234375,-0.17874562482237816,0.00907163359746337,-0.00612582593653351
1782814631135102000,8.19310205078125,-0.10050970797538757,0.004562631740421056,0.021150559252128005
1782814631155184000,8.21318408203125,-0.009127893829345703,-0.007217384032905102,0.04291797176096588
1782814631175266000,8.23326611328125,0.05483575203716755,-0.008834171579778194,0.02780778865162283
1782814631195347000,8.253346923828126,0.05351940874159336,-0.0057882280126214025,0.0034121099984273312
1782814631215429000,8.27342919921875,0.045401568737626075,0.0035896950550377365,-0.02299837907589972
1782814631235511000,8.293510986328124,0.05747253028154373,0.019905892953276633,-0.02045863146521151
1782814631255593000,8.313593017578125,0.014032617005705832,0.038911476065963506,0.022572043422609565
1782814631275674000,8.333674072265625,-0.027495909690856933,0.019771160657703877,0.009748473413102329
1782814631295756000,8.353756103515625,-0.04405716839134693,0.02077668443843722,-0.020067513255774973
1782814631315838200,8.373838134765625,-0.005780336967110633,-0.05080883460864424,-0.028845095810107885
1782814631335919000,8.393919189453126,-0.038158758002519604,-0.01796323445290327,-0.01833352907001972
1782814631356001000,8.4140009765625,-0.08177461236715317,-0.014324001167714595,-0.0001422580149024725
1782814631376083200,8.434083251953124,-0.03408464043140411,-0.030258798532932996,0.02766191390752792
1782814631396164000,8.4541640625,0.0005319149196147918,-0.06822948661744595,0.008132745312154292
1782814631416246300,8.474246337890625,-0.04905132341682911,-0.04503068959861994,0.0517347538145259
1782814631436328200,8.494328125,-0.15157354025840758,0.043129824413359164,0.07550886650327593
1782814631456409000,8.5144091796875,-0.10586802013814449,0.017410422875732183,0.012150237325206398
1782814631476491300,8.5344912109375,-0.02280161439478397,-0.059914224345237015,0.02860295761730522
1782814631496573200,8.5545732421875,-0.1535766967743635,0.060842298975586885,0.04178253799024969
1782814631516654300,8.574654296875,-0.16662731700539588,0.08398790450245142,0.06045797583311796
1782814631536736300,8.594736328125,-0.06036942076683044,0.11656798558980226,0.058079483198747034
1782814631556818200,8.614818115234375,0.1603735173076391,0.04580123557969928,0.0225155639950186
1782814631576899000,8.634899169921875,0.2542383804410696,-0.020468203011155126,-0.0044184374967589975
1782814631596981000,8.65498095703125,0.16007248853445052,0.003250964619964361,-0.03430434759669006
1782814631617063200,8.675063232421875,0.017986907589435577,0.053797056639194485,-0.07010021239276976
1782814631637144000,8.69514404296875,0.006718494600057602,0.012176321614533662,-0.11343491172846407
1782814631657226000,8.71522607421875,-0.004787234276533127,-0.021413521037250756,-0.10012564056124537
1782814631677308200,8.73530810546875,-0.09571429039239883,-0.010048515805602074,-0.07064392734803258
1782814631697388300,8.75538818359375,-0.12577975831031799,-0.00410305140465498,-0.036458493423275645
1782814631717470500,8.775470458984374,-0.08135667921602725,-0.021653175012022255,-0.02050696411896497
1782814631737552400,8.795552490234375,-0.03307458660602569,-0.050135173130780454,0.017570764536596832
1782814631757633500,8.815633544921875,-0.013016717961430549,-0.04373582748249173,0.020826843723095952
1782814631777715500,8.835715576171875,0.005119242709875106,-0.04649579371511936,0.024296821388602254
1782814631797797400,8.85579736328125,0.0020949264526367185,-0.03887289762124419,0.03569054125808179
1782814631817878500,8.87587841796875,0.026148586735129355,-0.016442016234993934,0.06707089116685092
1782814631837960400,8.89596044921875,-0.03127192109823227,0.03973272932097315,0.1244587388396263
1782814631858042400,8.91604248046875,-0.1326291858136654,0.10422390619292855,0.09330185895580798
1782814631878123500,8.93612353515625,-0.1327501818448305,0.09743833770602942,0.07201214696131646
1782814631898205400,8.956205322265625,-0.05046937352120876,0.10271627810895442,0.03407316918931901
1782814631918287600,8.97628759765625,0.06990764896273613,0.06991480935588479,-0.015054069007933138
1782814631938368500,8.996368408203125,0.13262217155098915,0.00813332983404398,-0.021097623488493263
1782814631958450400,9.016450439453125,0.04864975687861442,0.03475932482257485,-0.04600702381748706
1782814631978532600,9.03653271484375,0.06465630430579185,-0.0326689284145832,-0.05284487048089504
1782814631998613500,9.056613525390626,0.1484095232695341,-0.10658712819293141,-0.07003379609305412
1782814632018695700,9.07669580078125,0.10838321782946586,-0.1303339144833386,-0.04527987858671695
1782814632038777600,9.096777587890625,-0.05336860209405422,-0.03379953987970948,0.02133705826755613
1782814632058858800,9.116858642578125,-0.13975158503949642,0.0014094284065067767,0.0339117315499112
1782814632078940700,9.136940673828125,-0.0782610512882471,-0.028308541247993705,0.03229629570990801
1782814632099022600,9.157022705078125,-0.00838379746377468,-0.034989334186166524,0.08920593141168355
1782814632119103500,9.177103515625,-0.1583995868861675,0.04251300768926739,0.10572788101509213
1782814632139185400,9.197185302734376,-0.2705558935135603,0.12113602415770292,0.12891853126008063
1782814632159267300,9.217267333984376,-0.15875965237021444,0.1484337809279561,0.10390150583814829
1782814632179348500,9.237348388671874,0.14497078099250793,-0.00306888605132699,0.03386551778800785
1782814632199430400,9.257430419921874,0.2777671400666237,-0.10808248131722212,-0.0664192223250866
1782814632219512600,9.2775126953125,0.16668050849735735,-0.07709799885824323,-0.06019395460207015
1782814632239593500,9.297593505859375,-0.09819733937978745,-0.012623919251561163,-0.06850563667770475
1782814632259675400,9.31767529296875,-0.206982123747468,-0.03201630972474813,-0.07580748412366956
1782814632279757600,9.337757568359375,-0.09633914429247378,-0.1114464047923684,-0.058953708750009534
1782814632299838500,9.35783837890625,0.05173603245615959,-0.08649433436542749,-0.008061872033029794
1782814632319920600,9.377920654296876,-0.011456629037857055,-0.011894289802759885,0.05739822293631732
1782814632340002600,9.39800244140625,-0.10486614961922168,0.04746843813955783,0.04126947390157729
1782814632360083500,9.41808349609375,-0.13749240793585776,0.04893456516936421,0.057557066759839653
1782814632380165600,9.43816552734375,-0.08908581216335296,0.023459347651153803,0.05006360573191195
1782814632400247600,9.45824755859375,-0.0165349552154541,0.008653262054920195,0.017288367398642004
1782814632420328700,9.47832861328125,0.03715454939603805,-0.014309826511889695,0.00632821664083749
1782814632440410600,9.49841064453125,-0.010932897424697875,-0.0379595821686089,0.012408596000447868
1782814632460492500,9.518492431640626,-0.021914310166239737,-0.008339081539213656,-0.006242401520907878
1782814632480573400,9.538573486328126,-0.033925650477409364,-0.03701835579574108,-0.012632431351579725
1782814632500655400,9.5586552734375,-0.10090718286037445,-0.02498699560984969,-0.04640669065956026
1782814632520737500,9.578737548828125,-0.0996452001005411,0.004200666560232639,0.017838877420872448
1782814632540818400,9.598818359375,-0.09608020109534263,0.037647009088099,0.03444956475365907
1782814632560900400,9.618900390625,-0.030178865164518353,0.031401100435853,0.042150019595772026
1782814632580982500,9.638982421875,0.03834054431021213,0.022617782260477542,0.046891989958472546
1782814632601063400,9.6590634765625,0.10988251647651195,0.01169847496971488,0.06301445538289845
1782814632621145600,9.6791455078125,0.09108721511363983,-0.030294454368203876,0.01507182386033237
1782814632641227500,9.6992275390625,-0.009728197810053825,-0.010061667548120021,0.03783588272370398
1782814632661308400,9.719308349609374,-0.04360007227361202,-0.0027541210137307644,-0.028459201765060425
1782814632681390600,9.739390625,-0.04255202452540397,-0.025211159754544497,-0.042367242543026803
1782814632701472500,9.759472412109375,-0.06496551638543606,-0.01841770022213459,-0.012360665205493568
1782814632721553700,9.7795537109375,-0.10966039815843105,0.011216390541195869,0.04119001545719802
1782814632741635600,9.799635498046875,-0.13631634989380836,0.06802607299983501,0.051920229916647076
1782814632761717500,9.819717529296875,-0.05711304931938648,0.12350947529077529,0.06312134982347488
1782814632781798400,9.83979833984375,0.08071370513737201,0.037311639653891324,0.06843859932348131
1782814632801880300,9.85988037109375,0.20731939287781714,0.004418108703196049,0.017574563928879797
1782814632821962200,9.879962158203124,0.1805254939764738,0.0017266776621341704,0.0009503960600122809
1782814632842043400,9.90004345703125,0.021093056911230087,0.021285510743409394,0.01303724929280579
1782814632862125300,9.920125244140625,-0.10116904866695403,0.038161388351023194,-0.009244871272519231
1782814632882207500,9.94020751953125,-0.10658756658434868,0.00020049100816249847,-0.006136091602221131
1782814632902288400,9.960288330078125,-0.048587797558307645,-0.02592266902476549,0.010171776859089732
1782814632922370600,9.98037060546875,-0.019046645775437354,-0.026036943054199218,0.0004065349742770195
1782814632942452500,10.000452392578126,0.05303659366071224,-0.019030425292998553,-0.006032229368947446
1782814632962533400,10.020533447265626,0.06909282544851303,-0.034895372292399404,0.016241123368032274
1782814632982615600,10.040615478515624,-0.09712824884355067,-0.03432867832034826,-0.04247581748403609
1782814633002697500,10.060697509765625,-0.09945172335505485,0.011974369301646947,0.050164983747154474
1782814633022778600,10.080778564453125,-0.12400398080945015,-0.024877397755533454,0.025043182776495813
1782814633042860500,10.100860595703125,-0.15984627856314182,-0.012941022376716136,0.021554610008373856
1782814633062942500,10.1209423828125,-0.12693185095489024,0.005911708261817693,0.05440853960104286
1782814633083023600,10.141023681640625,-0.022069208467006683,0.011355799011886119,0.08521295278538019
1782814633103105500,10.16110546875,-0.051204702058434484,0.07936316731125116,0.04445756588578224
1782814633123187500,10.1811875,0.00843698895573616,0.06981237189471722,-0.005001607679575681
1782814633143268600,10.2012685546875,0.0996370167940855,-0.015603957975655794,-0.028963424960151314
1782814633163350500,10.2213505859375,0.04331014941632747,0.043271278710663316,-0.012628997285477816
1782814633183432700,10.2414326171875,-0.0993184523642063,0.08142185340672731,-0.03258125013113022
1782814633203513300,10.261513427734375,0.01636544386744499,0.04385755416601896,-0.05118179610688239
1782814633223595300,10.28159521484375,0.19548691626489162,-0.057896600912511344,-0.05168653075862675
1782814633243677400,10.301677490234376,0.06575169832706451,-0.015034341394156216,-0.04889233346283436
1782814633263758300,10.32175830078125,-0.07116027937233448,-0.06799480107873677,-0.06898859788905828
1782814633283840500,10.341840576171874,-0.004380407041311264,-0.09576295183971524,-0.061112567284330725
1782814633303922400,10.36192236328125,-0.03942483241558075,-0.09302373613417148,0.022242665337771177
1782814633324003600,10.382003662109375,-0.21869185076355932,-0.038585897373408076,0.014250899398885667
1782814633344085500,10.40208544921875,-0.11999942134320735,-0.05685702873170376,0.058376128057762974
