time,seconds_elapsed,z,y,x
1782814097293688000,0.06568798828125,-0.5397036737948656,0.04901018768884241,0.2187739760890603
1782814097313770000,0.08577001953125,0.0014215572357177734,0.08571648186072707,0.4404737764969468
1782814097333852200,0.10585205078125,0.4167196836829185,-0.34454211702682075,0.1279488459777087
1782814097353934000,0.12593408203125,0.46011868042647835,-0.12089213239923119,0.09215199480094015
1782814097374016000,0.14601611328125,0.5333236173689365,0.33628041157275435,0.6213204652518034
1782814097394098000,0.166097900390625,0.5489233375608921,0.03416778867021203,0.8425325552079826
1782814097414180000,0.18618017578125,0.0009808277308940886,-0.3114792208585888,0.0487528519269079
1782814097434262000,0.206261962890625,-0.505539538386464,-0.45103462573885916,-0.7438928788881749
1782814097454344000,0.226343994140625,-0.3513116842269897,-0.12454685551449655,-0.9032756315927952
1782814097474426000,0.246426025390625,0.34450901847481724,0.005326455719769,-0.7000315253298729
1782814097494508000,0.266508056640625,0.2692617620497942,-0.519475490084663,-0.5855460451025516
1782814097514590000,0.28658984375,-0.42332770364582534,-2.0136030911684033,-1.2600694735579192
1782814097534672100,0.306672119140625,-0.8228115903675556,-2.2608831769041715,-1.9055792081706224
1782814097554754000,0.326754150390625,-0.5171206705868244,-1.2152512576662002,-2.5330893218427897
1782814097574836000,0.3468359375,-0.13569792573451994,-0.5814307918034494,-3.462344101887941
1782814097594918000,0.36691796875,0.5497206254184246,-0.2497882691644132,-3.3450472175017
1782814097615000000,0.387,0.7332721892178058,0.36249358797669406,-3.050870209904015
1782814097635082000,0.40708203125,0.27410803303718567,1.1171348745681344,-2.315989562576264
1782814097655164000,0.427163818359375,0.4637327792704105,1.6149520020090042,-1.3148242693133652
1782814097675246000,0.44724609375,0.43399873526394367,1.6780917642720043,-0.7821455257192254
1782814097695328000,0.467327880859375,-0.4693722464621067,1.940897774311155,-0.701479532181099
1782814097715410000,0.487409912109375,-1.0345499687314033,2.05795047467798,-0.7875199122339487
1782814097735492000,0.5074921875,-0.8256909451961517,1.5539857843928038,-0.7943257197912782
1782814097755574000,0.527573974609375,-0.35454701288640494,1.161753330104053,-0.2831538746062666
1782814097775656000,0.547656005859375,0.15811200211644172,0.7855169018484651,-0.14653525383025406
1782814097795737900,0.56773779296875,0.6264613352715969,0.33216435455605386,0.39173608560655265
1782814097815820000,0.587820068359375,0.7197253099024296,-0.22067308770865202,0.8856334457878022
1782814097835902000,0.60790185546875,0.4085118273079395,-0.4053577471911907,0.5583053157491609
1782814097855983900,0.62798388671875,0.15801614052653312,0.023274054212123155,0.8681056070774793
1782814097876066000,0.648066162109375,-0.7592243765980005,-0.020041648162156343,1.26191422464177
1782814097896148000,0.66814794921875,-1.9795067602992056,0.11399988866746424,1.378144210448861
1782814097916230000,0.68822998046875,-2.3824118536412713,0.49572950751185413,1.2480775685995817
1782814097936312000,0.70831201171875,-2.3349808249026536,0.6602047610498964,1.5711515848577022
1782814097956394000,0.72839404296875,-1.8165286134511232,0.6941125836096703,1.7927523088052868
1782814097976476000,0.748475830078125,-0.8358055119752883,0.6019827275753021,1.6982931330405175
1782814097996557800,0.768557861328125,0.02581073308289051,0.2557533150486648,1.8366209688872097
1782814098016640000,0.788639892578125,0.6069727909475564,-0.09113076199442148,2.1038164460569617
1782814098036722000,0.808721923828125,0.9760533560991287,-0.30658450761958955,1.8278724297642708
1782814098056803800,0.828803955078125,1.1237918482393026,-0.2300581711694598,1.1928721795324235
1782814098076886000,0.848885986328125,1.033709426254034,-0.1986570707336068,0.8010561970900744
1782814098096968000,0.868968017578125,0.5655997470736503,-0.1647567008279264,0.6841969734687358
1782814098117049900,0.8890498046875,0.16515315279960632,-0.05156169880256056,0.5273178741481155
1782814098137132000,0.909132080078125,0.012718027275800705,-0.02925064440369606,0.3709020449576899
1782814098157214000,0.9292138671875,0.06272036780714989,-0.03655366089344025,0.322034480609931
1782814098177296400,0.94929638671875,-0.07551905910372733,0.08263985089436172,0.35081484062075613
1782814098197378300,0.96937841796875,0.03890811506509781,0.18704861213490365,0.17914306317474693
1782814098217460500,0.98946044921875,0.09703764795064926,0.15160378926619886,0.03086317590055987
1782814098237541400,1.009541259765625,0.09538812717795371,0.09127017046511172,0.13449432209841905
1782814098257623600,1.02962353515625,-0.04991349320411682,0.03243950357288122,0.1417571892408654
1782814098277705500,1.04970556640625,-0.19091420152187347,0.08433657180964946,0.05394468494895845
1782814098297788400,1.069788330078125,-0.17367431290745733,0.10035071802139281,-0.04941266754250973
1782814098317869300,1.089869384765625,-0.1604214481025934,0.09280205620750784,-0.07994462046101689
1782814098337951500,1.109951416015625,-0.06199731422960758,0.10486103505268693,0.016623071890324352
1782814098358033400,1.130033447265625,-0.042328152641654015,0.07474018368571997,0.04367251645531505
1782814098378115300,1.150115234375,-0.0955453635662794,0.08681889014467596,0.14714794236849993
1782814098398197500,1.170197509765625,0.004808277064561843,0.2158401145942509,0.04758819206170738
1782814098418279400,1.190279541015625,0.11299918719232081,0.19346856217980385,0.11749660820942372
1782814098438361300,1.210361328125,0.09130407273471355,0.08697671105489134,0.40240507139805703
1782814098458443500,1.230443603515625,0.04946399587094784,0.08279328789040445,0.43668081395477054
1782814098478525400,1.250525390625,0.2096750160932541,0.05778861049339175,0.2740772360401228
1782814098498607400,1.270607421875,0.09548691137731075,0.014964052636921405,0.23248561751209199
1782814098518689300,1.290689208984375,-0.02677577872276306,0.023364508974552153,0.2820749202631414
1782814098538771500,1.310771484375,-0.03888590323328971,-0.07271627664268017,0.21904179671239107
1782814098558853400,1.330853271484375,-0.05606909322440624,-0.09364771325141191,0.17615889626480638
1782814098578935300,1.350935302734375,-0.12935352514386175,0.0028162264645099637,0.23874814850557594
1782814098599017500,1.371017578125,-0.19795242959558962,0.03419409215524793,0.22547643286976962
1782814098619099400,1.391099365234375,-0.12407704604566097,0.0690568773522973,0.1399736302923411
1782814098639181300,1.411181396484375,-0.1093921026110649,0.11036094764322042,0.06864383957199752
1782814098659263500,1.431263427734375,-0.10888532213270663,0.19625600094124673,0.01235270109474659
1782814098679345400,1.451345458984375,-0.008223638466000556,0.21802622646167874,-0.01778798748385161
1782814098699427300,1.47142724609375,0.10398352156579493,0.20982056204378605,0.11647902866471559
1782814098719509200,1.49150927734375,0.2638976046681404,0.08207914827167988,0.02841185549199581
1782814098739591400,1.51159130859375,0.348629313275218,0.01853212038204074,-0.0036131124632433056
1782814098759673300,1.53167333984375,0.3497749761790037,-0.055882046219706535,-0.014800605703517794
1782814098779755300,1.55175537109375,0.28714520926475523,-0.13130641277730465,-0.08036606074348092
1782814098799837400,1.57183740234375,0.03328384544253349,-0.12507672460749744,-0.0038700463663786646
1782814098819919400,1.59191943359375,-0.09705985978245735,-0.10079027848243713,0.04531173502970487
1782814098840001300,1.612001220703125,-0.03858428993821144,-0.10432999691590666,0.1282559756981209
1782814098860083500,1.63208349609375,-0.08721651116013526,-0.13238777827322482,0.05278769693356007
1782814098880165400,1.652165283203125,-0.265636557289958,-0.05100479557216167,-0.0792074652928859
1782814098900247300,1.672247314453125,-0.3506067508280277,0.08640738673433661,-0.28702567453831435
1782814098920329200,1.6923291015625,-0.41571079890131946,0.13371858848556875,-0.2953161676954478
1782814098940411400,1.712411376953125,-0.49725920129716394,0.1774937250651419,-0.06681770185707137
1782814098960493300,1.732493408203125,-0.32575171103477474,0.15081220049709082,0.07986364591298624
1782814098980575200,1.7525751953125,0.09371931718289851,0.08696706644371151,0.03171829489255324
1782814099000657400,1.772657470703125,0.4184504529982805,-0.00860839999988675,-0.07021055916575715
1782814099020739300,1.7927392578125,0.4642623561024666,-0.020912001255899666,-0.05992209712443873
1782814099040821200,1.8128212890625,0.42692952753007407,0.034039778376370664,-0.14787253031600267
1782814099060903400,1.8329033203125,0.13262509416043758,0.15294658217728138,-0.10685043703792615
1782814099080985300,1.8529853515625,-0.10014788892567157,0.22392039906680583,-0.04897579222889617
1782814099101067300,1.8730673828125,-0.18478724307417868,0.21004750266745686,-0.16169643647447227
1782814099121149200,1.893149169921875,-0.319634104937315,0.18736235425919293,-0.1751884620637633
1782814099141231400,1.9132314453125,-0.3589852875947952,0.13257299864701927,-0.11500115639818832
1782814099161313000,1.93331298828125,-0.18237959741055965,0.04014072559997439,-0.11599038663124665
1782814099181395000,1.95339501953125,-0.05670096138715744,-0.005388634235784411,-0.18162295209066942
1782814099201477000,1.97347705078125,-0.08920037845373154,-0.04239836833365261,-0.24870156990624961
1782814099221559000,1.99355908203125,-0.07161036122739314,-0.0413438177794218,-0.17155693716099485
1782814099241641000,2.013640869140625,-0.07689911528527736,-0.04874518007710576,-0.06752743929531425
1782814099261723100,2.03372314453125,-0.020987258449196813,-0.13052885253354907,-0.07794287045085803
1782814099281805000,2.05380517578125,0.022308277919888497,-0.1048993943016976,-0.05653705779602751
1782814099301887000,2.073886962890625,0.11664368117451666,-0.10487762086130678,-0.002444050417561084
1782814099321969200,2.09396923828125,0.07281213823258877,-0.09286021613553166,0.011375124766863882
1782814099342051000,2.114051025390625,0.0006885667860507964,-0.11392704262696206,0.0598257058115676
1782814099362133000,2.134133056640625,0.04052431809008121,-0.06745024587325751,0.10723697040379047
1782814099382215000,2.15421484375,0.025908932760357856,-0.06962817443422972,0.13185754385404289
1782814099402297000,2.174297119140625,-0.1042810432076454,-0.0543568094138056,0.10886882765563204
1782814099422379000,2.19437890625,-0.24628888274133204,0.008404401860386133,0.10599743693778291
1782814099442461000,2.2144609375,-0.13599018667936325,0.005287950340285897,0.047932237992715086
1782814099462543000,2.234543212890625,-0.10641513262689113,-0.13142141745910046,-0.01677082806425169
1782814099482625000,2.254625,-0.1136275482237339,-0.13698621197938918,0.005838917020242661
1782814099502707000,2.27470703125,-0.14224749350845814,-0.1417950005006045,-0.02514624129217118
1782814099522789000,2.2947890625,-0.1601473073363304,-0.09399923010282218,-0.10827091656140983
1782814099542871000,2.31487109375,-0.10336568192839622,-0.04532843043617904,-0.01332821332970634
1782814099562953000,2.334952880859375,0.0037023616492748257,-0.05322641714438796,0.056292051792703565
1782814099583035000,2.355034912109375,0.16033026268780232,-0.08771846933290361,0.10270992143340409
1782814099603117000,2.375116943359375,0.08239362104833126,-0.04116407729834318,0.12443716632863507
1782814099623199000,2.395198974609375,-0.008443418696522712,0.07063099480122327,0.08817246017809957
1782814099643281000,2.415281005859375,-0.02016483615040779,0.1559853653512895,-0.02950387024609372
1782814099663363000,2.435363037109375,-0.06194762986898422,0.20795783691182732,-0.003746292122546583
1782814099683445000,2.455445068359375,-0.04611176283359527,0.1399061910793185,0.026542353559378534
1782814099703527000,2.47552685546875,0.0020306290447711945,0.07974325267001986,0.028856585318502038
1782814099723609000,2.495609130859375,0.006347907721996307,0.028816198509186503,-0.01688066338058561
1782814099743691000,2.51569091796875,-0.007312953361868858,0.0109067400701344,-0.03419719742778689
1782814099763773000,2.53577294921875,0.07031739880740642,-0.004599748880416155,0.01379429647149518
1782814099783854800,2.555854736328125,0.09770108029544353,-0.00733355775848031,0.07038721264060586
1782814099803937000,2.57593701171875,0.12210370014607906,-0.07411752174273133,0.11122375675132498
1782814099824019000,2.59601904296875,0.10310849229693413,-0.10746814881116151,0.1766405971008353
1782814099844100900,2.616100830078125,0.10659341180324554,-0.11340382247045636,0.18544364288998766
1782814099864183000,2.63618310546875,0.055933484145998955,-0.06328881534487009,0.1265314443273004
1782814099884265000,2.656264892578125,-0.03655658350288868,-0.037411446766555306,0.18394374145474285
1782814099904347000,2.676346923828125,-0.18379881655871866,-0.0011439093381166458,0.19142441606633365
1782814099924429000,2.696428955078125,-0.16897534143626688,0.0761142485179007,0.13973357445877044
1782814099944511000,2.716510986328125,-0.09519114330112934,0.04975757199004292,0.0596157528553158
1782814099964593000,2.736593017578125,-0.08893851264715194,0.08306742865666747,-0.047509427737072105
1782814099984674800,2.7566748046875,-0.1238356385052204,0.1134108367331326,-0.11049169788341968
1782814100004757000,2.776757080078125,-0.010405658680200576,0.07104381338581442,-0.08430447790464386
1782814100024839000,2.7968388671875,-0.015495675295591354,0.046242403475940226,-0.05343991376459598
1782814100044920800,2.8169208984375,-0.012293664383888243,0.0925472046636045,-0.05881307643661275
1782814100065003000,2.8370029296875,0.037412323549389837,0.08652180689424276,-0.11018250407008454
1782814100085085000,2.8570849609375,0.07558101842403411,0.10031740027368068,-0.12448789186887442
1782814100105166800,2.877166748046875,0.05860007300674915,0.09840484465062618,-0.058083812313992525
1782814100125249000,2.8972490234375,0.006537877336144447,0.10897840724363922,-0.0004063705774955451
1782814100145331000,2.9173310546875,-0.03884264861345291,0.13067469074502586,0.004718132829386741
1782814100165413600,2.93741357421875,0.05914777001738548,0.07560527608245611,0.07336184453722089
1782814100185495600,2.95749560546875,0.26560733119547364,0.004164426203072071,0.061978189404029396
1782814100205577700,2.97757763671875,0.3253261790990829,0.004695025948435068,-0.006652315762359648
1782814100225659600,2.99765966796875,0.14711656084954738,0.013752338759601116,-0.015019253422878681
1782814100245741600,3.017741455078125,0.045421442481875414,0.018427783224731684,0.01148959972569719
1782814100265823500,3.037823486328125,-0.09590133739709854,-0.041233781533688306,0.05070214109746739
1782814100285905700,3.05790576171875,-0.1867249331384897,-0.095508830948174,-0.01125190024599433
1782814100305987600,3.077987548828125,-0.22886545425355434,-0.07210720483362675,-0.044580881738197055
1782814100326069500,3.098069580078125,-0.21056991910636425,-0.06329407604187727,-0.07196554960692302
1782814100346151700,3.118151611328125,-0.3022001550555229,-0.07125088026523589,-0.10436857536062598
1782814100366233600,3.138233642578125,-0.29848084227144717,-0.07180529927760362,-0.051338959429971874
1782814100386315500,3.1583154296875,-0.2960451395571232,-0.07907543641105294,-0.0801712505574338
1782814100406397700,3.178397705078125,-0.2109890213012695,-0.05424056262299418,-0.01372556035052985
1782814100426479600,3.198479736328125,-0.059302083796262735,-0.007440525264292955,0.008377349456679076
1782814100446561500,3.2185615234375,0.07554127093553542,0.003822480897605419,0.04897855044156313
1782814100466644500,3.23864453125,0.17194412811398505,-0.04542509574368596,0.10498458836711942
1782814100486725600,3.2587255859375,0.31915538150966166,-0.053770460893213745,0.09598094197195023
1782814100506808600,3.27880859375,0.33663258601129054,-0.04291165161803365,0.023653993440419435
1782814100526890500,3.298890380859375,0.2836521064519882,0.007010755544900894,-0.0774003062730655
1782814100546972400,3.318972412109375,0.18587386926710606,0.059876961074769496,-0.14040120805464684
1782814100567054600,3.3390546875,0.035979075875878334,0.03532689557746053,-0.14114937780713663
1782814100587136500,3.359136474609375,-0.15457389111816883,0.06736483261212706,-0.05744372431216761
1782814100607218400,3.379218505859375,-0.23275194029808044,0.05339958175420761,-0.046575781882461156
1782814100627300600,3.399300537109375,-0.11713994025886058,0.014266425761580466,-0.0522437993152067
1782814100647382500,3.419382568359375,0.04331131846010685,0.04104994939938188,-0.026055428558960557
1782814100667464400,3.43946435546875,0.10636720183193683,0.08390285656750202,-0.010118987225927412
1782814100687546400,3.45954638671875,0.093802319291234,0.07199176176041364,0.04410619516484439
1782814100707628500,3.479628662109375,-0.037159225571155544,0.08723075888119637,0.00605540931513533
1782814100727710500,3.49971044921875,-0.08464227675795555,0.11454283643774688,-0.044083599740546195
1782814100747792400,3.51979248046875,-0.08188333343863487,0.10060366986915469,0.06691694271415471
1782814100767874600,3.53987451171875,-0.08301204520761966,0.019592589220404622,0.14664451375785284
1782814100787956500,3.55995654296875,-0.050776247513294216,-0.0019439736746251581,0.1182766709375195
1782814100808038400,3.580038330078125,-0.02417816344499588,0.04145933391787111,0.05920676106247119
1782814100828120600,3.60012060546875,-0.054478609162569046,0.042217751069739455,-0.08465809538159519
1782814100848202500,3.620202392578125,-0.037648470392823215,0.06442885222546756,-0.13311814750754275
1782814100868284400,3.640284423828125,-0.02425707390010357,0.03717734574973583,-0.13793972244509495
1782814100888366300,3.660366455078125,-0.07045709953904152,0.020714944313839075,-0.05772049542693421
1782814100908448500,3.680448486328125,-0.18221242415010927,-0.01822597704231739,-0.027391353337839243
1782814100928530400,3.700530517578125,-0.19393091899454593,-0.045511824179068204,-0.026157007503602652
1782814100948612400,3.7206123046875,-0.17913257831335067,-0.0920429814685136,0.05852785715390928
1782814100968694500,3.740694580078125,-0.10544541081190109,-0.14152984675839542,0.12547584346029908
1782814100988776400,3.7607763671875,-0.08454641516804695,-0.16437888049148022,0.1279827847799286
1782814101008858400,3.7808583984375,-0.092090254676342,-0.12719305917434393,0.18824432472549377
1782814101028940500,3.8009404296875,-0.1154179387718439,-0.07960406339503824,0.1706412105555646
1782814101049022500,3.8210224609375,-0.07217033319771289,-0.042087694949284195,0.1281220288538374
1782814101069104400,3.8411044921875,-0.06494798072874546,0.008178484150022269,0.02464559829365462
1782814101089186300,3.861186279296875,-0.03733282857239246,0.06267345992550254,-0.06446672741728834
1782814101109268500,3.8812685546875,0.01001636710166931,0.10955839908868074,-0.06990352077689022
1782814101129350400,3.901350341796875,0.07848200056254863,0.10485270561575889,-0.08129870195109397
1782814101149432300,3.921432373046875,-0.032548516905307766,0.19405074598193167,-0.08251102774976753
1782814101169513700,3.941513671875,-0.16591712290942667,0.265832372123003,-0.12720529760140925
1782814101189595600,3.961595703125,-0.12843874838650227,0.3155960815928876,-0.03984528631735593
1782814101209677800,3.981677734375,-0.07942717245817184,0.2399354220613837,0.09027833728301338
1782814101229759700,4.001759765625,-0.004540566039085388,0.1565240022726357,0.18310824047867208
1782814101249841700,4.021841552734375,0.03926525793969631,0.1200396072231233,0.2176664715048857
1782814101269923600,4.041923583984375,0.1429413209915161,0.07657163689658045,0.24463150745574383
1782814101290005800,4.062005859375,0.26043080534040924,0.024173341139405963,0.19541209746301172
1782814101310087700,4.082087646484375,0.18068156132102012,-0.010033025975525378,0.1739670853089541
1782814101330169600,4.102169677734375,0.040891982358694075,-0.03448986023142934,0.1381758236227557
1782814101350251800,4.122251708984375,-0.0457838460534811,-0.02029372322708368,0.07698344170101917
1782814101370333700,4.142333740234375,-0.16945231129825114,0.005759294179081917,-0.012515695937001145
1782814101390415600,4.16241552734375,-0.22297055099606514,0.0338901407726109,0.0072459068744909014
1782814101410497800,4.182497802734375,-0.16528583926856516,-0.002023760912567377,-0.011216436206968501
1782814101430579700,4.202579833984375,-0.04004091848731041,-0.028611908108741042,-0.027473784624016843
1782814101450661600,4.22266162109375,-0.014622984114289283,0.0062852177493274205,-0.06926641018344089
1782814101470743600,4.24274365234375,-0.09408815049529075,0.048659547620266676,-0.08858105011214501
1782814101490825700,4.26282568359375,-0.12265841141939163,0.0883813171558082,-0.03810060949093895
1782814101510907600,4.28290771484375,-0.09048457304537295,0.08881167139708995,-0.06608348756469785
1782814101530989600,4.302989501953125,0.018230068695545196,0.10099471501335501,-0.05096350458054803
1782814101551071700,4.32307177734375,0.0022486557096242903,0.0921495836481452,-0.03063163216700777
1782814101571153700,4.343153564453125,-0.024926935985684393,0.12877426395118236,-0.019010546982171944
1782814101591235600,4.363235595703125,0.022307108876109122,0.12545754061862827,-0.0392132857238641
1782814101611317800,4.38331787109375,0.05102291575074196,0.10087021185085177,-0.06826746684054379
1782814101631399700,4.403399658203125,0.020020459243655205,0.0997720413506031,-0.04973716852283105
1782814101651481600,4.423481689453125,0.07727730094790458,0.07575593659952283,-0.04384331557811238
1782814101671563500,4.4435634765625,0.05372106879353523,0.03405877533778548,-0.08781242209351621
1782814101691645700,4.463645751953125,0.047315877926349635,0.07018003616333007,-0.11669717406057752
1782814101711727600,4.4837275390625,-0.05735445685982704,0.04319543699547648,-0.2060145756232552
1782814101731809500,4.5038095703125,-0.06289513985216617,0.10221855771988629,-0.2089268098081462
1782814101751891700,4.5238916015625,-0.07460428234636783,0.05011106160283088,-0.18294062882680445
1782814101771973600,4.5439736328125,-0.08640636382102966,0.021492577622830866,-0.04997494106777012
1782814101792055600,4.5640556640625,-0.02118482684791088,-0.0055383449047803875,-0.013196677638217805
1782814101812137700,4.5841376953125,-0.06204933667778968,-0.027668343648314473,-0.004494169614091516
1782814101832219600,4.6042197265625,-0.1576771178305149,-0.008385989420861006,0.021480686255637555
1782814101852301600,4.624301513671875,-0.15956395449042318,0.02802928591519594,0.08207131202509627
1782814101872384800,4.644384765625,-0.11059680222570896,-0.013976064512878656,0.12796837266208602
1782814101892466700,4.664466796875,0.012031798577308654,-0.04549129284769297,0.11413071197289973
1782814101912548900,4.684548828125,0.08753449106812476,-0.07221577977463603,0.13020910079358144
1782814101932630800,4.704630859375,0.06909107188284397,-0.037647301349043844,0.13064745567822827
1782814101952712700,4.724712646484375,0.002131166809797287,-0.005074965176731348,0.08255949740083887
1782814101972795000,4.744794921875,-0.034931612649559976,0.05601224847063422,0.061106703799124806
1782814101992876800,4.764876708984375,-0.03579670504629612,0.07487593889459968,0.05215509811844676
1782814102012958700,4.784958740234375,-0.11901391743719578,0.07530176309123635,0.06801003518048673
1782814102033040600,4.80504052734375,-0.086269585698843,0.10799158816337585,0.04764194980924949
1782814102053122800,4.825122802734375,0.04835223523676395,0.08665273979753255,-0.03710577835086733
1782814102073204700,4.845204833984375,0.13151508709192275,0.0601011252194643,-0.09235557281533256
1782814102093286700,4.86528662109375,-0.021823709273338317,0.061412500078976154,-0.11101488150730729
1782814102113368800,4.885368896484375,-0.13975509217083454,0.12015037412121891,-0.0957177792574279
1782814102133450800,4.90545068359375,-0.016897358787059783,0.06452332557588815,-0.10722734405891969
1782814102153532700,4.92553271484375,0.16291677204966545,0.0005687397986650467,-0.048428497077059
1782814102173615000,4.945614990234375,0.1990039844751358,-0.06812558785155415,-0.012039433894492685
1782814102193697300,4.965697265625,0.08667173675894736,-0.0075169515013694755,-0.045647597654256966
1782814102213779200,4.985779296875,0.004622983625531196,0.05805953638926148,-0.06593684563562274
1782814102233861000,5.005861083984375,-0.0911363149523735,0.10977847158014774,-0.035907197949755935
1782814102253943300,5.025943359375,-0.08200374494791031,0.11304755637869238,-0.028611835043504834
1782814102274025200,5.046025146484375,0.004421908095479011,0.1145686284661293,-0.012226444366574286
1782814102294107100,5.066107177734375,0.12047346859574318,0.053638066685199735,0.033523316754214466
1782814102314189300,5.086189208984375,0.1472808115005493,0.05489698070511222,0.10799734205072745
1782814102334271200,5.106271240234375,-0.006796820533275604,0.028462124374508856,0.11137805226389318
1782814102354353200,5.126353271484375,-0.05482990681827068,0.015753011057525874,0.15339554978748782
1782814102374435000,5.14643505859375,-0.03920505218505859,-0.017744769396632908,0.12836789337368681
1782814102394517200,5.166517333984375,-0.07398936531841754,-0.03300853563249111,0.12850565787656232
1782814102414599200,5.18659912109375,-0.10110592030286789,-0.03233209767565131,0.13037110468856988
1782814102434681000,5.20668115234375,-0.08525251761078834,-0.042163901990652085,-0.014293825225159524
1782814102454763300,5.22676318359375,-0.08400748598575591,0.024085370595008135,-0.09572937836367636
1782814102474845200,5.24684521484375,-0.10075754525661468,0.003940700449794531,-0.06171583040710538
1782814102494927000,5.266927001953125,-0.07723638441562652,-0.0061079614862799645,0.00020319442190229892
1782814102515009300,5.28700927734375,-0.07950959004461765,0.002459814242273569,-0.06612780163045973
1782814102535091200,5.30709130859375,-0.0064577978372573844,0.02851210099607706,-0.1379523535978049
1782814102555800300,5.32780029296875,0.05945873566269874,0.034277824915945526,-0.1331005296524614
1782814102575882200,5.34788232421875,0.08697218101024627,0.0016505436860024929,-0.038745069990493354
1782814102595964200,5.367964111328125,0.025189970836043355,-0.03487272206917405,0.04932045921441167
1782814102616046000,5.388046142578125,0.04932137252986431,-0.016935352709889412,0.09709650199841707
1782814102636128300,5.408128173828125,0.10413432821333407,-0.035955402739346026,0.09035601476226002
1782814102656210200,5.428210205078125,0.12106383570432662,-0.0564846882879734,0.19711122953109442
1782814102676292000,5.4482919921875,0.1511199512720108,-0.09879954305663705,0.34224483640249814
1782814102696374300,5.468374267578125,0.09912965179383754,-0.08705101840011775,0.2903031253064051
1782814102716456200,5.488456298828125,0.026887422403693198,0.006850012025237083,0.1763021406603977
1782814102736538000,5.5085380859375,-0.04543430196344852,0.03687624391131103,0.11826967494115233
1782814102756620300,5.528620361328125,-0.10437924288511276,0.06494907670728862,0.04871657503712922
1782814102776702200,5.5487021484375,-0.15310966378450394,0.05244103892035782,-0.003339483153633773
1782814102796784000,5.5687841796875,-0.14677520006597042,0.031338629658892746,-0.06061239920984953
1782814102816866000,5.588865966796875,-0.11013327636718749,0.013509323783963918,-0.10863649847079068
1782814102836948200,5.6089482421875,-0.10782090777158737,0.004433744663745165,-0.18164646083042024
1782814102857031200,5.62903125,-0.09033551996350288,0.016429229818657038,-0.11404602936413138
1782814102877113000,5.649113037109375,-0.15788520762324332,-0.014044380508735774,-0.06979837990198284
1782814102897823000,5.669822998046875,-0.16564824284017085,0.054814636183902615,-0.11801734414789825
1782814102917905200,5.6899052734375,-0.08676876739263534,0.04719758530892432,-0.11827782171498984
1782814102937987000,5.709987060546875,-0.009800094002485275,0.041003041517734526,-0.12313461409639566
1782814102958069000,5.730069091796875,0.08550561558902263,0.05277472785413265,-0.05225424764398485
1782814102978151200,5.750151123046875,0.1945902596861124,0.0062817106179893015,0.037890206726826726
1782814102998233000,5.770233154296875,0.17524200061559675,-0.04750350945293903,0.04522310689818114
1782814103018315000,5.79031494140625,0.03110182522833347,0.033430414306372405,0.04725187277942896
1782814103038397200,5.810397216796875,-0.06750234138667584,0.025575901413708923,0.021281126829236746
1782814103058479000,5.83047900390625,-0.05897650510370731,0.033440570374205704,0.08286061750557273
1782814103078561000,5.85056103515625,0.03541968842744827,-0.020316957972198724,0.03761423932965845
1782814103098643000,5.870642822265625,0.023740941071510313,-0.034571254904568194,0.016993220376968383
1782814103118725400,5.890725341796875,-0.010249006813764571,-0.03257672008648515,0.021162176624685523
1782814103138807300,5.910807373046875,-0.042915597140789026,-0.03053447366915643,-0.031782427903637285
1782814103158889200,5.93088916015625,-0.13120178335905075,-0.008926599103584886,-0.045777050986513496
1782814103178972200,5.95097216796875,-0.2542769588857889,0.021369097373634575,-0.07229885494820773
1782814103199054300,5.971054443359375,-0.19192425534725188,0.041644846552610394,-0.07338635792396962
1782814103219136300,5.99113623046875,-0.044970191583037375,0.012574234890937805,-0.09456658166199922
1782814103239218200,6.01121826171875,0.019309680625796317,0.022341814863309262,-0.03376308032684028
1782814103259300400,6.03130029296875,0.0678214903384447,0.03382335914671421,-0.03802523128334433
1782814103279382300,6.05138232421875,0.12436229272782802,0.0038886780016124246,-0.08318418690413236
1782814103299464200,6.071464111328125,0.1106429794549942,0.023786314583197233,-0.05828541756700724
1782814103319546000,6.091546142578125,0.04808335516750812,0.013749708411097525,-0.05326174418609589
1782814103339628300,6.111628173828125,-0.03274666982591152,0.05731631680652499,-0.06974350790958851
1782814103359710200,6.131710205078125,-0.02744973246157169,0.046932066240534184,-0.06667977295741438
1782814103379792100,6.151792236328125,-0.08472761695384978,0.0403446506742388,-0.04920052262917161
1782814103399874300,6.171874267578125,-0.14714929407536984,0.01942198189385235,0.024538155863806605
1782814103419956200,6.191956298828125,-0.19004384842813013,-0.005819938325136899,0.056811472556926305
1782814103440038100,6.2120380859375,-0.19312895496189594,0.02399367372356355,0.017089447293058037
1782814103460120300,6.232120361328125,-0.16380699888765812,0.03498911499045789,0.021995814437232912
1782814103480202200,6.2522021484375,-0.11471885059177875,0.028187179890647528,0.061547415037639434
1782814103500284200,6.2722841796875,-0.07003682830035686,0.021545915245264766,0.08706742154564708
1782814103520366000,6.292365966796875,-0.06543254937529563,0.007870879505574703,0.07545461556538939
1782814103540448300,6.3124482421875,-0.003868365865945816,-0.002008855604380369,0.0498863494688645
1782814103560530200,6.3325302734375,0.07256196286380291,-0.026223113276064393,0.06646174629256128
1782814103580612000,6.352612060546875,0.08637129250764847,-0.048857554410398005,0.044558213248662645
1782814103600694300,6.3726943359375,0.04950783501267433,0.0006515227112919091,0.0005665113089606165
1782814103620776200,6.392776123046875,0.025592121896147728,0.02375577331446111,0.01623352458346635
1782814103640859100,6.412859130859375,0.042680619341135026,0.0007731763295829296,0.03785579300057143
1782814103660941000,6.432941162109375,0.04908522568643093,0.02250511566624045,-0.004896722532995045
1782814103681023200,6.453023193359375,0.038006782311201096,0.047195028025656935,-0.0932021249083802
1782814103701105200,6.473105224609375,-0.03080897976160049,0.09113536510430276,-0.0882030379794538
1782814103721187000,6.49318701171875,-0.0988309611082077,0.0847040899477899,0.005969612461514771
1782814103741269000,6.51326904296875,-0.10483692352473735,0.037651685263216494,0.0015082126058638095
1782814103761351200,6.53335107421875,0.010551204630732535,0.013016352635249495,-0.00790226102452725
1782814103781433000,6.55343310546875,0.07714227639138699,-0.0402616485659033,0.01388009332511574
1782814103801515000,6.573514892578125,-0.04692366373836994,-0.00344707171395421,0.0023059023221954703
1782814103821597200,6.59359716796875,-0.06976561014354228,0.06450973544195295,-0.062262139178253705
1782814103841679000,6.61367919921875,-0.05202712435722351,0.07386705411300062,-0.054366855883784586
1782814103861761000,6.633760986328125,0.0011895020455121993,0.0803565622627735,0.018127996560558676
1782814103881843200,6.65384326171875,0.02274900742471218,0.06431355528272688,-0.03941263052113354
1782814103901925000,6.673925048828125,0.022208909198641776,0.06999430433288216,-0.11084840236660093
1782814103922007000,6.694007080078125,-0.018062310913205145,0.060238049472123384,-0.0659689943395555
1782814103942089000,6.7140888671875,0.03261515240073204,-0.003630757717788219,0.030906485319323836
1782814103962171100,6.734171142578125,0.03643441842794418,-0.035312793986871836,0.0446152771981433
1782814103982253000,6.754253173828125,-0.008277414479851723,-0.027135698076337575,0.020026267929933964
1782814104002335000,6.7743349609375,-0.015175357300043105,-0.042384632069244976,0.012364026206359267
1782814104022417200,6.794417236328125,-0.06210486625730991,-0.04720847202911973,0.03185578540079295
1782814104042499000,6.8144990234375,-0.09605857378542422,-0.05067804783582687,-0.09717340315952896
1782814104062581200,6.834581298828125,-0.07380524092316627,-0.00828976250477135,-0.1139529807858169
1782814104082664200,6.854664306640625,-0.07002981403768062,-0.010526070189476013,-0.059112223779968914
1782814104102746400,6.874746337890625,-0.021890929290652273,-0.0018006927464157341,-0.031544819755479694
1782814104122828300,6.894828369140625,-0.05394844780862331,0.002703925196453929,-0.012536679359525441
1782814104142910200,6.91491015625,-0.08405249417126179,0.0623539456475526,-0.06995547015983611
1782814104162992000,6.9349921875,-0.1247246962994337,0.10597849477529525,-0.10831081018038094
1782814104183074000,6.955073974609375,-0.10778174480497836,0.1080418570458889,-0.008459493048489093
1782814104203156000,6.975156005859375,-0.013546294793486595,0.005653203456103801,0.0601922741016373
1782814104223238000,6.99523779296875,0.038352234748005865,-0.05271466822996735,0.11789229299612343
1782814104243320000,7.015320068359375,-0.05505728583335876,-0.07127016948759556,0.0865443840522319
1782814104263402000,7.035402099609375,-0.22536650622189044,-0.037389892521873115,0.19128749181367455
1782814104283484000,7.05548388671875,-0.15313888987898824,-0.029895518178492782,0.005955949262343347
1782814104303566000,7.075566162109375,-0.00585457124710083,0.007311565122380852,-0.04315890437737107
1782814104323648000,7.09564794921875,-0.005181202030181884,-0.012700637749582529,-0.04022339891474694
1782814104343730000,7.11572998046875,0.04930266782939434,-0.002041150438785553,0.0036947628647089003
1782814104363812000,7.13581201171875,0.142527479493618,0.0005410480741411447,0.03592255991566926
1782814104383894000,7.15589404296875,0.12347732658684253,-0.05585895760506391,0.09664864863306283
1782814104403976000,7.175975830078125,-0.021336218017339707,0.004153320287168026,0.1087992878170684
1782814104424057900,7.196057861328125,-0.13317279117107392,0.0520520396027714,0.06116765847243368
1782814104444140000,7.21614013671875,-0.07800093904733657,0.056359308342635625,0.07199355185870081
1782814104464222000,7.236221923828125,-0.011844167050719261,0.0023118571389466524,0.04529807183053344
1782814104484304000,7.256303955078125,-0.1098538749039173,0.01648877798616886,0.043932117239572105
1782814104504386800,7.27638671875,-0.23249124353528022,0.04529387057945132,-0.005361709696240723
1782814104524469000,7.296468994140625,-0.21115327195227146,0.08264533078707754,0.014011501152440905
1782814104544551000,7.316551025390625,-0.052090837243199344,0.04225596418827772,-0.03876271524503827
1782814104564633000,7.336633056640625,0.062087330600619314,0.036642362090200185,-0.015440401444397865
1782814104584715000,7.356715087890625,0.0863917507737875,0.03267484669871628,-0.04779883913770318
1782814104604797200,7.376797119140625,0.13387304839491843,0.09405614792183041,0.008923786091990769
1782814104624879000,7.396879150390625,0.14914602085053918,0.0888544876255095,-0.08699789997339248
1782814104644961000,7.4169609375,0.04304477647840976,0.13857370036654174,-0.038330972764268514
1782814104665043200,7.437043212890625,-0.05180909769237041,0.13885712041780351,0.008897957530990243
1782814104685125000,7.457125,0.05672668035030365,0.10564619408100843,0.010969466575421392
1782814104705207000,7.47720703125,0.1572071622312069,0.018918854677304624,-0.014975048954971135
1782814104725289200,7.497289306640625,0.23564006295502185,-0.030156141876056787,-0.023120690281316636
1782814104745371100,7.51737109375,0.12841361394524572,-0.021788711025193332,-0.02244421579185873
1782814104765453000,7.537453125,-0.24239187530279158,-0.022978651462122798,0.024727650553919373
1782814104785535000,7.557534912109375,-0.3307826909393072,-0.009575637596845626,0.026504560565948486
1782814104805617200,7.5776171875,-0.262643220692873,-0.0471245931379497,-0.005475910660438239
1782814104825699000,7.597698974609375,-0.23303894054591653,-0.05296688942536711,0.014004706085473299
1782814104845781000,7.617781005859375,-0.1369721834540367,-0.06412628908231854,-0.00006353022288531064
1782814104865863200,7.63786328125,0.017781740406155586,-0.09691899000704288,-0.0004628317387774586
1782814104885945000,7.657945068359375,0.057280807101726526,-0.11278744413778186,0.020863449406437574
1782814104906027000,7.678027099609375,0.03122399030327797,-0.050200712647661565,0.06931260567903519
1782814104926109200,7.698109130859375,0.033597733697295185,-0.03174772191643715,0.06639606064520776
1782814104946192100,7.718192138671875,0.08398235154449939,-0.020259601761773226,0.08630264771822839
1782814104966274000,7.738274169921875,0.10196458295881748,-0.03630187808945775,0.05915843754187226
1782814104986356000,7.75835595703125,0.07591770303249358,0.029673911317065357,0.015782346749864517
1782814105006438100,7.778438232421875,0.04616495432555675,0.04554616484008729,-0.04169730739220977
1782814105026520000,7.79852001953125,0.04533025706708431,0.048604675627872344,-0.05238046783953905
1782814105046602000,7.81860205078125,0.07374561969041823,0.04145253885090351,-0.06944463456086813
1782814105066684000,7.838683837890625,0.0626981559753418,0.06453413923084736,-0.08661620717942714
1782814105086766000,7.85876611328125,0.007522796720266341,0.06281615633182228,-0.04436974147185683
1782814105106848000,7.878847900390625,-0.1266629708856344,0.011983283260464668,0.04987111536711454
1782814105126930000,7.898929931640625,-0.14690379488170147,-0.024648119044303893,0.06266498435810208
1782814105147012000,7.91901220703125,-0.10863514676392078,-0.0643500879008323,-0.014252762562409042
1782814105167093800,7.93909375,-0.10381927091479301,-0.08227890862748026,-0.028119521481916307
1782814105187175700,7.95917578125,-0.11071604469120502,-0.11845796405486762,-0.013359320854023098
1782814105207257900,7.9792578125,-0.14259996020793914,-0.13428141000010071,-0.03882113090138882
1782814105227339800,7.99933984375,-0.1934837597489357,-0.06133958097323775,-0.018504757451079785
1782814105247421700,8.019421630859375,-0.17555647339224814,-0.0026615473594516514,-0.030084464879333972
1782814105267503600,8.039503662109375,-0.022338673058152198,-0.020493045191466806,0.00038720921929925677
1782814105287585800,8.059585693359375,0.024711831930279732,0.017481369220092892,-0.026961583618447183
1782814105307667700,8.079667724609376,0.058985857453942296,0.04987381878085434,0.00835921101178974
1782814105327749600,8.09974951171875,0.0548901125729084,0.03191642954684794,0.060208932975493366
1782814105347832600,8.11983251953125,0.057952422752976414,0.022785832303762434,0.02281118594072759
1782814105367914800,8.139914794921875,-0.0022457331001758574,0.06716843325719236,0.007452179169468581
1782814105387996700,8.15999658203125,-0.05831657989025116,0.10763955985531211,-0.04225706016682088
1782814105408078600,8.18007861328125,-0.01332300743162632,0.11205284625291824,0.0039586744979023935
1782814105428160800,8.200160888671874,0.06599369038939476,0.07277217154838145,0.016209376522898673
1782814105448242700,8.22024267578125,0.1054705452531576,0.04894808223806321,0.1172413182741031
1782814105468324600,8.24032470703125,0.030072482180595397,0.023022271408140657,0.11944650016818195
1782814105488406800,8.26040673828125,-0.0449906498491764,0.0028002251777797934,0.020444420276768505
1782814105508488700,8.28048876953125,-0.030471710631251335,0.05722988063208759,0.06263027837090193
1782814105528570600,8.300570556640626,-0.01422317114174366,-0.009865122062712907,0.04569174732323736
1782814105548652500,8.320652587890624,-0.026488778474926946,-0.005977466974407434,0.05879234417583793
1782814105568734700,8.340734619140624,-0.02682663212716579,0.02396086743250489,0.046419769336842
1782814105588816600,8.360816650390625,-0.011160276439785956,0.06545877979509532,0.008562332368455827
1782814105608898600,8.380898681640625,-0.012965864557027817,0.06243811679966747,0.03503858015537262
1782814105628980700,8.400980712890625,-0.039461072772741315,0.03666851944476366,0.08808233420923352
1782814105649062700,8.421062744140626,-0.009086392775177955,0.011049436476454138,0.0815432878293097
1782814105669144600,8.44114453125,0.018302549409866333,-0.012069792500138283,0.04242982291784137
1782814105689226800,8.461226806640624,-0.007702244940400123,-0.025005992571264506,0.0898536181980744
1782814105709308700,8.48130859375,-0.02535188339948654,-0.004886895258724689,0.11057451732866465
1782814105729391600,8.5013916015625,-0.09065876056849956,0.015290215851366518,0.10314349054507911
1782814105749473500,8.5214736328125,-0.17717150737345216,0.06174721192605793,0.06621584524009376
1782814105769555500,8.541555419921876,-0.15080723206102847,0.057886225648969405,0.03116323655936867
1782814105789637600,8.5616376953125,-0.02234042662382126,0.05779854736551642,0.05626026841495186
1782814105809719600,8.581719482421875,0.060250178301334376,0.03095437958166003,0.05373875058069825
1782814105829801700,8.6018017578125,0.06682955669164657,0.02647109668776393,0.048655455967038866
1782814105849884000,8.6218837890625,0.011970423778891563,0.029650165115296837,0.07196889234147966
1782814105869965800,8.6419658203125,-0.054257659888267515,0.0040100393589586015,0.024388372129574416
1782814105890047700,8.6620478515625,-0.03323299203813076,0.017859554882720112,0.02949157702010125
1782814105910129700,8.682129638671874,0.059144847407937046,-0.023152985115721822,0.018001411038823426
1782814105930211800,8.7022119140625,0.023999299746751784,-0.04760324350036681,0.02392276391182095
1782814105950293800,8.722293701171875,-0.06324936011731624,-0.03381276468746364,0.015908092021383345
1782814105970375700,8.742375732421875,-0.07026712992489338,0.01536927243694663,-0.031128713235259054
1782814105990457900,8.762457763671875,-0.09159867176711559,0.03353197498470545,-0.06230813374444842
1782814106010539800,8.782539794921876,-0.06576689589619636,0.01978226657360792,-0.07004665557462722
1782814106030621700,8.80262158203125,-0.06296177534759044,0.028319208772480488,-0.06203468709792941
1782814106050704000,8.822703857421875,-0.024051906716823578,0.05274988567382097,-0.05061674610264599
1782814106070785800,8.842785888671875,-0.016934183666110037,0.06611161768063903,-0.027988077121973036
1782814106090868700,8.86286865234375,-0.0012426935374736784,0.06569675326943397,-0.07059197796508669
1782814106110950700,8.88295068359375,0.014750994408130646,0.09688954471684992,-0.021727445824630556
1782814106131032800,8.90303271484375,-0.03952770826816559,0.13034304763786494,-0.03722443629447371
1782814106151114800,8.92311474609375,-0.05837620112299919,0.11584303231611848,0.023481449885107575
1782814106171196700,8.94319677734375,-0.0038648587346076964,0.057567953480035065,0.053174467761442065
1782814106191278600,8.963278564453125,0.11157178473770618,0.020649039470776915,0.04229815936218947
1782814106211360800,8.98336083984375,0.11490531307458877,-0.019372662859410045,0.013037687684223056
1782814106231442700,9.003442626953126,0.01485796191394329,-0.0010995587397366763,0.03331793037522584
1782814106251524600,9.023524658203126,-0.08691957404017447,0.036710678086057304,0.029875607901625332
1782814106271606800,9.043606689453124,-0.15521277354359625,0.0642987961050123,0.03433251424524933
1782814106291688700,9.063688720703125,-0.19029343927502632,0.07838365475460886,-0.019048362808488307
1782814106311770600,9.0837705078125,-0.16088146682977675,0.07420512696094811,0.006248575533367693
1782814106331852800,9.103852783203125,-0.08791910647153854,-0.009128770612180233,0.05066434810403734
1782814106351934700,9.123934814453126,-0.0534042579293251,0.006671586718410253,0.10652608218807727
1782814106372016600,9.1440166015625,-0.009787819042801857,-0.026997020258009433,0.07182173895575106
1782814106392098600,9.1640986328125,0.05543079532086849,-0.0074970046918839215,0.081772822268866
1782814106412180700,9.1841806640625,0.07592237920761108,0.001022767176479101,0.06572656388580798
1782814106432262700,9.2042626953125,0.059713587206602095,-0.022723069265857338,0.1226892814816907
1782814106452345600,9.224345703125,0.015531331130862235,-0.0215184427164495,0.14440448887925594
1782814106472427500,9.244427490234376,-0.029767361754179,0.008941796672716737,0.09548822655156254
1782814106492509700,9.264509765625,-0.022604045996069907,0.03887180164270103,0.060723385303653774
1782814106512591600,9.284591552734375,-0.0331353768825531,0.04983903972841799,0.043904754308611155
1782814106532673500,9.304673583984375,-0.07537000602185726,0.029387057199701666,0.04404284760504961
1782814106554010600,9.3260107421875,-0.08628770587742328,0.05802512266300618,0.036373080162145195
1782814106574092500,9.346092529296875,-0.09619301382005215,0.07713146273642778,-0.005976553658954799
1782814106594174700,9.3661748046875,-0.11037819103896618,0.07496339798234403,-0.00699223350752145
1782814106614256600,9.386256591796876,-0.09624795887768268,0.06447656382471323,-0.014139621044136583
1782814106634338600,9.406338623046874,0.0008399579554796219,0.060231254405155775,-0.0025128230711445212
1782814106654420700,9.426420654296875,0.01016717374920845,0.03677789810337126,0.0026268413722515104
1782814106674502700,9.446502685546875,-0.014107435807585715,0.0641617257218808,0.05795790264569223
1782814106694584600,9.46658447265625,-0.06443418598771095,0.033263752502575517,0.008477284433506429
1782814106714666500,9.48666650390625,-0.11960019289255142,-0.009995543509349227,0.04698785154838115
1782814106734748700,9.506748779296874,-0.11973814005851745,-0.058489233043417334,0.03490505343619734
1782814106754830600,9.52683056640625,-0.10192658903598785,-0.04539755014963448,0.07423216109834611
1782814106774912500,9.54691259765625,-0.041598669323325156,-0.0774347565319389,0.11200308882705867
1782814106794994700,9.56699462890625,-0.11439502546489239,-0.062373673261329525,0.07671009551919997
1782814106815076600,9.58707666015625,-0.18675006757974624,0.02807553620971739,0.019462167773768305
1782814106835158500,9.607158447265626,-0.21473872922360895,0.13817322980687022,-0.041093788541108366
1782814106855240700,9.62724072265625,-0.18049743692576883,0.16519735726751386,0.009101371148601173
1782814106875323600,9.64732373046875,-0.050098786643147465,0.21209157571569084,0.018700754947215317
1782814106895405600,9.667405517578125,0.16767711831927298,0.1750640137001872,-0.06848919699955731
1782814106915487500,9.687487548828125,0.26338907062411304,0.16240553459189833,-0.1497157470298931
1782814106935569400,9.7075693359375,0.20187281790971756,0.17607107185088097,-0.16081610997598617
1782814106955651600,9.727651611328126,0.14496961194872857,0.17919409924224017,-0.08927676815818995
1782814106975733800,9.747733642578124,0.11539748050570488,0.1044895713917911,-0.058051353082805866
1782814106995815700,9.767815673828125,0.07838964610397815,0.06385550931692123,-0.05387176584322005
1782814107015897900,9.78789794921875,-0.05950315932631492,0.02404686521552503,-0.01757262770012021
1782814107035979800,9.807979736328125,-0.19744564911723136,0.04858969725444913,0.032496384859271345
1782814107056061700,9.828061767578125,-0.16967442961633206,0.046401393429934976,-0.07607917720451951
1782814107076143600,9.8481435546875,-0.01587619904577732,0.09030746291279793,-0.17047314224597065
1782814107096226800,9.868226806640624,-0.0031938276052474973,-0.03239383780024946,-0.1578439622974023
1782814107116308700,9.888308837890625,-0.04376549196839332,-0.0897807356249541,0.12126315766870975
1782814107136390700,9.908390625,0.15489070198237895,-0.04482800663337111,0.2907142633905634
1782814107156472600,9.92847265625,0.17748948728144168,-0.023908041266724467,0.16821538991443813
1782814107176555300,9.94855517578125,0.03699322135448455,0.01452412684969604,-0.013180603286251424
1782814107196637200,9.96863720703125,-0.2018219645053148,0.10677315228432416,-0.23426636344902216
1782814107216719000,9.988718994140624,-0.41459377757012844,0.125821697755903,-0.19633231758046893
1782814107236801000,10.008801025390625,-0.34647125845849513,0.19546397378072142,-0.182287188153062
1782814107256883200,10.02888330078125,0.10819733986854553,-0.030553835956752297,-0.14136433573206886
1782814107276965000,10.048965087890625,0.0029933365970849987,-0.030003070206195113,-0.054623789786919945
1782814107297047000,10.069047119140626,-0.2115530849248171,-0.03856280875876546,-0.008004552355222403
1782814107317129200,10.089129150390624,-0.03021042934656143,-0.1644562565766275,0.24074330437816677
1782814107337211100,10.109211181640624,0.4857534724205732,-0.3083981329128146,0.38113523314781483
1782814107357293000,10.12929296875,0.7369733818233013,-0.28327640500739215,0.0014173925172537565
1782814107377376000,10.1493759765625,0.6196551623880863,-0.14588585001081228,-0.17744312738906592
1782814107397458200,10.169458251953126,0.4317962567836046,-0.1758727727998048,0.0015545724982395767
1782814107417540000,10.1895400390625,0.08580079914331436,-0.20391908291503785,0.18826361394785343
1782814107437622000,10.2096220703125,-0.47383974726498124,-0.06468531120456755,-0.05189582612775266
1782814107457704200,10.2297041015625,-0.38849370615184303,0.007766615413501858,0.054929786996170876
1782814107477786000,10.2497861328125,0.3622621173083782,-0.09127528503164649,0.5627836302069947
1782814107497868000,10.269867919921875,-0.44651276440024373,0.14229885836951434,0.7519817850586027
1782814107517950000,10.289949951171875,-0.9785644621372223,-0.5224585244834423,-0.5792237832784652
1782814107538032000,10.3100322265625,-0.3065910834908485,-0.10969145088382065,-0.4372572256032377
1782814107558114000,10.330114013671874,0.14589900175333023,-0.19615436719767748,-0.26098537048324943
1782814107578196000,10.350196044921875,0.12891279563903807,-0.2108964476469904,-0.10048749614357948
1782814107598278100,10.370278076171875,-0.7054401794403791,0.2465843585565686,-0.0573001693893224
