time,seconds_elapsed,z,y,x
1782814201027952600,0.06895263671875,1.1677052242457866,-0.1424018072873354,-0.004097872906038537
1782814201048034600,0.08903466796875,0.9135615363508462,-0.135883365304023,0.1339992959899362
1782814201068115700,0.10911572265625,0.49007834988236426,-0.11000146668106317,0.13690315507212653
1782814201088197600,0.12919775390625,0.29657413186728954,-0.20924641541764138,0.06312142288871109
1782814201108279800,0.14927978515625,0.46099078708589075,-0.30509331921376287,-0.0008818882679101079
1782814201128360400,0.1693603515625,0.7604746689200401,-0.32105902317389845,-0.130227312303707
1782814201148442600,0.189442626953125,1.0414689543396234,-0.30151736042313276,-0.21314875661842525
1782814201168524500,0.209524658203125,1.5473030917584896,-0.26997509795092045,-0.41122985409498214
1782814201188605400,0.22960546875,1.647820398518443,-0.3580206072811037,-0.0731218800351955
1782814201208687600,0.2496875,0.6366904683411121,-0.35153073380514976,0.09434307510443031
1782814201228769500,0.26976953125,-1.201112403807044,-0.1478971167679876,-0.012598382951505482
1782814201248850700,0.2898505859375,-2.9668302829533815,0.2526830042252317,-0.2526459784167819
1782814201268932600,0.3099326171875,-3.234239110612869,0.27905988329090176,0.11130942574078216
1782814201289014500,0.3300146484375,-2.5585879202365875,0.11617814602199941,0.4395504876395687
1782814201309095700,0.350095703125,-1.7807301548391579,-0.13098187526436522,0.5656899095751344
1782814201329177600,0.370177490234375,-1.3251169691383837,-0.2651309823879972,0.5274219555770978
1782814201349259500,0.390259521484375,-1.158922198331356,-0.3836346487481147,0.3364615037607029
1782814201369340700,0.410340576171875,-0.9892974530756473,-0.47700559088475997,0.12108034844771026
1782814201389422600,0.430422607421875,-0.7632862192094325,-0.509391647237353,-0.0995630565087311
1782814201409504800,0.4505048828125,-0.4936345810592174,-0.5336532146494836,-0.19596788644855842
1782814201429585700,0.470585693359375,-0.2509188806295395,-0.49113074501212683,-0.11192063470799475
1782814201449667600,0.49066748046875,0.0008639233529567718,-0.3462154205339029,-0.07035736549161374
1782814201469749800,0.510749755859375,0.2393190437287092,-0.27579335577562447,0.002884944319166243
1782814201489830400,0.530830322265625,0.22039456302821636,-0.16295286627635358,-0.010313706080429256
1782814201509912600,0.55091259765625,-0.021499884146451948,-0.044622528922837225,-0.02791256420034915
1782814201529994500,0.570994384765625,0.020551789641380307,0.0399561445469968,-0.0069830638203769915
1782814201550075600,0.59107568359375,0.25556290704309936,0.050009464391879734,0.023692608417756854
1782814201570157600,0.611157470703125,0.35055998907685276,0.05755681103151291,0.16983667097333818
1782814201590239500,0.631239501953125,0.18188976806700227,0.15242235737377777,0.12262279211673885
1782814201610320600,0.651320556640625,0.18149813840091228,0.1017365463566035,0.018005210431106387
1782814201630402600,0.671402587890625,0.19320786541700363,0.04267504811687395,0.018765490746498106
1782814201650484500,0.691484375,0.2176829659819603,0.03902956775398925,0.010901369775272906
1782814201670565600,0.711565673828125,0.19563713839054106,-0.014229564349912106,-0.02899283371772617
1782814201690647600,0.7316474609375,0.06784311764836311,-0.05663461815267801,-0.19687563067693262
1782814201710729500,0.7517294921875,-0.029521862560510634,-0.06608721389174461,-0.215864408785291
1782814201730810600,0.771810546875,-0.0025520225703716277,-0.047290341626293954,-0.21822905555739996
1782814201750892500,0.791892578125,0.06118775141239166,-0.06537128417473285,-0.18586696460228413
1782814201770974700,0.811974609375,-0.0745224492818117,-0.10192384908962994,-0.11037515883166342
1782814201791055600,0.8320556640625,-0.11347791061997413,-0.01879811437446624,-0.02367646100055426
1782814201811137800,0.8521376953125,-0.1524801337093115,0.0011778846729546784,0.06090053196884691
1782814201831219700,0.8722197265625,-0.13196283085942268,0.03620042700897902,0.06135265965051949
1782814201851300600,0.892300537109375,-0.06686930418014526,0.011785276470333337,0.09982125078719109
1782814201871382800,0.9123828125,-0.04231412411630153,-0.004359071992337703,0.0603846548685804
1782814201891464700,0.932464599609375,0.07819675388038158,-0.007389233468472957,0.06647712652478367
1782814201911545600,0.952545654296875,0.06035013154447078,0.09564670504890382,0.1549889747250825
1782814201931627500,0.97262744140625,0.13844284052848815,0.08781005660649388,0.23122659389432518
1782814201951709400,0.99270947265625,0.14341010754704475,0.05119381533823907,0.22737901508808134
1782814201971790600,1.01279052734375,0.014493804776668548,0.04669719803873449,0.1566868281515315
1782814201991872500,1.03287255859375,-0.08438157999515533,0.03451451974865049,0.06163622583225369
1782814202011954400,1.052954345703125,-0.08044774767756462,0.009018770899064839,0.02105283449869603
1782814202032035600,1.07303564453125,-0.12336626742780207,-0.007686353251524269,-0.02781067472845316
1782814202052117500,1.093117431640625,-0.040787352940440176,-0.04096161352880299,-0.07553586410805582
1782814202072199700,1.11319970703125,-0.09926058469712734,-0.03620455519482493,-0.054981297987699504
1782814202092280600,1.133280517578125,-0.08581248958110808,0.0028162264645099637,-0.09588325375113636
1782814202112362500,1.153362548828125,0.1308159989118576,-0.07622450395934283,-0.0026524142049252986
1782814202132444700,1.173444580078125,0.2073515415817499,-0.13809051995947957,-0.07290208153836429
1782814202152525600,1.193525634765625,0.1753968989163637,-0.22918979083709418,-0.07504987068939954
1782814202172607700,1.213607666015625,0.1328857909232378,-0.21958719216808675,-0.024777736773341892
1782814202192688600,1.233688720703125,0.053631052422523494,-0.17458360977210102,0.1289750106876716
1782814202212770800,1.253770751953125,-0.005929974570870399,-0.1628342083327472,0.21714677674602717
1782814202232852700,1.273852783203125,-0.013024901267886161,-0.18686302643492816,0.24567268707174805
1782814202252933400,1.293933349609375,0.005099953487515449,-0.1418315331187099,0.26050379751138386
1782814202273015600,1.314015625,-0.08379998071491718,-0.024359036437235772,0.22629165824279188
1782814202293097500,1.334097412109375,-0.03993453550338745,0.05876088959164917,0.205875185418874
1782814202313178600,1.3541787109375,0.11177695192098618,0.06106138508636504,0.2536268609466031
1782814202333260500,1.374260498046875,0.14861469045281409,0.04650489033702761,0.2275940460782498
1782814202353342500,1.394342529296875,0.03010579992830753,0.04639715564623475,0.20742069782782344
1782814202373423600,1.414423583984375,-0.07338263159692288,0.07687704958394169,0.12523228049539029
1782814202393505500,1.434505615234375,-0.18110884682238101,0.06644278586376458,0.09020732700657098
1782814202413587500,1.45458740234375,-0.22205752780437468,0.08078677037358284,0.0814554999480024
1782814202433668600,1.474668701171875,-0.1805991437345743,0.04623652172442525,0.057515711836144325
1782814202453750500,1.49475048828125,0.03869242648780346,-0.09130714147463441,-0.010153181756474077
1782814202473832700,1.514832763671875,0.04851531684398651,-0.17655772285666316,-0.10636263525467365
1782814202493913600,1.53491357421875,-0.03777706520855426,-0.15578403409291058,-0.1019566553806886
1782814202513995500,1.55499560546875,-0.01906768856346607,-0.1464617867352441,-0.08932762156259268
1782814202534077700,1.57507763671875,0.04633037402033806,-0.221332611063309,-0.11818082761391997
1782814202554158600,1.59515869140625,0.06252689106166362,-0.232787486535497,-0.09631163523104042
1782814202574240800,1.61524072265625,-0.004346504771709442,-0.19290245272964238,0.05083528422415256
1782814202594322700,1.63532275390625,-0.11127718570530414,-0.09254855637047439,0.1428385182041675
1782814202614403800,1.65540380859375,-0.20874328820109367,-0.0854142840437591,0.050963879039883614
1782814202634485800,1.67548583984375,-0.03555646654963493,-0.08197824518047273,0.037894115716964
1782814202654567700,1.695567626953125,0.13473872531354428,-0.11734711673613638,0.12377404451109468
1782814202674648600,1.715648681640625,0.09344225380718707,-0.04248685033470392,0.18769816208481788
1782814202694730500,1.73573046875,0.0503629905372858,0.002047799375280738,0.15900288654156028
1782814202714812400,1.7558125,-0.017287234887480733,0.042959290152043104,0.08196692006886006
1782814202734893600,1.7758935546875,-0.12019991235136986,0.022765118309296666,0.08456482760757207
1782814202754975500,1.7959755859375,-0.15713409699499606,0.007650953144580125,0.023284794801846146
1782814202775057700,1.8160576171875,-0.06710135937035083,-0.01281575202923268,-0.020838205367326734
1782814202795138600,1.836138671875,0.05160100789964199,-0.04792619184441864,-0.04175882832109928
1782814202815220500,1.856220458984375,0.009745733466744422,-0.018553090104833244,0.013711349162086843
1782814202835302700,1.876302734375,-0.10661562363505363,0.06328929026890545,0.0227639857981354
1782814202855383600,1.896383544921875,-0.010901917764544486,0.03873378141149878,-0.020930267564952372
1782814202875465700,1.9164658203125,0.07385083363056183,-0.06786722917631269,-0.05620601747706532
1782814202895547600,1.936547607421875,-0.013016133439540863,-0.04679148872606456,-0.06187719498127699
1782814202915628500,1.956628662109375,-0.09836451264023781,0.006566299713030457,0.008095555106922983
1782814202935710700,1.976710693359375,0.07514964126944541,-0.03380765012092888,0.021889760246872902
1782814202955791600,1.99679150390625,0.06653086600601672,-0.07958342246580868,0.01942439304664731
1782814202975873800,2.016873779296875,-0.00011164368093013762,-0.09485584693215787,-0.07485884162932634
1782814202995955700,2.036955810546875,-0.08094459128379822,-0.12648030779510736,-0.06252893688827753
1782814203016036600,2.05703662109375,-0.14426467854976655,-0.09474588375166058,-0.029755452120676634
1782814203036118500,2.077118408203125,-0.12101356682181358,-0.04753412378691137,-0.03450279277823865
1782814203056200400,2.097200439453125,-0.0511386510848999,-0.07199198095612228,-0.05176942326910793
1782814203076281600,2.117281494140625,-0.023612346255779265,-0.05656213743835687,-0.057807899715751405
1782814203096363500,2.137363525390625,-0.0016115268498659134,-0.06955130980573594,-0.09381079485863447
1782814203116445400,2.157445556640625,0.02678746916055679,-0.04938033617548644,-0.10521204044744371
1782814203136526600,2.177526611328125,0.08560030813515186,-0.053990533384680746,-0.08180318087451159
1782814203156608500,2.1976083984375,-0.019891864427924157,-0.03288227890431881,-0.04210552286691963
1782814203176690700,2.217690673828125,0.002711597046256065,0.04491488119922578,-0.09106931413076817
1782814203196771600,2.237771484375,0.2561252171009779,-0.09298683818988501,-0.08274513789974153
1782814203216853500,2.257853515625,0.30929274366497994,-0.11109474181048572,-0.020318492342159152
1782814203236935700,2.277935791015625,0.13590367743968962,-0.07763817014954984,0.024699410840123892
1782814203257016600,2.2980166015625,-0.09460954402089118,0.011047463715076446,0.03085311116427183
1782814203277098200,2.31809814453125,-0.08245441132485866,-0.015914558294788002,0.05105594123750925
1782814203297180200,2.33818017578125,-0.015940496453642844,-0.07142331422269343,0.05025711901001632
1782814203317261300,2.35826123046875,0.02558627667725086,-0.09957827234417199,0.047391792706772684
1782814203337343200,2.37834326171875,0.06818389391005039,-0.05621354319639504,0.10870302436836063
1782814203357425200,2.398425048828125,0.05162731138467788,-0.013173150632157921,0.11368556202128528
1782814203377506300,2.41850634765625,0.019667992544174194,-0.03103350923247635,0.08249693529233336
1782814203397588200,2.438588134765625,-0.07750994065999985,-0.03362469476945698,0.04212861148156225
1782814203417670100,2.458670166015625,-0.026966332858800887,-0.026317951952666042,0.06836524182632565
1782814203437751300,2.478751220703125,0.040970892813801764,-0.008004954214021563,0.087398370533064
1782814203457833200,2.498833251953125,0.10333704035580157,-0.0588542669635266,0.06893588132113218
1782814203477914400,2.518914306640625,0.06472060171365737,-0.09061601740531623,0.03647321606837213
1782814203497996300,2.538996337890625,-0.020420272216200828,-0.08545987675115466,0.0212329037733376
1782814203518078200,2.559078125,-0.0022445640563964844,-0.0910614230852574,0.015535349718853831
1782814203538159400,2.579159423828125,0.0013818097472190856,-0.14688523631170392,-0.019169176176562903
1782814203558241300,2.5992412109375,-0.06583762304484844,-0.13905118168517946,-0.048747591229900716
1782814203578323500,2.619323486328125,-0.10293664286136626,-0.11316606819182634,-0.017497881963476538
1782814203598404000,2.639404052734375,-0.13703472729623317,-0.043263314599916336,-0.0014352935001254081
1782814203618486300,2.659486328125,0.018582535395026207,-0.05169504285864532,0.012469240146502851
1782814203638568200,2.679568115234375,0.12102291917204856,-0.07379179691970347,-0.03674216920286417
1782814203658649000,2.699649169921875,0.0698304920732975,-0.02552402509599924,0.01986117702871561
1782814203678731300,2.719731201171875,0.06145078626275062,-0.004607566860690713,0.06317702553346753
1782814203698813200,2.739813232421875,-0.03466799327731132,0.032669001479819416,0.17385193449668584
1782814203718894300,2.759894287109375,-0.201426243185997,0.08151179671250283,0.146173069454357
1782814203738976300,2.779976318359375,-0.24055589204728603,0.08379113982133567,0.03283931654542684
1782814203759058200,2.80005810546875,-0.04609247361123561,0.06803520615436136,0.016827508421242237
1782814203779139300,2.820139404296875,-0.01980886231958866,0.0005261427659541368,0.027400048100948333
1782814203799221200,2.84022119140625,-0.24357319404184816,0.08846146971993148,0.049805831578560174
1782814203819303200,2.86030322265625,-0.35389468645751476,0.23499394707120955,0.0865605314694345
1782814203839384300,2.88038427734375,-0.1503752703845501,0.1859633741814643,0.07295585755221545
1782814203859466200,2.90046630859375,0.2119920608639717,0.05208031584918499,0.0007288622638210654
1782814203879548400,2.92054833984375,0.46082478286921974,-0.04880984281115234,-0.025790640142932534
1782814203899629300,2.94062939453125,0.47362405868768687,0.0003521013732999563,0.03950973422005773
1782814203919711200,2.960711181640625,0.35831542550921436,-0.00847074509486556,0.03505560435540974
1782814203939792100,2.980792236328125,0.22563772437870502,-0.06063318626955151,0.025049685582518577
1782814203959874000,3.0008740234375,0.18459318180680273,-0.11144194781295955,0.01136566281877458
1782814203979956500,3.02095654296875,0.11659633490145206,-0.12285429931767285,0.04793959931526333
1782814204000037000,3.041037109375,0.037350948750972744,-0.18845899038948116,-0.015034816318191587
1782814204020119300,3.061119384765625,-0.11656126358807087,-0.22499438497386873,-0.02932612079270184
1782814204040201200,3.081201171875,-0.21184066969454288,-0.19148374503813684,-0.00701046328395605
1782814204060282000,3.1012822265625,-0.16002338869571686,-0.14839900187551974,0.09620094139818101
1782814204080364300,3.1213642578125,-0.16088731204867363,-0.12659765056446193,0.06231518453974277
1782814204100446200,3.1414462890625,-0.1497609378784895,-0.14739493939951062,0.014447992873564361
1782814204120527400,3.16152734375,-0.17682079423964023,-0.04407178143858909,0.040746290277689695
1782814204140609300,3.181609375,-0.07663783400058746,-0.049701165627688164,0.045671033328771586
1782814204160691200,3.201691162109375,-0.05035772984027862,-0.014967486703023314,0.03753390410244465
1782814204180772400,3.2217724609375,-0.1187380231052637,0.0031966771494597195,-0.004574650971777737
1782814204200854300,3.241854248046875,-0.09563187280595302,0.03678140523470938,-0.01351480367667973
1782814204220936200,3.261936279296875,-0.023492519268393516,0.03563713057041168,0.01313756786212325
1782814204241017300,3.282017333984375,0.014562193837761878,0.0503548802960664,-0.017440343089960515
1782814204261098800,3.3020986328125,0.04031447473168373,0.01087371458336711,-0.03949002487258985
1782814204281181200,3.32218115234375,0.054962593287229536,0.02286715391166508,-0.034528676138166334
1782814204301261800,3.34226171875,0.07726736407577992,-0.04779701250679791,-0.08376184066161513
1782814204321344000,3.362343994140625,0.15225743086934088,-0.111124990818277,-0.09709624627009034
1782814204341425000,3.3824248046875,0.09362228654921054,-0.08285882740728556,-0.040611101324390615
1782814204361506800,3.4025068359375,0.01571545552611351,-0.023074586117267606,0.05737162719033658
1782814204381589000,3.422589111328125,0.08798866457641125,-0.03829538999423385,0.10379906837698072
1782814204401670000,3.442669921875,0.07565759079158306,-0.12740509448982776,0.03227912537939846
1782814204421752000,3.462751953125,-0.01647007328569889,-0.11575053172707557,0.05568115335274487
1782814204441834000,3.482833984375,-0.1001771150201559,0.032438919050991534,0.18148273990238084
1782814204461915100,3.5029150390625,-0.04562427157759666,0.05477569241300225,0.2356971269045025
1782814204481997000,3.5229970703125,-0.06844283710718155,0.033251696738600726,0.19761218305686487
1782814204502079000,3.543078857421875,-0.0488379729270935,0.013738456364721058,0.18410707879029214
1782814204522160000,3.56316015625,-0.10579027872681616,0.05079268719144165,0.20182159917913375
1782814204542242000,3.583241943359375,-0.08908815025091171,0.055446650477126234,0.18115822065575046
1782814204562324000,3.603323974609375,-0.05620996299982071,0.015861659063771367,0.13656930174157023
1782814204582405000,3.623405029296875,0.03606558511555195,0.01355484342612326,0.06539292975096031
1782814204602487000,3.643487060546875,0.11973287936151027,-0.029058409767225384,0.083520058661839
1782814204622569000,3.66356884765625,0.21723113056123255,-0.04634637530706823,0.052438874362735075
1782814204642649900,3.68364990234375,0.20063596959114074,-0.10766491349227726,0.006010839521046728
1782814204662731800,3.703731689453125,0.07529460269808769,-0.15275215558372437,-0.012291116233775391
1782814204682813000,3.72381298828125,-0.036512159839272494,-0.13010412431545554,-0.03604271569661796
1782814204702894800,3.743894775390625,-0.06739712744653224,-0.16902758308015764,-0.041281657529715444
1782814204722977000,3.76397705078125,-0.1073661497414112,-0.1901968470327556,0.022735937880584967
1782814204743058000,3.784057861328125,-0.20893734946846962,-0.12899009865894914,0.08400227095452137
1782814204763139800,3.804139892578125,-0.23012100727260112,-0.14744308939017356,0.09976349271796643
1782814204783222000,3.824221923828125,-0.17528116358220577,-0.1731185056556016,0.04010124297295697
1782814204803303000,3.844302978515625,-0.09833353298008442,-0.16865765378922223,0.033251669339137147
1782814204823385000,3.864385009765625,-0.23937515783011912,-0.004745660157129168,0.1017909251586534
1782814204843467000,3.884467041015625,-0.2861737338840961,0.10763174187503755,0.07832677346821874
1782814204863548200,3.904548095703125,-0.11874153023660182,0.0036953473865985868,0.009152407216094434
1782814204883630000,3.924630126953125,0.0038268648117780685,-0.02434153731316328,-0.010915051240753381
1782814204903712000,3.9447119140625,-0.027883447703719137,-0.010985796655714511,0.03406650198651477
1782814204923793200,3.964793212890625,-0.1555599795460701,0.04933693542517721,-0.015416582177393138
1782814204943875000,3.984875,-0.12659925799965857,0.05226349039636552,-0.11370103358505293
1782814204963956000,4.0049560546875,0.01213175182044506,-0.005334639026224613,-0.11732112377835437
1782814204984038000,4.025037841796875,0.19565701213479042,-0.08098821122981607,-0.10500446211136877
1782814205004119800,4.045119873046875,0.21887422159314154,-0.1321844377208501,-0.1074656828594394
1782814205024201000,4.065200927734375,0.14503917005360126,-0.167825806074962,-0.19452073811385778
1782814205044283000,4.085282958984375,0.08503332190215587,-0.15059300478845833,-0.2082983026462607
1782814205064364800,4.10536474609375,0.0904039090245962,-0.12808365133851765,-0.15472113583544267
1782814205084446000,4.125446044921875,0.1040156702697277,-0.15506803131066263,-0.1335167275042273
1782814205104528000,4.14552783203125,0.04076572563052177,-0.1629725208248943,-0.0961674227210693
1782814205124610000,4.165610107421875,-0.08276362340450287,-0.0869588100720197,-0.04242096375795081
1782814205144691000,4.18569091796875,-0.09954349329173565,-0.05375570171549916,-0.006997841264400631
1782814205164772900,4.20577294921875,-0.0780780959367752,-0.0483235205989331,0.05173146587889641
1782814205184855000,4.22585498046875,-0.12025076575577258,-0.021276742915064095,0.11311610983656718
1782814205204936000,4.24593603515625,-0.16048048481345176,0.026271701658144592,0.17076578678330406
1782814205225018000,4.26601806640625,-0.1024514896929264,0.021027298198640344,0.14458428415926172
1782814205245100000,4.28610009765625,-0.011197101318836212,0.031201486210525035,0.13463694543950258
1782814205265181200,4.30618115234375,0.050047933238744735,0.03611643851995468,0.13545193335050718
1782814205285263400,4.326263427734375,0.05740063408911228,0.07554251304455101,0.10688643993306904
1782814205305344300,4.34634423828125,0.1075017588198185,0.04022584660016,0.07558405063133686
1782814205325426400,4.366426513671875,0.12743921595513819,-0.0007911503776907921,0.03356923825517297
1782814205345508400,4.38650830078125,0.19683716183006764,-0.04482464563250541,0.010628270188625902
1782814205365589500,4.406589599609375,0.08081190481483935,-0.03903831731602549,-0.001484776931349188
1782814205385671400,4.42667138671875,-0.010265373426675797,0.01413534672781825,0.019523579104803502
1782814205405753300,4.44675341796875,0.05013502700030804,-0.02531812726035714,-0.027001860829908398
1782814205425834500,4.46683447265625,0.1712584839373827,-0.18540756692960858,-0.07366727549089118
1782814205445916400,4.48691650390625,-0.0030868600994348526,-0.1438959183026105,-0.03116365668447688
1782814205465998300,4.506998291015625,-0.21317104151546953,-0.05141900239624083,-0.0033454379703849553
1782814205486079500,4.52707958984375,-0.3048305035591125,-0.023452552584186194,0.05256526808822527
1782814205506161400,4.547161376953125,-0.28267829298377034,-0.013793109161406754,0.014594963596202432
1782814205526243300,4.567243408203125,-0.09224398393332958,-0.09509528171122074,0.020075532165449113
1782814205546324200,4.58732421875,0.12837562002241612,-0.11698672245852648,0.018020700261183083
1782814205566406100,4.60740625,0.19405892928838728,-0.08264416174329817,0.10430268878387286
1782814205586487300,4.6274873046875,0.11390227351188659,-0.014400281274318694,0.11425724269570782
1782814205606569200,4.6475693359375,0.014687866044044495,0.026577479671686888,0.06143381686164066
1782814205626651400,4.6676513671875,-0.01700900246798992,-0.002397270400077104,0.053283079235069454
1782814205646732300,4.687732177734375,-0.0359849210947752,0.015230667683854698,0.0580637011077255
1782814205666814200,4.707814208984375,0.030638883891701697,0.03490940081775188,0.1088671471551992
1782814205686896400,4.727896484375,0.13253566231131553,-0.013415142694488166,0.08390532251922413
1782814205706977300,4.747977294921875,0.1620171928614378,-0.0737689275007695,0.04187092865975573
1782814205727059500,4.7680595703125,0.13290449562370776,-0.09278517813794314,0.03965226622959599
1782814205747141400,4.788141357421875,0.1088736316949129,-0.08550240071862936,0.033165351895708586
1782814205767222500,4.808222412109375,0.04449088363349438,-0.10849478844515979,0.053332526133675125
1782814205787304400,4.828304443359375,-0.1400613816410303,-0.0677215370953083,0.013633498152904211
1782814205807386400,4.848386474609375,-0.13201660687327385,-0.106331911322847,0.05123670463189482
1782814205827467500,4.868467529296875,-0.29420331108272074,-0.08786766854524612,-0.0059474828280974175
1782814205847549400,4.888549560546875,-0.42983460132181645,-0.02799384927563369,-0.016389747191639617
1782814205867630300,4.90863037109375,-0.21760697813630103,-0.028133988398686048,0.030615804410213603
1782814205887712300,4.928712158203125,-0.0017699322819709777,-0.06985350762270391,0.11190327258124015
1782814205907794200,4.948794189453125,0.008497194710373877,-0.036934915295988316,0.11587468782970681
1782814205927875300,4.968875244140625,-0.1258358724117279,0.010615648169070482,0.09987864353023469
1782814205947957200,4.988957275390625,-0.07538695715665816,0.05457432462200522,0.10318981390483677
1782814205968039200,5.0090390625,0.20283026476502417,-0.0352227776158601,0.06457361272471025
1782814205988120300,5.029120361328125,0.3943348333954811,-0.13619593838453292,0.045918121691327536
1782814206008202200,5.0492021484375,0.38072424119412895,-0.10379800893105566,0.06796016815677285
1782814206028284400,5.069284423828125,0.2431049920082092,-0.09104169547148049,0.06608847426706925
1782814206048365300,5.089365234375,0.10064590157568454,-0.07577529888711869,0.10932846279032528
1782814206068447200,5.109447265625,-0.22642449084222316,-0.009326777402311562,0.14250473793884738
1782814206088529400,5.129529296875,-0.3908785554617643,-0.023678762555494903,0.019526154654379933
1782814206108610300,5.1496103515625,-0.2355810262441635,-0.021626579266041515,0.009738847068231552
1782814206128692500,5.1696923828125,-0.020855741024017334,-0.02891249849051237,0.10069116548951715
1782814206148773400,5.1897734375,-0.04363046741187572,0.044668212961778045,0.12986734728435986
1782814206168855600,5.20985546875,-0.13543722897171973,0.0635913784880191,0.06560459974026307
1782814206188937500,5.2299375,-0.09624211365878581,0.08072254603095352,0.025536226990446446
1782814206209018400,5.250018310546875,0.037113632863759995,0.03565985385887325,0.05019852069057524
1782814206229100500,5.2701005859375,0.11041092426478862,-0.014957549830898642,0.020355280688591302
1782814206249182500,5.290182373046875,0.12216975111961365,-0.14209909801371395,-0.0775665205522906
1782814206269264000,5.310263916015625,0.08317337324917316,-0.1584473715506494,-0.09784429729157126
1782814206289346000,5.330345947265625,0.05872808330059051,-0.18197751941569149,-0.0719691480698064
1782814206309427000,5.350427001953125,0.02912204958796501,-0.213680306211859,-0.05012000296111219
1782814206329509000,5.370509033203125,-0.0887964738279581,-0.19410780993141233,-0.06500733710001222
1782814206349591000,5.390591064453125,-0.19273206459879874,-0.11310293982774018,-0.020903562221117316
1782814206369672000,5.410671875,-0.19773732554018497,-0.07599507911764085,-0.02015424169115722
1782814206389754000,5.430754150390625,-0.1347644442766905,-0.05203092374950647,0.0015150533386040477
1782814206409836000,5.4508359375,-0.09674071083068847,-0.00047112464308738706,0.066067942935694
1782814206429917200,5.470917236328125,-0.11327683508992195,0.05614098941683769,0.07202126184953377
1782814206449999000,5.4909990234375,-0.0825093563824892,0.01861585314273834,0.03529018029626459
1782814206470081000,5.5110810546875,0.07803250322937964,0.005645385475829243,0.019030078233126548
1782814206490162200,5.531162109375,0.14762275680601597,0.04331869804896414,0.09424320405968464
1782814206510244000,5.551244140625,0.0696563045501709,0.06959704864360391,0.05530136938807554
1782814206530326000,5.571325927734375,0.06859481279850006,0.012316022346168756,-0.049396437926916406
1782814206550407000,5.591406982421875,0.12033844403922557,-0.039329555347561836,-0.00998669348261319
1782814206570488800,5.61148876953125,-0.009872574716806411,0.01501417538896203,0.016212856254773214
1782814206590570000,5.631570068359375,-0.0871621506243944,0.031026860295981167,0.040569143612496555
1782814206610652000,5.65165185546875,-0.08747486983537674,0.051963995993137356,0.010302709762379526
1782814206630734000,5.671734130859375,0.09217442582845688,-0.049647097352892154,0.035587884601205585
1782814206650816000,5.69181591796875,0.10718027178049087,-0.05117196883261203,0.06700979036306962
1782814206670897000,5.71189697265625,0.026369536009430882,-0.007821633536368607,0.08831346695083193
1782814206690979000,5.73197900390625,-0.05484510438740253,0.04645677687898278,0.09129803571957162
1782814206711061000,5.75206103515625,-0.06231587865948677,0.02254142908863723,0.11245171851054765
1782814206731142100,5.77214208984375,-0.044753918483853336,0.006508285915479064,0.12641032956512643
1782814206751224000,5.79222412109375,-0.003478489765524864,-0.00948898222669959,0.1361840470173396
1782814206771305000,5.812304931640625,0.05164718512892723,-0.028839944710955023,0.09125749364662915
1782814206791387100,5.83238720703125,0.0632207185447216,-0.09358706910535693,0.06877996010705828
1782814206811469000,5.852468994140625,-0.03926175080835819,-0.04189794453084469,0.07466965746646746
1782814206831550200,5.87255029296875,-0.11040800165534019,-0.03587400806620717,0.06001436025146395
1782814206851632000,5.892632080078125,-0.047099020305275914,-0.06547850740887225,0.061250194789888336
1782814206871714000,5.912714111328125,0.01141454346179962,-0.09887180457524955,0.015762272076215594
1782814206891795000,5.932794921875,0.0020177695631980893,-0.08327997542880475,-0.00012301445831544697
1782814206911876900,5.952876953125,-0.05203472314178943,-0.08877119325622916,-0.027813515139510855
1782814206931959000,5.972958984375,-0.10194704730212688,-0.050293213236704465,-0.04421933668311685
1782814206952040000,5.9930400390625,-0.07663841852247714,-0.03678520462699234,0.020728050390584393
1782814206972121900,6.013121826171875,-0.016133388677239416,0.010110036734491587,0.09745598296057432
1782814206992204000,6.0332041015625,0.04862929861247539,0.010077888030558825,0.06731045381007715
1782814207012285000,6.053284912109375,0.12978022612333298,-0.023510201055556533,0.051744882482895625
1782814207032367000,6.0733671875,0.11136486398875713,-0.01903108288012445,0.042552590780984605
1782814207052449000,6.093448974609375,0.08553191907405852,0.009148571291193366,0.04196341098248958
1782814207072530000,6.113530029296875,0.08530980075597762,-0.0322928616438061,0.02640358440950513
1782814207092612000,6.133612060546875,-0.02281915005147457,-0.05093202259689569,0.03989084249213338
1782814207112694000,6.153694091796875,-0.12077683545649051,-0.055271732301637524,0.020292362387059254
1782814207132775200,6.173775146484375,-0.19965397281646727,-0.029473128047958014,0.047352748471172525
1782814207152857000,6.193857177734375,-0.23377836073637007,0.00489405565187335,0.06071442567906342
1782814207172938000,6.21393798828125,-0.12278116101622581,-0.024967852517962453,0.06721520414152182
1782814207193020200,6.234020263671875,0.04127952037155628,-0.08474179160967468,0.08637704639500006
1782814207213102000,6.25410205078125,0.14115326853096485,-0.04097637270651758,0.15061614820202812
1782814207233183000,6.274182861328125,-0.014346505260467528,-0.014517477913200854,0.10091135671199299
1782814207253265000,6.294264892578125,-0.06814180833399296,-0.0018422668658196926,0.006126871682726778
1782814207273346600,6.3143466796875,0.08093290084600448,-0.03419058502390981,0.025164238173165356
1782814207293427700,6.334427734375,0.19042378765642642,-0.0541340335085988,0.07972671252717263
1782814207313509600,6.354509521484375,0.06794891611039638,-0.04723601762317121,0.06680212069544941
1782814207333591800,6.374591796875,-0.03938157779574394,-0.08680332724936306,-0.006994535062462091
1782814207353672700,6.394672607421875,-0.11450023940503597,-0.11103935836143791,-0.0623601835920941
1782814207373754600,6.414754638671875,-0.07357610834240913,-0.11298537786267697,-0.07657910325040575
1782814207393836800,6.4348369140625,0.004614800319075584,-0.1344675071567297,-0.020620470963418482
1782814207413917700,6.454917724609375,-0.04768061958551407,-0.10966405142024159,-0.036111707545910025
1782814207434000000,6.474999755859375,-0.027452655071020123,-0.11399024405628443,-0.04463875853843055
1782814207454081800,6.495081787109375,0.03239712573587894,-0.09829057062119245,-0.037295688599511045
1782814207474163000,6.515162841796875,0.07501637027859688,-0.06666676734536886,0.023815915137017144
1782814207494244900,6.535244873046875,0.00717909784913063,0.0024249621246010063,0.07372455863608048
1782814207514326800,6.555326904296875,-0.07184300093948841,0.03957958458587527,0.09254904042766429
1782814207534408000,6.575407958984375,0.007459083834290504,0.001375818397849798,0.16677540197288618
1782814207554489900,6.59548974609375,-0.0027834932386875152,-0.03419080421961844,0.09759340040357783
1782814207574570800,6.61557080078125,-0.04562368705570698,0.03612674071826041,0.14423293170463292
1782814207594653000,6.63565283203125,-0.08015022603571414,0.05111527020931243,0.1872985317753628
1782814207614734800,6.65573486328125,0.07795359277427195,-0.012704510207101703,0.07916527011897415
1782814207634815700,6.675815673828125,0.15340309377312658,-0.13969254832863806,0.031546171462349594
1782814207654897700,6.695897705078125,0.016112930411100387,-0.16066650890484452,0.01531935974746011
1782814207674979600,6.7159794921875,-0.14632920986413955,-0.0953610930405557,0.01690987577533815
1782814207695060700,6.736060791015625,-0.24517419949769972,-0.02698087284080684,-0.04071498639055062
1782814207715142700,6.756142578125,-0.04428630097210407,-0.14802856112793086,-0.028991577908978796
1782814207735224800,6.776224853515625,-0.1395388190716505,-0.15372494613863527,-0.09620781866353936
1782814207755305700,6.7963056640625,-0.03675239833593368,-0.08310593403615057,0.014757314551062882
1782814207775387600,6.8163876953125,0.09485621225833893,-0.026021818550303576,0.11634052437632345
1782814207795469800,6.8364697265625,0.044136663368344306,-0.05587108643427491,0.0818211001236923
1782814207815550700,6.85655078125,-0.06833879221081733,-0.0751313018951565,-0.048716264509875325
1782814207835633000,6.8766328125,-0.05038169523775577,-0.02533580904752016,0.053057782579213376
1782814207855713800,6.8967138671875,0.009768529820442198,0.015088994190841913,0.14668936667973176
1782814207875796000,6.9167958984375,0.04633738828301429,-0.0013662468519061804,0.11266922458559274
1782814207895878000,6.9368779296875,0.058525254204869266,-0.06777947782762349,0.05184394981004298
1782814207915958800,6.956958740234375,-0.06681669721007347,-0.05478453330658376,0.03844113687416539
1782814207936041000,6.977041015625,-0.09149111973941326,0.014120514484867452,0.09589544651242904
1782814207956123000,6.997122802734375,0.011831892091035842,-0.029351474429666995,0.0825307096977718
1782814207976203800,7.017203857421875,0.13710896157622338,-0.0882050107408315,0.07512577633666806
1782814207996285700,7.03728564453125,0.04231003246307373,-0.05504756815694272,0.04525710963248275
1782814208016367600,7.05736767578125,0.03688976098001003,0.005185805140063167,0.051045949566457416
1782814208036448800,7.07744873046875,0.14814707294106483,0.0002855389431118965,0.08557749351514503
1782814208056530700,7.09753076171875,0.12065583942532539,-0.07222257484160363,-0.03925073622399941
1782814208076612600,7.117612548828125,0.10804536417722702,-0.11247545557916164,0.0058462874759454275
1782814208096693800,7.13769384765625,-0.02763794851005077,-0.029394875179976222,-0.0032034493835410103
1782814208116775700,7.157775634765625,0.013479074776172637,0.010799918694794177,0.056525814882805565
1782814208136856800,7.17785693359375,0.011910218024253844,0.042096024386212225,0.03464579971181229
1782814208156938800,7.197938720703125,0.027770634979009626,-0.005949702184647321,-0.04778562346310355
1782814208177020700,7.218020751953125,-0.1179231995910406,-0.05284136334955692,0.021484850974101573
1782814208197101800,7.238101806640625,-0.23884265838861465,0.02592296128571033,0.13711996702742762
1782814208217183700,7.258183837890625,-0.11881751808226108,0.019501476870849726,0.14235670777028425
1782814208237266000,7.278265869140625,0.010425532424449921,-0.010155264115706086,0.05510286027444526
1782814208257346800,7.298346923828125,-0.10739128418266773,-0.02846694668009877,-0.03158674093475565
1782814208277429800,7.3184296875,-0.1975005941748619,-0.021450565112009642,-0.024172318226099013
1782814208297512000,7.338511962890625,-0.07923311119079589,-0.04381013482771814,0.021100600896868854
1782814208317592800,7.3585927734375,0.03215630271732807,-0.06569098111577332,0.02765628788433969
1782814208337674800,7.3786748046875,0.06699322282075881,-0.06405600032508373,-0.014190383116994052
1782814208357757000,7.3987568359375,-0.031412790873646734,-0.05372925209999084,-0.014876949742203577
1782814208377837800,7.418837890625,-0.007722118684649467,-0.012008563832193613,-0.021215961771691216
1782814208397920000,7.438919921875,0.05681611219942569,-0.0018975772496312856,0.043716538260132075
1782814208418001000,7.4590009765625,-0.030296938586235046,-0.031062370000779625,0.028480025357380506
1782814208438082800,7.479082763671875,-0.09565233107209205,-0.01709331975057721,0.006976743677444755
1782814208458165000,7.4991650390625,-0.038832711741328234,-0.05540127696543932,0.0257715335836634
1782814208478246000,7.519245849609375,0.03234802589714527,-0.09683043494075536,0.08798219830300659
1782814208498328000,7.539328125,0.012101941204071045,-0.10790317922756075,0.10041564561692067
1782814208518410000,7.559409912109375,-0.07288987964391708,-0.07176051028780639,0.07987966546602547
1782814208538491000,7.579490966796875,-0.03942190980613231,-0.15250694865100084,0.056248303982522334
1782814208558572800,7.59957275390625,0.0014607202023267745,-0.1726020075008273,0.037037316224537785
1782814208578654700,7.61965478515625,-0.11730711351931095,-0.118902054560557,0.06189526036093011
1782814208598736000,7.63973583984375,-0.1656067417860031,-0.007306158294901251,0.0975320804040879
1782814208618817800,7.65981787109375,-0.09963935488164424,-0.0312795929480344,0.06839097905578091
1782814208638899700,7.679899658203125,-0.00032557869255542754,-0.06902567849643527,0.0076393449051771305
1782814208658980900,7.69998095703125,0.07379121239781379,-0.07566760072894393,0.048175179903116074
1782814208679062800,7.720062744140625,-0.041588147929310794,0.0029815000288188455,0.06500235039764084
1782814208699144000,7.74014404296875,-0.07490121946632862,0.045256826504692434,0.022605699097039175
1782814208719225900,7.760225830078125,-0.02104746420383453,0.027267069371044634,0.058209676316520194
1782814208739307800,7.780307861328125,-0.0724228466540575,-0.023593349294364453,0.024083014241140333
1782814208759389000,7.800388916015625,-0.08029401842057704,-0.008582607971504331,0.04085499308286235
1782814208779470800,7.820470947265625,-0.10929507197737694,0.04524184813126921,0.08130595367578788
1782814208799553000,7.840552978515625,-0.07671148375868797,0.04422200356423855,0.09418952851053326
1782814208819634000,7.860634033203125,0.010686229187250137,-0.014616115982085466,0.068478173282044
1782814208839715800,7.8807158203125,0.12181553085446357,-0.053948886200040576,0.03062437130915932
1782814208859798000,7.900798095703125,0.16404431477487086,-0.10038337818197905,0.028112214958295224
1782814208879878700,7.920878662109375,0.08383680559396743,-0.12230346050187944,-0.011046742195868865
1782814208899960800,7.9409609375,-0.024055998370051384,-0.12134944771267472,-0.028041944467369465
1782814208920042800,7.961042724609375,-0.02171031202673912,-0.11238982312232255,-0.009449079474573954
1782814208940124000,7.9811240234375,0.029518355429172513,-0.13075550089627502,0.016380814966512842
1782814208960205800,8.001205810546875,0.014376315876841544,-0.08594517605006695,0.013037906879931687
1782814208980286700,8.02128662109375,-0.010598550903797148,-0.09300072058476506,0.027049143170891327
1782814209000369000,8.041368896484375,-0.0883259337067604,-0.05457315557822585,-0.015156479069637133
1782814209020450800,8.061450927734375,0.007862403938174247,-0.006461889490485191,0.043443968396447596
1782814209040532000,8.081531982421875,0.04594868122637272,0.016672098663821817,0.04739323574518785
1782814209060614000,8.10161376953125,0.01495031637251377,0.02886741723977029,0.12348004826689138
1782814209080695800,8.12169580078125,-0.17822656938433645,0.09848090556152164,0.1508750274670776
1782814209100777000,8.14177685546875,-0.2225759987205267,0.1398582602843642,0.12681783265378324
1782814209120859000,8.16185888671875,-0.12567337532639503,0.08368176116272806,0.16077521171001716
1782814209140940800,8.18194091796875,-0.01382277364730835,0.0224284702334553,0.14491631085891277
1782814209161022000,8.20202197265625,0.05517185212373733,-0.019978081406652925,0.09949161697402596
1782814209181103900,8.222103759765625,0.08217033368647098,-0.05030863000154495,0.058623143355082716
1782814209201186000,8.24218603515625,0.058664370414614676,-0.031011881922557948,0.04866695460858755
1782814209221266700,8.2622666015625,0.1805342618048191,-0.06017002573721111,0.008878001588350162
1782814209241348900,8.282348876953124,0.25928631148040293,-0.1604004053145647,-0.03369152206112631
1782814209261429800,8.3024296875,0.16990531576275825,-0.16042254408113657,-0.053310761826438825
1782814209281511000,8.322510986328124,-0.04338087656497955,-0.11343750554434955,-0.032751382533647115
1782814209301592800,8.3425927734375,-0.24139058930575846,-0.014453911157697438,-0.05823275579800829
1782814209321673700,8.362673828125,-0.24669746354222297,0.020910101559758185,0.006738003018125892
1782814209341755600,8.382755615234375,-0.13346388307213783,0.021726751704886554,0.036432801859593016
1782814209361837600,8.402837646484375,0.041050972312688824,-0.05820544766597449,0.008188156160665675
1782814209381918700,8.422918701171875,0.11108137087225914,-0.061834671013802286,-0.022433666998380793
1782814209402000600,8.443000732421876,0.08387538403868675,0.012488310173153877,-0.02103086926206015
1782814209422082600,8.46308251953125,0.06896130802333354,0.035783772499486804,-0.03870708520081825
1782814209442163700,8.483163818359374,0.08261632388830184,0.005094035203382373,-0.0028330680014565586
1782814209462245600,8.50324560546875,0.037086160334944725,0.019630144751816986,0.01360735906464979
1782814209482326800,8.523326904296875,-0.04148994825184345,0.04035327237211168,0.009394463210506365
1782814209502408700,8.54340869140625,-0.02200958723425865,-0.003135813807696104,0.002466983768576756
1782814209522490600,8.56349072265625,-0.07592004112005234,-0.015334420319274067,0.03233132135751657
1782814209542571800,8.58357177734375,-0.09203180248737335,-0.04453245775289833,0.012894845147430896
1782814209562653700,8.60365380859375,-0.09157762897908688,-0.09315992973446846,0.011663357990561053
1782814209582736000,8.62373583984375,-0.0653904637992382,-0.13468889482244847,-0.01220372107811272
1782814209602816800,8.643816650390624,0.015942250019311904,-0.1555884019229561,0.0004701017297804355
1782814209622899000,8.66389892578125,0.034463995137810705,-0.1637326184771955,0.03865056924060918
1782814209642980900,8.68398095703125,-0.02949555907547474,-0.13893953800424932,0.052657640813104804
1782814209663061500,8.7040615234375,-0.024496727874875068,-0.12520093550905584,0.04460576958428137
1782814209683143700,8.724143798828125,0.06493219863772393,-0.1664533486779779,0.022669567246641962
1782814209703224600,8.744224609375,0.07328793905079364,-0.19128340016044676,0.015186709811119362
1782814209723306800,8.764306640625,-0.07852759326994418,-0.09283829656466841,0.01745839020330459
1782814209743388700,8.784388671875,-0.08566109841167927,0.021625921678915618,0.027012893680576234
1782814209763469800,8.8044697265625,0.1050876834154129,-0.024702333449572324,-0.025636024969955904
1782814209783551700,8.8245517578125,0.30926527113616464,-0.13084449435397982,-0.04372703225468285
1782814209803633700,8.844633544921875,0.1853881315767765,-0.09894092428870499,-0.04037981331916526
1782814209823714800,8.86471484375,-0.11535013423264026,-0.005341653288900852,0.04208748488673009
1782814209843796700,8.884796630859375,-0.3366641501933336,0.1383155608870089,0.08223642119262367
1782814209863878700,8.904878662109375,-0.20337211655676363,0.08577296128831803,0.12632028579465113
1782814209883959800,8.924959716796875,-0.004135492369532585,-0.018305325888842344,0.15533881107605993
1782814209904041700,8.945041748046876,0.026857027265429496,-0.04248487757332623,0.182118060397543
1782814209924123000,8.965122802734374,-0.12671440881192683,0.02910882478021085,0.2148968789273873
1782814209944204800,8.985204833984374,-0.1010007063627243,0.04203289602212608,0.19218423972399903
1782814209964286700,9.00528662109375,-0.01676291875243187,-0.04243029784187674,0.15004643115582875
1782814209984367900,9.025367919921875,0.004697217905521392,-0.04505582403987646,0.08831365874707699
1782814210004449800,9.04544970703125,-0.028978257203102112,-0.06631115884073079,0.08051595407556741
1782814210024532000,9.065531982421875,-0.10540741688907146,-0.03953801046647131,0.04798647066429257
1782814210044612600,9.085612548828125,-0.019292729490995406,-0.06902085619084537,0.01680738808182068
1782814210064694500,9.105694580078126,0.10667524486780167,-0.10666939964890479,-0.028552652202174067
1782814210084776700,9.125776611328124,0.1537123058527708,-0.18368059700652956,-0.08385601261793635
1782814210104857600,9.145857666015624,0.09493395366966724,-0.16678462645895778,-0.0433663365829736
1782814210124939800,9.165939697265625,-0.048265725997090336,-0.012473039538785815,0.02243765818690881
1782814210145020700,9.186020751953125,-0.049987727484107014,-0.029726883613318204,-0.002243705539871007
1782814210165102800,9.206102783203125,0.03188683812618255,-0.07400317464806139,-0.01086028884621337
1782814210185184800,9.226184814453125,0.12196224584877491,-0.10066745582036674,-0.011553157348046078
1782814210205265700,9.246265625,0.06984159798920155,-0.04506232684589922,0.04204364574500359
1782814210225347800,9.266347900390626,-0.03587853811085224,0.037762452161312104,0.09056074355412275
1782814210245429800,9.2864296875,-0.13399521346986293,0.03707717331089079,0.09813628424177877
1782814210265511000,9.306510986328124,-0.12798925105333328,0.06679236648641526,0.09911154988156631
1782814210285592800,9.3265927734375,-0.010049684849381447,0.0015757979493588208,0.019414090848341583
1782814210306300700,9.34730078125,0.15998890190422535,-0.10712130813486874,0.0015365527843590825
1782814210326382600,9.367382568359375,-0.010722469544410704,-0.04061440752632916,0.043476007502526046
1782814210346464500,9.387464599609375,-0.17559914349019526,0.013942965960875152,0.026301868467545134
1782814210366545700,9.407545654296875,-0.1338783090919256,-0.03258088480494916,-0.06852481630221009
1782814210386627600,9.427627685546875,-0.025859832921624182,-0.0790610425595194,-0.03009593612141907
1782814210406708700,9.447708740234376,0.10502981574833392,-0.09579597732648253,0.005522772876312956
1782814210426790700,9.467790771484376,0.150030402469635,-0.11768171898536384,0.07189168978626839
1782814210446872800,9.487872802734374,0.056633156847953794,-0.08508746324218809,0.07340767470663413
1782814210466953700,9.50795361328125,0.018612346011400223,-0.03218121796287596,0.046894300646567716
1782814210487035600,9.52803564453125,0.014029694396257399,-0.05138473480045795,0.04052998064588755
1782814210507117800,9.548117919921875,0.0988572645932436,-0.07613426839262247,0.016652069655945522
1782814210527198700,9.56819873046875,0.14962357523441314,-0.07361117965579032,0.023452324255323037
1782814210547281000,9.588281005859375,0.1587970617711544,0.002473039050027728,0.10159366728719323
1782814210567362800,9.60836279296875,-0.013184475743770598,0.0008930033169686793,0.06352472472628579
1782814210587443700,9.628443603515626,-0.13653028490543365,-0.04249028440080583,0.010575663218554108
1782814210607526000,9.64852587890625,-0.2089560541689396,-0.044959597123786804,0.06369140479639172
1782814210627606500,9.6686064453125,-0.23485505005717275,-0.07011084338463842,0.0640923137474805
1782814210647061800,9.688061767578125,-0.307379018998146,-0.09555259702466427,0.04760581904994324
1782814210667144000,9.70814404296875,-0.3198445328176021,-0.08080642492212355,0.04163522020773962
1782814210687225900,9.728225830078125,-0.25570026968717574,-0.08734576356299222,0.09065764632364734
1782814210707306500,9.748306396484375,-0.16967442961633206,-0.053315775928273794,0.05849031075565144
1782814210727388700,9.768388671875,0.021198855373263357,-0.07647964776419103,0.08430533642116933
1782814210747470600,9.788470703125,0.24083587803244588,-0.10556041549369692,0.06780640236716717
1782814210767551700,9.8085517578125,0.37003450487554074,-0.09178608409799635,0.07903968011108227
1782814210787633700,9.828633544921875,0.15987082848250864,0.036707974672317505,0.10283071653516962
1782814210807715600,9.848715576171875,0.1250122810691595,0.08404204584248363,0.0440775353259407
1782814210827796700,9.868796630859375,0.2660983295828104,-0.06053242930881679,0.013440295402053742
1782814210847878700,9.888878662109375,0.0865051480203867,-0.02629647077322006,0.03511418440854177
1782814210867959800,9.908959716796875,-0.12516776389181614,0.06506386219337582,0.045397294421307736
1782814210888041700,9.929041748046876,-0.33783728562593457,0.14449899876229463,0.07691730852909386
1782814210908123600,9.94912353515625,-0.3728887252628803,0.10144676962979138,0.041627913684118535
1782814210928204800,9.969204833984374,-0.19718845948576927,-0.030300737978518007,0.0061844425222836435
1782814210948286700,9.98928662109375,0.03844166659712791,-0.08615370423421263,0.01213147782580927
1782814210968369000,10.009368896484375,0.13583762646615505,-0.07583353188037872,0.05066716111563146
1782814210988449800,10.02944970703125,-0.06403495753705502,0.006296908187121152,0.07483778057498856
1782814211008531700,10.04953173828125,-0.1428454594016075,0.0005397328998893499,0.029852921145781874
1782814211028614000,10.06961376953125,0.05726794762015342,-0.11601488175168632,-0.09181333743110298
1782814211048694800,10.08969482421875,0.3014917145252228,-0.13699205719828605,-0.03913848975487053
1782814211068777000,10.10977685546875,0.19429624517560004,-0.09347586381584405,0.05050798849854618
1782814211088859000,10.12985888671875,-0.039919922456145285,-0.017339403466135262,0.0026566337223164734
1782814211108939500,10.149939453125,-0.01575987918972969,-0.04666567038930952,-0.00218094250196591
1782814211129021700,10.170021728515625,0.0013058219015598296,-0.028343977887555955,-0.0053434068545699116
1782814211149102600,10.1901025390625,0.17942659282386303,-0.10016345182098448,-0.11697989085894077
1782814211169184800,10.210184814453125,0.1157183830231428,-0.08885814088732004,-0.016458665975695477
1782814211189266700,10.2302666015625,-0.15305588777065277,-0.07487666954696177,0.0401311631871853
1782814211209347800,10.250347900390626,-0.1965326259255409,0.06801730517148971,0.09724095197040587
1782814211229429800,10.2704296875,-0.049022681844234466,0.0580015956569463,0.17184320675646886
