time,seconds_elapsed,z,y,x
1782814097293688000,0.06568798828125,-0.119883231818676,-0.04579484835267067,0.11438269168138504
1782814097313770000,0.08577001953125,-0.07437177747488022,-0.09415067732334137,0.07054410874843597
1782814097333852200,0.10585205078125,-0.08305281400680542,-0.024652015417814255,-0.013764165341854095
1782814097353934000,0.12593408203125,-0.04503290727734566,-0.014665147289633751,-0.05347434803843498
1782814097374016000,0.14601611328125,0.1977650374174118,-0.1026531532406807,-0.10194417834281921
1782814097394098000,0.166097900390625,0.4383910596370697,-0.09630705416202545,-0.13416682183742523
1782814097414180000,0.18618017578125,0.4859592616558075,0.09434113651514053,-0.052055247128009796
1782814097434262000,0.206261962890625,0.3494720757007599,0.21167540550231934,0.12707674503326416
1782814097454344000,0.226343994140625,0.26872947812080383,0.3433825373649597,0.15411047637462616
1782814097474426000,0.246426025390625,0.31444793939590454,0.34870195388793945,-0.01931370235979557
1782814097494508000,0.266508056640625,0.35607829689979553,0.16521602869033813,-0.10644493252038956
1782814097514590000,0.28658984375,0.30083194375038147,0.06448876857757568,0.007534056436270475
1782814097534672100,0.306672119140625,0.343478262424469,0.2994985282421112,0.34258660674095154
1782814097554754000,0.326754150390625,0.3480241894721985,0.7376474738121033,0.7215489745140076
1782814097574836000,0.3468359375,0.2155311107635498,0.8155947923660278,0.8202373385429382
1782814097594918000,0.36691796875,-0.01637188345193863,0.2552638053894043,0.7152129411697388
1782814097615000000,0.387,-0.27154067158699036,-0.18008455634117126,0.5672644972801208
1782814097635082000,0.40708203125,-0.4086289703845978,-0.34649255871772766,0.37564921379089355
1782814097655164000,0.427163818359375,-0.46696311235427856,-0.6463954448699951,0.09083056449890137
1782814097675246000,0.44724609375,-0.5414320826530457,-0.7134507894515991,-0.15640483796596527
1782814097695328000,0.467327880859375,-0.7100239992141724,-0.683359682559967,-0.1499849259853363
1782814097715410000,0.487409912109375,-0.9406373500823975,-0.8135671615600586,0.05690933018922806
1782814097735492000,0.5074921875,-1.069273591041565,-1.0074979066848755,0.30777084827423096
1782814097755574000,0.527573974609375,-1.1477878093719482,-0.9091468453407288,0.4307064414024353
1782814097775656000,0.547656005859375,-1.149412751197815,-0.6999642848968506,0.38209065794944763
1782814097795737900,0.56773779296875,-0.97347491979599,-0.543487548828125,0.11275539547204971
1782814097815820000,0.587820068359375,-0.8176552653312683,-0.5972287654876709,-0.19142712652683258
1782814097835902000,0.60790185546875,-0.8722691535949707,-0.6114818453788757,-0.49203890562057495
1782814097855983900,0.62798388671875,-0.9277101159095764,-0.602789580821991,-0.7098269462585449
1782814097876066000,0.648066162109375,-0.9531999826431274,-0.544806957244873,-0.6992143392562866
1782814097896148000,0.66814794921875,-0.9748998880386353,-0.34370341897010803,-0.4258742928504944
1782814097916230000,0.68822998046875,-1.0113368034362793,-0.06614836305379868,-0.07988395541906357
1782814097936312000,0.70831201171875,-1.006679654121399,0.055247243493795395,0.23111586272716522
1782814097956394000,0.72839404296875,-0.9954543709754944,-0.013638146221637726,0.4311199188232422
1782814097976476000,0.748475830078125,-0.9797993898391724,-0.1170031726360321,0.47277945280075073
1782814097996557800,0.768557861328125,-0.8550994992256165,-0.23756898939609528,0.40679678320884705
1782814098016640000,0.788639892578125,-0.6049761772155762,-0.350678950548172,0.2581854462623596
1782814098036722000,0.808721923828125,-0.3766402304172516,-0.41403883695602417,0.05917377024888992
1782814098056803800,0.828803955078125,-0.2779669761657715,-0.42357465624809265,-0.1375070959329605
1782814098076886000,0.848885986328125,-0.2617715299129486,-0.4581286311149597,-0.2576753795146942
1782814098096968000,0.868968017578125,-0.242485910654068,-0.4176694452762604,-0.23824496567249298
1782814098117049900,0.8890498046875,-0.20074672996997833,-0.19875892996788025,-0.1287088841199875
1782814098137132000,0.909132080078125,-0.13034352660179138,0.0386296808719635,-0.015947632491588593
1782814098157214000,0.9292138671875,-0.06278672069311142,0.15475697815418243,0.06867806613445282
1782814098177296400,0.94929638671875,-0.007599375210702419,0.10725798457860947,0.09556229412555695
1782814098197378300,0.96937841796875,-0.024449151009321213,-0.025667479261755943,0.028229089453816414
1782814098217460500,0.98946044921875,-0.03980841487646103,-0.1813623607158661,-0.08018948882818222
1782814098237541400,1.009541259765625,-0.028297435492277145,-0.2924193739891052,-0.17007410526275635
1782814098257623600,1.02962353515625,-0.0007841066690161824,-0.2986903488636017,-0.1885312795639038
1782814098277705500,1.04970556640625,-0.005952814128249884,-0.2733651101589203,-0.16279318928718567
1782814098297788400,1.069788330078125,-0.05629437789320946,-0.20880107581615448,-0.12412675470113754
1782814098317869300,1.089869384765625,-0.10671883821487427,-0.12627072632312775,-0.07355599105358124
1782814098337951500,1.109951416015625,-0.14174290001392365,-0.05976959317922592,-0.04054451733827591
1782814098358033400,1.130033447265625,-0.1619282066822052,-0.06528608500957489,-0.002294955775141716
1782814098378115300,1.150115234375,-0.16223201155662537,-0.02608674205839634,0.02878028340637684
1782814098398197500,1.170197509765625,-0.20444843173027039,0.033228687942028046,0.03932837396860123
1782814098418279400,1.190279541015625,-0.22104693949222565,0.08066711574792862,0.03849980980157852
1782814098438361300,1.210361328125,-0.16612619161605835,0.1088629812002182,0.03070584312081337
1782814098458443500,1.230443603515625,-0.11163594573736191,0.05040697008371353,-0.011315206065773964
1782814098478525400,1.250525390625,-0.08701848238706589,0.003140031360089779,-0.08045767992734909
1782814098498607400,1.270607421875,-0.055903416126966476,-0.04407479241490364,-0.09384090453386307
1782814098518689300,1.290689208984375,-0.02341921441257,-0.059484370052814484,-0.08017668128013611
1782814098538771500,1.310771484375,-0.009438901208341122,-0.027003968134522438,-0.08509744703769684
1782814098558853400,1.330853271484375,-0.00538973230868578,-0.018942467868328094,-0.08254650235176086
1782814098578935300,1.350935302734375,0.010283990763127804,-0.043871618807315826,-0.044518448412418365
1782814098599017500,1.371017578125,0.029413245618343353,-0.036425501108169556,-0.006811369210481644
1782814098619099400,1.391099365234375,0.03453138470649719,-0.01705489680171013,0.023236647248268127
1782814098639181300,1.411181396484375,0.032685212790966034,0.05110852047801018,0.05744629353284836
1782814098659263500,1.431263427734375,0.015868674963712692,0.07011851668357849,0.06854064762592316
1782814098679345400,1.451345458984375,-0.005229006987065077,-0.035085730254650116,0.055979516357183456
1782814098699427300,1.47142724609375,0.006268648896366358,-0.11619114875793457,0.019393162801861763
1782814098719509200,1.49150927734375,0.007227800786495209,-0.11506243050098419,-0.02488921396434307
1782814098739591400,1.51159130859375,0.014036786742508411,-0.06628768891096115,-0.05768822506070137
1782814098759673300,1.53167333984375,0.014791462570428848,0.011079616844654083,-0.0898277759552002
1782814098779755300,1.55175537109375,-0.0033088403288275003,0.09995731711387634,-0.103382907807827
1782814098799837400,1.57183740234375,-0.0051066018640995026,0.16754451394081116,-0.09563761204481125
1782814098819919400,1.59191943359375,-0.0012291590683162212,0.13852237164974213,-0.09045329689979553
1782814098840001300,1.612001220703125,0.026048636063933372,0.05045001208782196,-0.12362659722566605
1782814098860083500,1.63208349609375,0.05010809376835823,0.013612532056868076,-0.14183473587036133
1782814098880165400,1.652165283203125,0.049925196915864944,0.0373540073633194,-0.11819812655448914
1782814098900247300,1.672247314453125,-0.0013404141645878553,0.10961008816957474,-0.06984823942184448
1782814098920329200,1.6923291015625,-0.04990052059292793,0.14736837148666382,-0.0016636617947369814
1782814098940411400,1.712411376953125,-0.051977161318063736,0.0937676653265953,0.07486393302679062
1782814098960493300,1.732493408203125,-0.03120417520403862,-0.014234248548746109,0.10878300666809082
1782814098980575200,1.7525751953125,-0.011423216201364994,-0.09225323051214218,0.06807976961135864
1782814099000657400,1.772657470703125,0.009271785616874695,-0.0668819397687912,-0.0013307787012308836
1782814099020739300,1.7927392578125,0.02643347904086113,-0.0069274334236979485,-0.0720238983631134
1782814099040821200,1.8128212890625,0.013112376444041729,0.07947483658790588,-0.13352473080158234
1782814099060903400,1.8329033203125,0.0004053150478284806,0.10176122188568115,-0.136792853474617
1782814099080985300,1.8529853515625,-0.019723812118172646,0.06687916070222855,-0.1267780065536499
1782814099101067300,1.8730673828125,-0.059005361050367355,0.033136073499917984,-0.11560387909412384
1782814099121149200,1.893149169921875,-0.09312888979911804,-0.000691467896103859,-0.06304553896188736
1782814099141231400,1.9132314453125,-0.10065356642007828,-0.0012888011988252401,-0.007501109503209591
1782814099161313000,1.93331298828125,-0.10974937677383423,0.016862941905856133,0.004044197034090757
1782814099181395000,1.95339501953125,-0.12257693707942963,0.05248752981424332,-0.0020957724191248417
1782814099201477000,1.97347705078125,-0.1414203643798828,0.08297549188137054,0.001848933519795537
1782814099221559000,1.99355908203125,-0.14750348031520844,0.04423791915178299,0.0015861106803640723
1782814099241641000,2.013640869140625,-0.14019043743610382,-0.028191186487674713,-0.02338486537337303
1782814099261723100,2.03372314453125,-0.12160571664571762,-0.05478380247950554,-0.03131045773625374
1782814099281805000,2.05380517578125,-0.10684242844581604,-0.08758014440536499,-0.03184125944972038
1782814099301887000,2.073886962890625,-0.10446668416261673,-0.09729262441396713,-0.025873631238937378
1782814099321969200,2.09396923828125,-0.08859169483184814,-0.033273033797740936,-0.014419067651033401
1782814099342051000,2.114051025390625,-0.07404089719057083,0.008129463531076908,-0.005315789952874184
1782814099362133000,2.134133056640625,-0.06478557735681534,-0.009824586100876331,-0.02486800216138363
1782814099382215000,2.15421484375,-0.06117498502135277,-0.026700615882873535,-0.05744536221027374
1782814099402297000,2.174297119140625,-0.06257148087024689,-0.02192644402384758,-0.041316740214824677
1782814099422379000,2.19437890625,-0.0878610759973526,-0.025898540392518044,0.005864497274160385
1782814099442461000,2.2144609375,-0.10971502959728241,-0.02644423022866249,0.02407931163907051
1782814099462543000,2.234543212890625,-0.11452244967222214,0.006610407959669828,0.029447197914123535
1782814099482625000,2.254625,-0.11196199059486389,0.012087970972061157,0.027184948325157166
1782814099502707000,2.27470703125,-0.11326638609170914,0.019184855744242668,0.036159761250019073
1782814099522789000,2.2947890625,-0.12888622283935547,0.006078789010643959,0.0629437267780304
1782814099542871000,2.31487109375,-0.1219416931271553,-0.013788730837404728,0.08782216906547546
1782814099562953000,2.334952880859375,-0.10087946057319641,-0.014703331515192986,0.07820608466863632
1782814099583035000,2.355034912109375,-0.061269525438547134,0.0036975028924643993,0.04575718939304352
1782814099603117000,2.375116943359375,-0.022368503734469414,0.007741594687104225,0.038777124136686325
1782814099623199000,2.395198974609375,-0.016021667048335075,0.0031346785835921764,0.022983137518167496
1782814099643281000,2.415281005859375,-0.036710307002067566,-0.005677074659615755,0.0036677387543022633
1782814099663363000,2.435363037109375,-0.05625269189476967,-0.03539438545703888,0.007384232245385647
1782814099683445000,2.455445068359375,-0.06034165620803833,-0.06162290647625923,0.014965257607400417
1782814099703527000,2.47552685546875,-0.06962280720472336,-0.04639434069395065,0.026842772960662842
1782814099723609000,2.495609130859375,-0.08893125504255295,0.007773470599204302,0.047547366470098495
1782814099743691000,2.51569091796875,-0.10150588303804398,0.05326257273554802,0.051906272768974304
1782814099763773000,2.53577294921875,-0.11798758059740067,0.03367583453655243,0.03363160789012909
1782814099783854800,2.555854736328125,-0.11713862419128418,0.014602353796362877,0.017387669533491135
1782814099803937000,2.57593701171875,-0.09054061025381088,0.05075564607977867,0.002189358463510871
1782814099824019000,2.59601904296875,-0.03617900609970093,0.08203519880771637,-0.021891949698328972
1782814099844100900,2.616100830078125,-0.008352977223694324,0.06160351261496544,-0.0542936772108078
1782814099864183000,2.63618310546875,0.001176841789856553,0.008388579823076725,-0.06543519347906113
1782814099884265000,2.656264892578125,0.021732477471232414,-0.012076476588845253,-0.045996978878974915
1782814099904347000,2.676346923828125,0.04161984473466873,-0.014119131490588188,-0.00444328598678112
1782814099924429000,2.696428955078125,0.0505499392747879,-0.055490367114543915,0.01271763350814581
1782814099944511000,2.716510986328125,0.04703972488641739,-0.08157724887132645,0.01143229752779007
1782814099964593000,2.736593017578125,0.03298977017402649,-0.064463771879673,0.03134789690375328
1782814099984674800,2.7566748046875,0.020916245877742767,-0.02348145842552185,0.048172999173402786
1782814100004757000,2.776757080078125,0.019223973155021667,-0.002937142737209797,0.04867909476161003
1782814100024839000,2.7968388671875,0.02540281042456627,0.0064916969276964664,0.04612184315919876
1782814100044920800,2.8169208984375,0.021530481055378914,-0.017346855252981186,0.04513169452548027
1782814100065003000,2.8370029296875,0.004727331921458244,-0.02697944827377796,0.027943570166826248
1782814100085085000,2.8570849609375,-0.009311486035585403,-0.005322971381247044,0.024481642991304398
1782814100105166800,2.877166748046875,-0.008291522040963173,0.036684662103652954,0.03299782797694206
1782814100125249000,2.8972490234375,-0.002935850527137518,0.06807242333889008,0.05302653834223747
1782814100145331000,2.9173310546875,0.004754266235977411,0.058969732373952866,0.07849667221307755
1782814100165413600,2.93741357421875,0.03058890998363495,0.07518432289361954,0.06621324270963669
1782814100185495600,2.95749560546875,0.048384834080934525,0.07651969790458679,-0.003146521747112274
1782814100205577700,2.97757763671875,0.04685303196310997,0.024186015129089355,-0.053799282759428024
1782814100225659600,2.99765966796875,0.047827817499637604,0.008304087445139885,-0.09416870772838593
1782814100245741600,3.017741455078125,0.04906665161252022,-0.03371376916766167,-0.11945552378892899
1782814100265823500,3.037823486328125,0.056888397783041,-0.04780871793627739,-0.10546936839818954
1782814100285905700,3.05790576171875,0.05860736966133118,-0.02871129661798477,-0.06320437788963318
1782814100305987600,3.077987548828125,0.04842442274093628,-0.00922163762152195,-0.018897511065006256
1782814100326069500,3.098069580078125,0.02707693725824356,0.024095647037029266,0.005791721865534782
1782814100346151700,3.118151611328125,0.003151070326566696,-0.013781698420643806,0.03925107419490814
1782814100366233600,3.138233642578125,-0.01056522037833929,0.0007450548000633717,0.0666695237159729
1782814100386315500,3.1583154296875,-0.024534501135349274,0.017291724681854248,0.10023146867752075
1782814100406397700,3.178397705078125,-0.03478561341762543,0.027572227641940117,0.11349523812532425
1782814100426479600,3.198479736328125,-0.04321281611919403,0.0010361941531300545,0.10188742727041245
1782814100446561500,3.2185615234375,-0.03236863762140274,-0.03353482112288475,0.08656693994998932
1782814100466644500,3.23864453125,-0.0033735339529812336,-0.051845308393239975,0.047208357602357864
1782814100486725600,3.2587255859375,0.02265208587050438,-0.09274140000343323,-0.027206286787986755
1782814100506808600,3.27880859375,0.04173654690384865,-0.1070016548037529,-0.10372445732355118
1782814100526890500,3.298890380859375,0.040563423186540604,-0.10544663667678833,-0.15456339716911316
1782814100546972400,3.318972412109375,0.018255380913615227,-0.09315918385982513,-0.18191763758659363
1782814100567054600,3.3390546875,-0.004768967628479004,-0.05899384245276451,-0.17300951480865479
1782814100587136500,3.359136474609375,-0.011366141028702259,-0.01580730825662613,-0.1016119122505188
1782814100607218400,3.379218505859375,-0.007704055402427912,0.046484287828207016,-0.02321331575512886
1782814100627300600,3.399300537109375,-0.006331949960440397,0.08114409446716309,0.002349064452573657
1782814100647382500,3.419382568359375,-0.01803654246032238,0.0650162547826767,-0.013778772205114365
1782814100667464400,3.43946435546875,-0.02183355949819088,0.06908656656742096,-0.03840728849172592
1782814100687546400,3.45954638671875,-0.024518348276615143,0.09564699232578278,-0.051053088158369064
1782814100707628500,3.479628662109375,-0.02913879230618477,0.13605402410030365,-0.036073945462703705
1782814100727710500,3.49971044921875,-0.03816840425133705,0.14374081790447235,-0.017598360776901245
1782814100747792400,3.51979248046875,-0.03063994273543358,0.10079148411750793,-0.008286689408123493
1782814100767874600,3.53987451171875,0.002899126149713993,0.057996705174446106,-0.019086379557847977
1782814100787956500,3.55995654296875,0.026113342493772507,0.011321606114506721,-0.03882473707199097
1782814100808038400,3.580038330078125,0.029940836131572723,-0.03220296651124954,-0.05792972445487976
1782814100828120600,3.60012060546875,0.014846938662230968,-0.03620798885822296,-0.05294171720743179
1782814100848202500,3.620202392578125,-0.0007663756841793656,-0.01658635213971138,-0.0371028333902359
1782814100868284400,3.640284423828125,-0.018761543557047844,-0.0136055126786232,-0.03250005468726158
1782814100888366300,3.660366455078125,-0.01788880117237568,-0.005784068256616592,-0.024818094447255135
1782814100908448500,3.680448486328125,-0.03216203674674034,-0.02101389318704605,-0.0055968002416193485
1782814100928530400,3.700530517578125,-0.04846682399511337,-0.03899357467889786,0.01683877967298031
1782814100948612400,3.7206123046875,-0.051605358719825745,-0.027060480788350105,0.0390615276992321
1782814100968694500,3.740694580078125,-0.04548519104719162,-0.019785620272159576,0.04726323485374451
1782814100988776400,3.7607763671875,-0.03530150279402733,0.005424665752798319,0.046106163412332535
1782814101008858400,3.7808583984375,-0.020574498921632767,0.006653802003711462,0.051113326102495193
1782814101028940500,3.8009404296875,-0.009974107146263123,-0.01028364710509777,0.05657079815864563
1782814101049022500,3.8210224609375,-0.008203454315662384,-0.004080495797097683,0.05321640521287918
1782814101069104400,3.8411044921875,-0.015406277030706406,0.008592774160206318,0.05317068099975586
1782814101089186300,3.861186279296875,-0.03343241661787033,0.04120344668626785,0.05328173562884331
1782814101109268500,3.8812685546875,-0.040236946195364,0.05436787009239197,0.0322730727493763
1782814101129350400,3.901350341796875,-0.04475916922092438,0.08229583501815796,0.003562389872968197
1782814101149432300,3.921432373046875,-0.04509938880801201,0.09894376248121262,0.006555427797138691
1782814101169513700,3.941513671875,-0.06807751953601837,0.06237281858921051,0.0317244790494442
1782814101189595600,3.961595703125,-0.0897286906838417,0.01572480984032154,0.049237679690122604
1782814101209677800,3.981677734375,-0.07765400409698486,0.012496516108512878,0.06261638551950455
1782814101229759700,4.001759765625,-0.05381692200899124,0.02320019155740738,0.07314562052488327
1782814101249841700,4.021841552734375,-0.025021959096193314,0.018540913239121437,0.07998913526535034
1782814101269923600,4.041923583984375,0.0038126781582832336,0.023768827319145203,0.05383245274424553
1782814101290005800,4.062005859375,0.015574422664940357,0.026839492842555046,0.005945776589214802
1782814101310087700,4.082087646484375,0.036421213299036026,0.03525225818157196,-0.022086750715970993
1782814101330169600,4.102169677734375,0.052106212824583054,0.02464146725833416,-0.0297690499573946
1782814101350251800,4.122251708984375,0.05289492756128311,0.04985053837299347,-0.019776292145252228
1782814101370333700,4.142333740234375,0.04309205710887909,0.053464267402887344,0.009129472076892853
1782814101390415600,4.16241552734375,0.04059729725122452,0.0314563624560833,0.03171740099787712
1782814101410497800,4.182497802734375,0.049810513854026794,0.019569195806980133,0.02727358601987362
1782814101430579700,4.202579833984375,0.06057807058095932,0.017741771414875984,0.004846127703785896
1782814101450661600,4.22266162109375,0.061645712703466415,0.026240358129143715,0.0016285377787426114
1782814101470743600,4.24274365234375,0.058255262672901154,0.007457707542926073,0.027519483119249344
1782814101490825700,4.26282568359375,0.06031640246510506,-0.025584466755390167,0.048922907561063766
1782814101510907600,4.28290771484375,0.0550396554172039,-0.03579045832157135,0.05853730067610741
1782814101530989600,4.302989501953125,0.06473872810602188,-0.014707515016198158,0.04217325896024704
1782814101551071700,4.32307177734375,0.06593242287635803,-0.02231118455529213,0.03485328331589699
1782814101571153700,4.343153564453125,0.07050411403179169,-0.033411893993616104,0.022135578095912933
1782814101591235600,4.363235595703125,0.05809896066784859,-0.07275164127349854,-0.002495870226994157
1782814101611317800,4.38331787109375,0.05584849417209625,-0.0710957944393158,-0.023273224011063576
1782814101631399700,4.403399658203125,0.05440705642104149,-0.08789924532175064,-0.02868414670228958
1782814101651481600,4.423481689453125,0.051441967487335205,-0.0943828746676445,-0.046638812869787216
1782814101671563500,4.4435634765625,0.04651850834488869,-0.11036381125450134,-0.0523655079305172
1782814101691645700,4.463645751953125,0.03541972115635872,-0.0850413367152214,-0.04790922999382019
1782814101711727600,4.4837275390625,0.009621147997677326,-0.06531183421611786,-0.018338287249207497
1782814101731809500,4.5038095703125,-0.017268946394324303,-0.03926743194460869,0.0037590437568724155
1782814101751891700,4.5238916015625,-0.033463746309280396,-0.01740228198468685,0.02439042180776596
1782814101771973600,4.5439736328125,-0.03156483173370361,-0.0175937470048666,0.02215704135596752
1782814101792055600,4.5640556640625,-0.025601642206311226,-0.022460445761680603,0.006518535315990448
1782814101812137700,4.5841376953125,-0.028488509356975555,-0.0015575590077787638,0.007166748866438866
1782814101832219600,4.6042197265625,-0.02958638034760952,0.01544338557869196,0.034593626856803894
1782814101852301600,4.624301513671875,-0.02740173414349556,-0.010597056709229946,0.061420947313308716
1782814101872384800,4.644384765625,-0.01426774449646473,-0.02502577379345894,0.0687219426035881
1782814101892466700,4.664466796875,-0.0031755801755934954,-0.02608107402920723,0.04721176624298096
1782814101912548900,4.684548828125,0.01681436412036419,-0.022841516882181168,0.028384435921907425
1782814101932630800,4.704630859375,0.03762363642454147,0.0031037642620503902,0.01700412854552269
1782814101952712700,4.724712646484375,0.04519534111022949,0.030911266803741455,0.01336714904755354
1782814101972795000,4.744794921875,0.04493900015950203,0.02495504543185234,0.004409469664096832
1782814101992876800,4.764876708984375,0.050439078360795975,0.010499464347958565,0.00014821207150816917
1782814102012958700,4.784958740234375,0.05759919807314873,-0.0029014325700700283,0.016795288771390915
1782814102033040600,4.80504052734375,0.06479689478874207,-0.02590508759021759,0.016655493527650833
1782814102053122800,4.825122802734375,0.04685668647289276,-0.051826294511556625,-0.015428026206791401
1782814102073204700,4.845204833984375,0.02950192056596279,-0.03828936442732811,-0.041820596903562546
1782814102093286700,4.86528662109375,0.015509948134422302,-0.030647775158286095,-0.004533034283667803
1782814102113368800,4.885368896484375,0.0029538527596741915,-0.024473432451486588,0.05734864994883537
1782814102133450800,4.90545068359375,-0.00536306481808424,-0.024617213755846024,0.06318212300539017
1782814102153532700,4.92553271484375,0.015182511880993843,-0.015051803551614285,0.01639506407082081
1782814102173615000,4.945614990234375,0.025324122980237007,-0.022397059947252274,-0.030382489785552025
1782814102193697300,4.965697265625,0.02062649466097355,-0.02997344732284546,-0.04135049134492874
1782814102213779200,4.985779296875,0.0066518476232886314,-0.031828660517930984,-0.03640963137149811
1782814102233861000,5.005861083984375,-0.004474340472370386,-0.04848525673151016,-0.012873155064880848
1782814102253943300,5.025943359375,-0.013723313808441162,-0.0358152873814106,0.0033591308165341616
1782814102274025200,5.046025146484375,-0.02068614959716797,-0.028614362701773643,-0.00904933549463749
1782814102294107100,5.066107177734375,-0.021062782034277916,-0.017497722059488297,-0.047325074672698975
1782814102314189300,5.086189208984375,-0.014782151207327843,0.0016811424866318703,-0.0741991251707077
1782814102334271200,5.106271240234375,-0.011267933063209057,-0.0017020679078996181,-0.06272415816783905
1782814102354353200,5.126353271484375,0.002255003899335861,-0.011439045891165733,-0.052551403641700745
1782814102374435000,5.14643505859375,0.009597942233085632,-0.037533923983573914,-0.05287221446633339
1782814102394517200,5.166517333984375,0.024415265768766403,-0.05813160166144371,-0.04077020660042763
1782814102414599200,5.18659912109375,0.03564351797103882,-0.06549566984176636,-0.03230198100209236
1782814102434681000,5.20668115234375,0.024963470175862312,-0.0446242019534111,-0.035693708807229996
1782814102454763300,5.22676318359375,0.007711084559559822,-0.04152804613113403,-0.032653339207172394
1782814102474845200,5.24684521484375,0.00973463524132967,-0.04778911918401718,-0.025112386792898178
1782814102494927000,5.266927001953125,0.018913963809609413,-0.056253187358379364,-0.013786638155579567
1782814102515009300,5.28700927734375,0.010774793103337288,-0.04891254007816315,-0.0015275327023118734
1782814102535091200,5.30709130859375,-0.008371984586119652,-0.01742136850953102,0.001193110947497189
1782814102555800300,5.32780029296875,-0.015271800570189953,0.0038904622197151184,-0.011555609293282032
1782814102575882200,5.34788232421875,-0.012146365828812122,-0.009957394562661648,-0.02279864437878132
1782814102595964200,5.367964111328125,0.006977081764489412,-0.023927932605147362,-0.020367560908198357
1782814102616046000,5.388046142578125,0.016477491706609726,-0.0128183513879776,-0.03233115375041962
1782814102636128300,5.408128173828125,0.026379896327853203,0.01281004212796688,-0.055177681148052216
1782814102656210200,5.428210205078125,0.05995756387710571,0.03787517920136452,-0.07142455875873566
1782814102676292000,5.4482919921875,0.11425945907831192,0.05318126454949379,-0.09449762850999832
1782814102696374300,5.468374267578125,0.1436377912759781,0.044910360127687454,-0.11992547661066055
1782814102716456200,5.488456298828125,0.14157640933990479,-0.006307612173259258,-0.1281314641237259
1782814102736538000,5.5085380859375,0.12951818108558655,-0.03669166564941406,-0.11788133531808853
1782814102756620300,5.528620361328125,0.11675108969211578,-0.043322108685970306,-0.08939508348703384
1782814102776702200,5.5487021484375,0.1025274246931076,-0.019465867429971695,-0.05165398120880127
1782814102796784000,5.5687841796875,0.09562868624925613,-0.014602686278522015,-0.020221171900629997
1782814102816866000,5.588865966796875,0.08206183463335037,0.0031520063057541847,-0.011736281216144562
1782814102836948200,5.6089482421875,0.06058900058269501,0.009633688256144524,-0.015343716368079185
1782814102857031200,5.62903125,0.05575063079595566,0.002109314315021038,-0.02039884589612484
1782814102877113000,5.649113037109375,0.060827672481536865,-0.011636967770755291,-0.015438648872077465
1782814102897823000,5.669822998046875,0.060790982097387314,-0.03185369446873665,-0.0033371644094586372
1782814102917905200,5.6899052734375,0.05838705599308014,-0.035374630242586136,0.0020967633463442326
1782814102937987000,5.709987060546875,0.0530623197555542,-0.033587031066417694,-0.006365276873111725
1782814102958069000,5.730069091796875,0.04949232563376427,-0.03329435735940933,-0.019356779754161835
1782814102978151200,5.750151123046875,0.06179935112595558,-0.0232614204287529,-0.04625170677900314
1782814102998233000,5.770233154296875,0.07766211777925491,-0.002177910413593054,-0.07579154521226883
1782814103018315000,5.79031494140625,0.08441720902919769,0.0006955452263355255,-0.06634128093719482
1782814103038397200,5.810397216796875,0.08284242451190948,-0.01902908831834793,-0.04893723502755165
1782814103058479000,5.83047900390625,0.08173784613609314,-0.06226574257016182,-0.03187169134616852
1782814103078561000,5.85056103515625,0.08665507286787033,-0.05731191486120224,-0.04063819721341133
1782814103098643000,5.870642822265625,0.08780664950609207,-0.031934380531311035,-0.05377310514450073
1782814103118725400,5.890725341796875,0.08878199011087418,-0.027203872799873352,-0.058035701513290405
1782814103138807300,5.910807373046875,0.084047332406044,-0.032780468463897705,-0.06621672958135605
1782814103158889200,5.93088916015625,0.06798440963029861,-0.03466538339853287,-0.05461198464035988
1782814103178972200,5.95097216796875,0.056433554738759995,-0.003218133468180895,-0.012059101834893227
1782814103199054300,5.971054443359375,0.034181807190179825,0.006363395135849714,0.029107047244906425
1782814103219136300,5.99113623046875,0.01318832766264677,0.027504796162247658,0.02810886688530445
1782814103239218200,6.01121826171875,0.0001246454776264727,0.01626862771809101,0.014357957988977432
1782814103259300400,6.03130029296875,-0.010450147092342377,0.007359761744737625,-0.006924904882907867
1782814103279382300,6.05138232421875,-0.02499908208847046,-0.0030904216691851616,-0.031051335856318474
1782814103299464200,6.071464111328125,-0.03261180222034454,0.006635676603764296,-0.04498013108968735
1782814103319546000,6.091546142578125,-0.030568402260541916,0.015286855399608612,-0.0462784506380558
1782814103339628300,6.111628173828125,-0.03411603718996048,0.020180225372314453,-0.040672942996025085
1782814103359710200,6.131710205078125,-0.04283573850989342,0.020240508019924164,-0.04086606577038765
1782814103379792100,6.151792236328125,-0.045421499758958817,0.02432834357023239,-0.04601651802659035
1782814103399874300,6.171874267578125,-0.04190320521593094,0.0067009651102125645,-0.04684567451477051
1782814103419956200,6.191956298828125,-0.02713349275290966,-0.020563475787639618,-0.04154379665851593
1782814103440038100,6.2120380859375,-0.023417266085743904,-0.025207746773958206,-0.017625275999307632
1782814103460120300,6.232120361328125,-0.025476854294538498,0.007093505933880806,0.007125877775251865
1782814103480202200,6.2522021484375,-0.022731056436896324,0.040254950523376465,0.030054839327931404
1782814103500284200,6.2722841796875,-0.021157491952180862,0.024532321840524673,0.030893301591277122
1782814103520366000,6.292365966796875,-0.018223701044917107,0.007327255327254534,0.020955588668584824
1782814103540448300,6.3124482421875,-0.02106384001672268,-0.009573306888341904,0.019156593829393387
1782814103560530200,6.3325302734375,-0.01609082706272602,-0.007380071096122265,0.006863598711788654
1782814103580612000,6.352612060546875,-0.011924889869987965,0.0073216198943555355,-0.006868585012853146
1782814103600694300,6.3726943359375,-0.008255960419774055,0.02955898642539978,-0.01761818304657936
1782814103620776200,6.392776123046875,-0.013438391499221325,0.010584252886474133,-0.01074382197111845
1782814103640859100,6.412859130859375,0.0037099241744726896,-0.00202511646784842,-0.01739908941090107
1782814103660941000,6.432941162109375,0.019464237615466118,0.019852615892887115,-0.026252808049321175
1782814103681023200,6.453023193359375,0.00734778493642807,0.002359950914978981,-0.0370451845228672
1782814103701105200,6.473105224609375,-0.010354911908507347,-0.0027405039872974157,-0.044428449124097824
1782814103721187000,6.49318701171875,-0.014824922196567059,-0.0007189370226114988,-0.025319624692201614
1782814103741269000,6.51326904296875,-0.00743442727252841,-0.0027752663008868694,-0.007324674166738987
1782814103761351200,6.53335107421875,-0.005172089673578739,-0.022985290735960007,-0.011436551809310913
1782814103781433000,6.55343310546875,0.0042963349260389805,-0.023793622851371765,-0.028050627559423447
1782814103801515000,6.573514892578125,0.016913849860429764,0.010148451663553715,-0.022474613040685654
1782814103821597200,6.59359716796875,0.01302159670740366,0.03348802775144577,-0.008188378997147083
1782814103841679000,6.61367919921875,0.002561712870374322,0.02105717360973358,-0.005074217449873686
1782814103861761000,6.633760986328125,0.0068305195309221745,-0.027293572202324867,-0.01182819064706564
1782814103881843200,6.65384326171875,0.010759027674794197,-0.02357710897922516,-0.02169925533235073
1782814103901925000,6.673925048828125,-0.005712780170142651,0.009703831747174263,-0.02123042196035385
1782814103922007000,6.694007080078125,-0.020355721935629845,0.032913073897361755,-0.004266397561877966
1782814103942089000,6.7140888671875,-0.016880668699741364,0.03201182559132576,-0.006454464979469776
1782814103962171100,6.734171142578125,-0.007065837271511555,0.02311616577208042,-0.024942703545093536
1782814103982253000,6.754253173828125,-0.008172585628926754,-0.01022028923034668,-0.0362374484539032
1782814104002335000,6.7743349609375,-0.010775310918688774,-0.03512652963399887,-0.03795647993683815
1782814104022417200,6.794417236328125,0.0054214936681091785,-0.013559368439018726,-0.02751992829144001
1782814104042499000,6.8144990234375,-0.010761488229036331,-0.0009749606251716614,-0.015459495596587658
1782814104062581200,6.834581298828125,-0.02488667145371437,-0.014434946700930595,-0.009868748486042023
1782814104082664200,6.854664306640625,-0.03647898882627487,-0.04420238360762596,-0.011262493208050728
1782814104102746400,6.874746337890625,-0.02230040729045868,-0.040206778794527054,-0.012843934819102287
1782814104122828300,6.894828369140625,-0.0074794781394302845,-0.02380768395960331,-0.012573790736496449
1782814104142910200,6.91491015625,-0.008030595257878304,-0.008813240565359592,-0.005569790489971638
1782814104162992000,6.9349921875,-0.03335683047771454,-0.008434036746621132,0.013406815007328987
1782814104183074000,6.955073974609375,-0.05077607184648514,-0.020895423367619514,0.03190841153264046
1782814104203156000,6.975156005859375,-0.047869596630334854,-0.026045218110084534,0.028235115110874176
1782814104223238000,6.99523779296875,-0.030120529234409332,-0.02951454557478428,0.010660633444786072
1782814104243320000,7.015320068359375,-0.016811897978186607,-0.03508844971656799,0.015534442849457264
1782814104263402000,7.035402099609375,0.002505092415958643,-0.1027803122997284,0.0536612793803215
1782814104283484000,7.05548388671875,0.001519377576187253,-0.08298985660076141,0.07535091787576675
1782814104303566000,7.075566162109375,-0.02481752075254917,-0.06703756749629974,0.07598847895860672
1782814104323648000,7.09564794921875,-0.04006880521774292,-0.033261802047491074,0.07444369792938232
1782814104343730000,7.11572998046875,-0.04345625638961792,-0.007932273671030998,0.07495054602622986
1782814104363812000,7.13581201171875,-0.04359287768602371,0.02293349616229534,0.05620322749018669
1782814104383894000,7.15589404296875,-0.03105020336806774,0.03519566357135773,0.019076937809586525
1782814104403976000,7.175975830078125,-0.015901105478405952,-0.001490721246227622,0.0029112137854099274
1782814104424057900,7.196057861328125,-0.013497387990355492,-0.03254745900630951,0.016524087637662888
1782814104444140000,7.21614013671875,-0.01032397523522377,-0.028430122882127762,0.020935501903295517
1782814104464222000,7.236221923828125,-0.002556322840973735,-0.021289145573973656,-0.00523589551448822
1782814104484304000,7.256303955078125,0.004009166732430458,-0.007445299532264471,-0.00878925807774067
1782814104504386800,7.27638671875,0.005009699612855911,0.013703368604183197,0.03155305236577988
1782814104524469000,7.296468994140625,0.003580664284527302,0.008588261902332306,0.07459378242492676
1782814104544551000,7.316551025390625,-0.00468020373955369,-0.005831072106957436,0.07212864607572556
1782814104564633000,7.336633056640625,-0.00860067829489708,-0.012017978355288506,0.04892957583069801
1782814104584715000,7.356715087890625,-0.01635061204433441,-0.01934889331459999,0.02269335649907589
1782814104604797200,7.376797119140625,-0.007411071565002203,-0.03106890618801117,-0.013872893527150154
1782814104624879000,7.396879150390625,-0.03819992393255234,-0.05119477957487106,-0.04398714751005173
1782814104644961000,7.4169609375,-0.06075354665517807,-0.05693596601486206,-0.022108344361186028
1782814104665043200,7.437043212890625,-0.06391040980815887,-0.051977675408124924,0.04646020382642746
1782814104685125000,7.457125,-0.06049322709441185,-0.045206837356090546,0.07887561619281769
1782814104705207000,7.47720703125,-0.04869356378912926,-0.027662992477416992,0.05285917967557907
1782814104725289200,7.497289306640625,-0.03729686141014099,-0.008305994793772697,-0.023190483450889587
1782814104745371100,7.51737109375,-0.04377661645412445,-0.010638751089572906,-0.0851060077548027
1782814104765453000,7.537453125,-0.042113278061151505,0.02391059510409832,-0.06505516171455383
1782814104785535000,7.557534912109375,-0.026745248585939407,0.03734659403562546,-0.007722746580839157
1782814104805617200,7.5776171875,-0.028838617727160454,0.019329726696014404,0.01881025917828083
1782814104825699000,7.597698974609375,-0.02464631386101246,0.004330703988671303,0.04093177616596222
1782814104845781000,7.617781005859375,-0.02016524411737919,0.009215127676725388,0.06282181292772293
1782814104865863200,7.63786328125,-0.015733618289232254,0.02946159616112709,0.053870730102062225
1782814104885945000,7.657945068359375,-0.009107769466936588,0.04354293271899223,0.031685102730989456
1782814104906027000,7.678027099609375,-0.0015461170114576817,0.026681089773774147,0.02399328723549843
1782814104926109200,7.698109130859375,0.004423615988343954,0.01181088201701641,0.018161384388804436
1782814104946192100,7.718192138671875,0.019278541207313538,0.0036525772884488106,0.013891483657062054
1782814104966274000,7.738274169921875,0.03263665363192558,0.002641720697283745,-0.006582815200090408
1782814104986356000,7.75835595703125,0.0319611132144928,-0.00806921161711216,-0.014960851520299911
1782814105006438100,7.778438232421875,0.026607055217027664,-0.014103777706623077,-0.015202680602669716
1782814105026520000,7.79852001953125,0.019759465008974075,-0.004652590956538916,-0.01584460213780403
1782814105046602000,7.81860205078125,0.012864220887422562,-0.015057043172419071,-0.022299446165561676
1782814105066684000,7.838683837890625,-0.00015631847782060504,-0.01942857727408409,-0.031704168766736984
1782814105086766000,7.85876611328125,-0.013799028471112251,0.008580923080444336,-0.037950437515974045
1782814105106848000,7.878847900390625,-0.010936422273516655,0.02103971503674984,-0.019910788163542747
1782814105126930000,7.898929931640625,-0.0039355140179395676,0.01247161254286766,0.0015355364885181189
1782814105147012000,7.91901220703125,-0.004433729220181704,-0.0009657039772719145,0.0027632401324808598
1782814105167093800,7.93909375,-0.014712872914969921,-0.018985869362950325,0.003087855875492096
1782814105187175700,7.95917578125,-0.008084390312433243,-0.010900093242526054,0.0024087734054774046
1782814105207257900,7.9792578125,0.0008669293019920588,-0.0006547623779624701,0.0030999621376395226
1782814105227339800,7.99933984375,-0.0046772039495408535,0.00237796688452363,0.028924817219376564
1782814105247421700,8.019421630859375,-0.013368637301027775,0.004907893016934395,0.06282204389572144
1782814105267503600,8.039503662109375,-0.013680889271199703,0.007842129096388817,0.06642096489667892
1782814105287585800,8.059585693359375,-0.015843510627746582,0.006904469802975655,0.051346756517887115
1782814105307667700,8.079667724609376,-0.020516956225037575,-0.007174103986471891,0.031761251389980316
1782814105327749600,8.09974951171875,-0.015205780044198036,-0.018354130908846855,0.013400270603597164
1782814105347832600,8.11983251953125,-0.004250618163496256,0.0006218617781996727,-0.0014912858605384827
1782814105367914800,8.139914794921875,-0.015342151746153831,0.007747415453195572,-0.00027635181322693825
1782814105387996700,8.15999658203125,-0.03567786514759064,0.005048883147537708,0.021755140274763107
1782814105408078600,8.18007861328125,-0.052888114005327225,-0.00989307276904583,0.03224797919392586
1782814105428160800,8.200160888671874,-0.05836606025695801,0.0006672218441963196,0.014446821995079517
1782814105448242700,8.22024267578125,-0.04879724606871605,-0.029068011790513992,-0.012726265005767345
1782814105468324600,8.24032470703125,-0.025485023856163025,-0.018712852150201797,-0.02885124459862709
1782814105488406800,8.26040673828125,-0.02595420926809311,0.0010567870922386646,-0.02004391700029373
1782814105508488700,8.28048876953125,-0.029414720833301544,-0.007810207549482584,-0.013506922870874405
1782814105528570600,8.300570556640626,-0.02617785334587097,-0.0035130055621266365,-0.013419849798083305
1782814105548652500,8.320652587890624,-0.022227417677640915,0.0014821728691458702,-0.009317418560385704
1782814105568734700,8.340734619140624,-0.015152934938669205,0.02245529368519783,0.0030012852512300014
1782814105588816600,8.360816650390625,-0.022318195551633835,0.03993840515613556,-0.006285493727773428
1782814105608898600,8.380898681640625,-0.038812022656202316,0.014476081356406212,-0.014333666302263737
1782814105628980700,8.400980712890625,-0.03387948498129845,-0.005823482759296894,-0.00917548593133688
1782814105649062700,8.421062744140626,-0.02910430356860161,-0.010794310830533504,0.0009082222823053598
1782814105669144600,8.44114453125,-0.020418290048837662,0.01515201386064291,0.002963776234537363
1782814105689226800,8.461226806640624,-0.009732354432344437,0.04175832122564316,-0.00034413603134453297
1782814105709308700,8.48130859375,0.004256902262568474,0.041861459612846375,-0.009199133142828941
1782814105729391600,8.5013916015625,0.01523540262132883,0.022974712774157524,-0.016848217695951462
1782814105749473500,8.5214736328125,0.016450613737106323,-0.003893473418429494,-0.000705622136592865
1782814105769555500,8.541555419921876,0.015393417328596115,-0.004287133924663067,0.019499020650982857
1782814105789637600,8.5616376953125,0.018691474571824074,-0.01233813539147377,0.015771927312016487
1782814105809719600,8.581719482421875,0.02450864389538765,-0.01460474543273449,-0.0025657315272837877
1782814105829801700,8.6018017578125,0.02850360982120037,-0.005965020507574081,-0.017891718074679375
1782814105849884000,8.6218837890625,0.0351712591946125,0.014499817043542862,-0.013298675417900085
1782814105869965800,8.6419658203125,0.03404069319367409,0.020920153707265854,0.00310412491671741
1782814105890047700,8.6620478515625,0.029469899833202362,0.008519230410456657,0.011298559606075287
1782814105910129700,8.682129638671874,0.0271145049482584,0.006821881514042616,-0.0002472109626978636
1782814105930211800,8.7022119140625,0.03542841225862503,0.021683402359485626,-0.02353987656533718
1782814105950293800,8.722293701171875,0.04034710302948952,-0.0008042170666158199,-0.020211555063724518
1782814105970375700,8.742375732421875,0.04235745966434479,-0.012080499902367592,-0.01357068307697773
1782814105990457900,8.762457763671875,0.033333804458379745,0.003245084546506405,-0.0026768555399030447
1782814106010539800,8.782539794921876,0.02721273899078369,0.0068693626672029495,0.0024930001236498356
1782814106030621700,8.80262158203125,0.01812187023460865,-0.0019703488796949387,0.005063650663942099
1782814106050704000,8.822703857421875,0.010967723093926907,-0.007531680166721344,0.00294041121378541
1782814106070785800,8.842785888671875,0.011471698060631752,-0.0025531346909701824,-0.0046613020822405815
1782814106090868700,8.86286865234375,0.003149799769744277,-0.008505048230290413,-0.012961716391146183
1782814106110950700,8.88295068359375,-0.003592080669477582,-0.01195530779659748,-0.026546120643615723
1782814106131032800,8.90303271484375,-0.014680622145533562,-0.002605090383440256,-0.024325761944055557
1782814106151114800,8.92311474609375,-0.028233759105205536,-0.024502966552972794,-0.0013960669748485088
1782814106171196700,8.94319677734375,-0.02610076405107975,-0.007861629128456116,0.016245702281594276
1782814106191278600,8.963278564453125,-0.021209396421909332,0.02465670183300972,0.012079736217856407
1782814106211360800,8.98336083984375,-0.01599751226603985,0.04357209429144859,-0.007219716906547546
1782814106231442700,9.003442626953126,-0.013291438110172749,0.04273737967014313,-0.021856799721717834
1782814106251524600,9.023524658203126,-0.013991103507578373,0.03115953877568245,-0.02338719367980957
1782814106271606800,9.043606689453124,-0.016374418511986732,0.010895263403654099,-0.023294121026992798
1782814106291688700,9.063688720703125,-0.03112819232046604,-0.010383173823356628,-0.013341427780687809
1782814106311770600,9.0837705078125,-0.043174248188734055,-0.025164883583784103,0.001336556626483798
1782814106331852800,9.103852783203125,-0.04025855287909508,-0.027273114770650864,-0.005264101549983025
1782814106351934700,9.123934814453126,-0.024920877069234848,-0.026510652154684067,0.012593991123139858
1782814106372016600,9.1440166015625,-0.015525137074291706,0.0024656271561980247,0.023116424679756165
1782814106392098600,9.1640986328125,-0.013634995557367802,0.020445745438337326,0.01693202741444111
1782814106412180700,9.1841806640625,-0.016183940693736076,0.013689383864402771,0.003750263713300228
1782814106432262700,9.2042626953125,-0.009037375450134277,-0.00974644348025322,-0.01335395872592926
1782814106452345600,9.224345703125,0.0061495061963796616,-0.0005938890390098095,-0.015877287834882736
1782814106472427500,9.244427490234376,0.01538420096039772,0.00975441187620163,-0.011258077807724476
1782814106492509700,9.264509765625,0.015276104211807251,0.0012860982678830624,-0.012144040316343307
1782814106512591600,9.284591552734375,0.012993331998586655,-0.0068771615624427795,-0.01676606945693493
1782814106532673500,9.304673583984375,0.015653491020202637,0.0038734511472284794,-0.009476394392549992
1782814106554010600,9.3260107421875,0.02099337801337242,0.015761444345116615,0.004849057644605637
1782814106574092500,9.346092529296875,0.015688717365264893,0.025876257568597794,0.021836716681718826
1782814106594174700,9.3661748046875,0.0066801393404603004,0.03211988881230354,0.047275662422180176
1782814106614256600,9.386256591796876,0.01273040659725666,0.04965745285153389,0.05959455296397209
1782814106634338600,9.406338623046874,0.014309056103229523,0.02261134795844555,0.037999942898750305
1782814106654420700,9.426420654296875,0.016130296513438225,-0.0022576339542865753,0.008597945794463158
1782814106674502700,9.446502685546875,0.018410537391901016,-0.010908011347055435,-0.008851590566337109
1782814106694584600,9.46658447265625,0.010223181918263435,-0.013373564928770065,-0.004437667317688465
1782814106714666500,9.48666650390625,0.009524430148303509,0.009123149327933788,0.022224288433790207
1782814106734748700,9.506748779296874,0.011476483196020126,0.04066632688045502,0.0449783094227314
1782814106754830600,9.52683056640625,0.012431608512997627,0.03805450350046158,0.04753613844513893
1782814106774912500,9.54691259765625,0.028398096561431885,0.01398363709449768,0.038874220103025436
1782814106794994700,9.56699462890625,0.048318084329366684,0.016175445169210434,0.037032585591077805
1782814106815076600,9.58707666015625,0.06165618449449539,0.03971323370933533,0.047475963830947876
1782814106835158500,9.607158447265626,0.05950399115681648,0.044984303414821625,0.06340843439102173
1782814106855240700,9.62724072265625,0.05758927762508392,0.0000315164215862751,0.07824650406837463
1782814106875323600,9.64732373046875,0.06720896065235138,-0.033924560993909836,0.08236794918775558
1782814106895405600,9.667405517578125,0.06813520938158035,-0.0366487056016922,0.057963013648986816
1782814106915487500,9.687487548828125,0.05601271986961365,-0.00027455808594822884,0.02440156415104866
1782814106935569400,9.7075693359375,0.032854314893484116,0.03196873515844345,0.007680221926420927
1782814106955651600,9.727651611328126,0.014254791662096977,0.026232372969388962,0.008137107826769352
1782814106975733800,9.747733642578124,0.018396859988570213,0.04518629610538483,-0.0010979634243994951
1782814106995815700,9.767815673828125,0.009616994298994541,0.06520991027355194,-0.015453174710273743
1782814107015897900,9.78789794921875,0.0007093317108228803,0.08074574917554855,-0.01648680306971073
1782814107035979800,9.807979736328125,-0.013421745970845222,0.03900919854640961,-0.00015065050683915615
1782814107056061700,9.828061767578125,-0.0516698956489563,0.024045119062066078,0.025498254224658012
1782814107076143600,9.8481435546875,-0.07089255005121231,0.10762002319097519,0.04147696867585182
1782814107096226800,9.868226806640624,-0.08550577610731125,0.18909919261932373,0.05021154507994652
1782814107116308700,9.888308837890625,-0.038393761962652206,0.17082613706588745,0.051803041249513626
1782814107136390700,9.908390625,0.01367845106869936,0.026977788656949997,0.02185683511197567
1782814107156472600,9.92847265625,0.07387320697307587,-0.016933077946305275,-0.02714642696082592
1782814107176555300,9.94855517578125,0.11487254500389099,0.04551476240158081,-0.06207134574651718
1782814107196637200,9.96863720703125,0.07490036636590958,0.10284888744354248,-0.018777666613459587
1782814107216719000,9.988718994140624,0.01736278086900711,0.06708308309316635,0.11258526146411896
1782814107236801000,10.008801025390625,0.017565669491887093,0.07551561295986176,0.19846099615097046
1782814107256883200,10.02888330078125,-0.03013601154088974,-0.026776205748319626,0.11908839643001556
1782814107276965000,10.048965087890625,-0.05696328356862068,-0.05911734327673912,0.04771029204130173
1782814107297047000,10.069047119140626,-0.08052407950162888,-0.03669328615069389,0.05919256806373596
1782814107317129200,10.089129150390624,-0.05852989852428436,-0.05185220018029213,0.08041344583034515
1782814107337211100,10.109211181640624,0.01515556126832962,-0.05539524927735329,-0.005049913190305233
1782814107357293000,10.12929296875,0.0421811044216156,-0.02222529426217079,-0.18644513189792633
1782814107377376000,10.1493759765625,-0.008394391275942326,-0.04160838574171066,-0.3543366491794586
1782814107397458200,10.169458251953126,-0.03248514235019684,-0.1341281235218048,-0.47246143221855164
1782814107417540000,10.1895400390625,0.012409206479787827,-0.170686736702919,-0.47573381662368774
1782814107437622000,10.2096220703125,0.03443901613354683,-0.05719375982880592,-0.3491639792919159
1782814107457704200,10.2297041015625,0.0011168450582772493,-0.13675886392593384,-0.2804110050201416
1782814107477786000,10.2497861328125,0.005713795777410269,-0.731391966342926,-0.37410515546798706
1782814107497868000,10.269867919921875,0.2181311547756195,-1.171959638595581,-0.19201606512069702
1782814107517950000,10.289949951171875,0.15260617434978485,-0.4512850344181061,-0.0741795152425766
1782814107538032000,10.3100322265625,0.07524970173835754,0.08266627788543701,-0.01003327313810587
1782814107558114000,10.330114013671874,0.028465164825320244,0.25744011998176575,-0.1018858551979065
1782814107578196000,10.350196044921875,-0.0022767442278563976,0.2645025849342346,-0.19867703318595886
1782814107598278100,10.370278076171875,0.017859434708952904,0.18933601677417755,0.007561837323009968
