time,seconds_elapsed,z,y,x
1782814225994310100,0.05631005859375,-0.017163604497909546,0.009783422574400902,0.08463940024375916
1782814226014392000,0.07639208984375,-0.01301666721701622,-0.026094062253832817,0.06823737174272537
1782814226034473200,0.09647314453125,-0.021804071962833405,-0.02304232120513916,0.022285237908363342
1782814226054555100,0.11655517578125,-0.032775040715932846,-0.014044511131942272,-0.024885645136237144
1782814226074637000,0.136636962890625,-0.046053409576416016,-0.015009826980531216,-0.028532039374113083
1782814226094718200,0.15671826171875,-0.05339349806308746,-0.01331001054495573,0.008495482616126537
1782814226114800000,0.176800048828125,-0.053802620619535446,-0.014869787730276585,0.038768455386161804
1782814226134881300,0.19688134765625,-0.05085236206650734,0.002983332611620426,0.035925570875406265
1782814226154963200,0.216963134765625,-0.039173323661088943,0.024380750954151154,0.02380119077861309
1782814226175044400,0.23704443359375,-0.040102601051330566,0.03211774677038193,0.027434665709733963
1782814226195126300,0.257126220703125,-0.04589316248893738,0.013236592523753643,0.028097055852413177
1782814226215207200,0.277207275390625,-0.031163524836301804,-0.000968230189755559,0.02228587493300438
1782814226235289000,0.2972890625,-0.019817354157567024,0.007326505146920681,0.028038466349244118
1782814226255371000,0.31737109375,-0.024534447118639946,-0.015057913959026337,0.026387961581349373
1782814226275452200,0.3374521484375,-0.03012208826839924,-0.035599905997514725,0.0035423210356384516
1782814226295534600,0.35753466796875,-0.01577288843691349,-0.0036046530585736036,-0.0004809682723134756
1782814226315615700,0.37761572265625,-0.0017745653167366982,0.003970566671341658,0.02385212853550911
1782814226335697700,0.39769775390625,0.003319669747725129,-0.012034241110086441,0.05559484660625458
1782814226355778800,0.41777880859375,0.0021789614111185074,-0.018475044518709183,0.06370852142572403
1782814226375860700,0.43786083984375,-0.0033453593496233225,0.001003575511276722,0.046274103224277496
1782814226395942700,0.457942626953125,-0.0057043894194066525,0.02584892325103283,0.03988749906420708
1782814226416023600,0.4780234375,-0.005203802604228258,0.004772631451487541,0.03564060479402542
1782814226436105500,0.49810546875,-0.004226217977702618,-0.006369465030729771,0.02930283732712269
1782814226456186600,0.5181865234375,-0.008067524991929531,-0.006569842807948589,0.023876389488577843
1782814226476268500,0.5382685546875,-0.014491386711597443,-0.001689475728198886,0.023981645703315735
1782814226496349700,0.558349609375,-0.012972715310752392,-0.012330757454037666,0.016176074743270874
1782814226516431600,0.578431640625,-0.010075612924993038,-0.03728039562702179,0.003610210493206978
1782814226536512500,0.598512451171875,-0.01158960722386837,-0.025634754449129105,0.0028619798831641674
1782814226556594700,0.6185947265625,-0.01277081947773695,-0.01197134517133236,0.00570616964250803
1782814226576676600,0.638676513671875,-0.013331834226846695,-0.002337254583835602,0.0035140395630151033
1782814226596757800,0.6587578125,-0.01081737782806158,0.0016985628753900528,0.001929392572492361
1782814226616839700,0.678839599609375,-0.015291375108063221,-0.002127761719748378,-0.0020321416668593884
1782814226636920600,0.698920654296875,-0.009974474087357521,-0.0016483294311910868,-0.003921454306691885
1782814226657002800,0.719002685546875,-0.0003537433221936226,0.019240669906139374,0.004059219267219305
1782814226677083400,0.73908349609375,0.002635654993355274,0.02252674475312233,0.021988417953252792
1782814226697165600,0.75916552734375,0.0046897768042981625,0.0050961608067154884,0.02905295416712761
1782814226717247500,0.77924755859375,0.007165033835917711,0.006440444849431515,0.026903778314590454
1782814226737328600,0.79932861328125,-0.003527721855789423,0.013964425772428513,0.0110202981159091
1782814226757410600,0.81941064453125,-0.012869599275290966,0.009064953774213791,-0.011773062869906425
1782814226777491500,0.839491455078125,-0.005944353528320789,-0.002189537975937128,-0.02195707894861698
1782814226797573600,0.85957373046875,-0.0021643242798745632,0.003009787295013666,-0.0029897582717239857
1782814226817654500,0.879654541015625,-0.025244545191526413,-0.0346459336578846,-0.006558337714523077
1782814226837736700,0.89973681640625,-0.03576044365763664,-0.03697193041443825,-0.030650055035948753
1782814226857818600,0.919818603515625,-0.025647317990660667,0.02299923449754715,-0.04095187410712242
1782814226877899500,0.9398994140625,-0.015881404280662537,0.030643854290246964,-0.016529211774468422
1782814226897981700,0.959981689453125,-0.010677105747163296,0.018921278417110443,0.03038269653916359
1782814226918062600,0.9800625,-0.010790581814944744,-0.0005539571866393089,0.04069928079843521
1782814226938144800,1.000144775390625,-0.014081109315156937,0.012416568584740162,0.014731427654623985
1782814226958225400,1.020225341796875,-0.02201073430478573,0.022106781601905823,-0.02526417002081871
1782814226978307600,1.0403076171875,-0.013876640237867832,0.04771574214100838,-0.01774313673377037
1782814226998388500,1.060388427734375,0.0011915506329387426,0.05219311639666557,0.023143012076616287
1782814227018470400,1.080470458984375,0.0012029510689899325,0.009164281189441681,0.03768046945333481
1782814227038552600,1.100552490234375,-0.002033971482887864,-0.01864631101489067,0.01652691140770912
1782814227058633500,1.120633544921875,0.0015400971751660109,-0.0049233948811888695,-0.01415720023214817
1782814227078715600,1.140715576171875,0.010004990734159946,0.0005490262992680073,-0.021791141480207443
1782814227098796500,1.160796630859375,0.002117086434736848,-0.012498226016759872,-0.0013440067414194345
1782814227118878700,1.180878662109375,-0.010789110325276852,-0.013405848294496536,0.0015883288579061627
1782814227138959600,1.200959716796875,-0.01008843444287777,0.00233175465837121,-0.017370525747537613
1782814227159041500,1.22104150390625,-0.007420466747134924,0.012170972302556038,-0.02375214174389839
1782814227179123700,1.241123779296875,-0.013194591738283634,0.01053897850215435,-0.008551119826734066
1782814227199204600,1.26120458984375,-0.01907195895910263,0.013476204127073288,0.02024049311876297
1782814227219286800,1.281286865234375,-0.01986408606171608,0.0042581879533827305,0.02691902592778206
1782814227239367400,1.301367431640625,-0.016640150919556618,0.009124813601374626,0.025292951613664627
1782814227259449600,1.32144970703125,-0.0177089162170887,0.010519803501665592,0.010498205199837685
1782814227279530500,1.341530517578125,-0.019662803038954735,0.01610804721713066,-0.008136901073157787
1782814227299612200,1.361612060546875,-0.02373117208480835,0.007402513176202774,-0.019842250272631645
1782814227319693300,1.381693359375,-0.013714998960494995,0.0011435416527092457,-0.01821836456656456
1782814227339775200,1.401775146484375,0.007036011666059494,-0.006154450587928295,0.007181438617408276
1782814227359857400,1.421857421875,0.007721762638539076,-0.025474788621068,0.029652807861566544
1782814227379938300,1.441938232421875,-0.007567585911601782,-0.05825536325573921,0.011200065724551678
1782814227400020500,1.4620205078125,-0.001398424617946148,-0.034865494817495346,-0.021722666919231415
1782814227420101400,1.482101318359375,0.004617771133780479,0.012482235208153725,-0.03241793066263199
1782814227440183300,1.502183349609375,0.011084863916039467,0.022487375885248184,-0.004472160711884499
1782814227460264400,1.522264404296875,0.014070241712033749,0.009021562524139881,0.02574675902724266
1782814227480346400,1.542346435546875,0.01605299301445484,-0.008065125904977322,0.015500026755034924
1782814227500427300,1.56242724609375,0.008766809478402138,0.012937571853399277,-0.00544829573482275
1782814227520509200,1.58250927734375,-0.001256831455975771,0.02172051928937435,-0.01712413877248764
1782814227540591400,1.60259130859375,0.005027567967772484,0.022224565967917442,-0.012979572638869286
1782814227560672300,1.62267236328125,0.009674581699073315,0.001969939097762108,-0.005881925113499165
1782814227580754200,1.642754150390625,0.007493160665035248,-0.02768922597169876,-0.004763100761920214
1782814227600835300,1.66283544921875,0.007778157480061054,-0.024753915145993233,-0.010430486872792244
1782814227620917200,1.682917236328125,0.011975794099271297,-0.008385301567614079,-0.021962061524391174
1782814227640998400,1.702998291015625,0.014174778014421463,0.002043007407337427,-0.03464497998356819
1782814227661080300,1.723080322265625,0.013103250414133072,0.00363753130659461,-0.026882287114858627
1782814227681161500,1.743161376953125,0.011858309619128704,0.0024407408200204372,-0.012864258140325546
1782814227701243400,1.763243408203125,0.012704511173069477,-0.002700304612517357,0.0016630152240395546
1782814227721325300,1.7833251953125,0.013134547509253025,-0.003538978286087513,0.012440770864486694
1782814227741406500,1.803406494140625,0.008589711971580982,0.0031220410019159317,0.021162351593375206
1782814227761488400,1.82348828125,0.005802104715257883,0.01720675453543663,0.010084226727485657
1782814227781569300,1.8435693359375,0.012133898213505745,0.018916325643658638,-0.015226077288389206
1782814227801651200,1.863651123046875,0.019106445834040642,0.00313737103715539,-0.019159529358148575
1782814227821732400,1.883732421875,0.022190548479557037,-0.004237739369273186,-0.0010270082857459784
1782814227841814300,1.903814208984375,0.01767277531325817,-0.012995376251637936,0.023494431748986244
1782814227861895400,1.9238955078125,0.01660938933491707,-0.01341811753809452,0.019865991547703743
1782814227881977300,1.943977294921875,0.02564539574086666,-0.0051140510477125645,0.0020126267336308956
1782814227902059300,1.964059326171875,0.03960167616605759,0.029270119965076447,0.010922114364802837
1782814227922140400,1.984140380859375,0.027256112545728683,0.019552119076251984,0.011556950397789478
1782814227942222300,2.004222412109375,0.008181294426321983,-0.028851313516497612,-0.014433084055781364
1782814227962303500,2.024303466796875,0.015206599608063698,-0.018544720485806465,-0.031087348237633705
1782814227982385400,2.044385498046875,0.030524469912052155,0.004964396823197603,-0.015708990395069122
1782814228002466600,2.064466552734375,0.03406433016061783,0.004291514400392771,0.027721190825104713
1782814228022548500,2.084548583984375,0.030856957659125328,-0.00789653230458498,0.037909798324108124
1782814228042629000,2.104629150390625,0.029145002365112305,-0.0021752102766186,0.020814526826143265
1782814228062711300,2.124711181640625,0.02937338687479496,0.011715998873114586,0.009267410263419151
1782814228082793200,2.144793212890625,0.028433317318558693,0.01944136805832386,0.01017498504370451
1782814228102874400,2.164874267578125,0.030290693044662476,0.013300951570272446,0.024975717067718506
1782814228122956300,2.184956298828125,0.03071923740208149,0.013240819796919823,0.039095163345336914
1782814228143037400,2.205037353515625,0.018918804824352264,-0.0005965412128716707,0.040450189262628555
1782814228163119400,2.225119384765625,0.015562222339212894,0.005219314247369766,0.025017492473125458
1782814228183200300,2.2452001953125,0.01689654216170311,0.025235580280423164,-0.003331149695441127
1782814228203282400,2.265282470703125,0.01708897389471531,0.02697869762778282,-0.010255629196763039
1782814228223363300,2.28536328125,0.021172767505049706,0.011964879930019379,-0.0006007284391671419
1782814228243445500,2.305445556640625,0.025622008368372917,0.003542081918567419,0.020621061325073242
1782814228263527400,2.32552734375,0.02404767833650112,-0.009034257382154465,0.02011471800506115
1782814228283608300,2.3456083984375,0.020807139575481415,-0.0010259486734867096,-0.0022596418857574463
1782814228303690200,2.365690185546875,0.014012272469699383,0.018081938847899437,-0.028316527605056763
1782814228323771100,2.385771240234375,0.021136203780770302,0.023913737386465073,-0.024582933634519577
1782814228343853300,2.405853271484375,0.02375434711575508,0.018863150849938393,0.0012560017639771104
1782814228363934200,2.425934326171875,0.02664182148873806,-0.0011167360935360193,0.01928098313510418
1782814228384016400,2.446016357421875,0.021728646010160446,0.009178627282381058,0.013503280468285084
1782814228404098300,2.466098388671875,0.0077627114951610565,0.02195926196873188,-0.018155517056584358
1782814228424179200,2.48617919921875,0.005090925842523575,0.030353263020515442,-0.032334599643945694
1782814228444261400,2.506261474609375,0.02223898097872734,0.03525989502668381,-0.011982275173068047
1782814228464342000,2.526342041015625,0.017616013064980507,0.005428664851933718,0.012315725907683372
1782814228484424200,2.546424072265625,-0.012006671167910099,-0.03693338856101036,0.0030014116782695055
1782814228504505000,2.566505126953125,-0.02068655751645565,-0.04814273491501808,-0.04329915717244148
1782814228524587300,2.586587158203125,-0.006465531885623932,0.015721365809440613,-0.06062450259923935
1782814228544668200,2.606668212890625,-0.0008668577065691352,0.06855543702840805,-0.028772857040166855
1782814228564750000,2.62675,-0.0005096894456073642,0.05781514570116997,0.018731899559497833
1782814228584832300,2.646832275390625,0.005322759039700031,0.020233692601323128,0.03914985805749893
1782814228604913200,2.6669130859375,0.003204367822036147,-0.00401342986151576,0.030331149697303772
1782814228624995300,2.686995361328125,0.0016203965060412884,-0.00358631182461977,0.0039314087480306625
1782814228645076200,2.707076171875,0.009690342471003532,0.009348554536700249,-0.0113125154748559
1782814228665158100,2.727158203125,0.010732732713222504,0.014689408242702484,-0.010362252593040466
1782814228685239300,2.7472392578125,0.000019759783754125237,0.011247016489505768,0.001966886455193162
1782814228705321200,2.7673212890625,-0.0030011890921741724,0.003719849046319723,0.0039863260462880135
1782814228725403400,2.7874033203125,-0.000916794000659138,0.0037345346063375473,0.005206874571740627
1782814228745484000,2.807484130859375,-0.00675825122743845,-0.000061032362282276154,0.007898811250925064
1782814228765566200,2.827566162109375,-0.01902640610933304,0.007004360668361187,0.0077221570536494255
1782814228785647000,2.847647216796875,-0.015068860724568367,0.03220117837190628,-0.0048814937472343445
1782814228805729000,2.86772900390625,-0.009280682541429996,0.02267962135374546,-0.011782219633460045
1782814228825810200,2.88781005859375,-0.010204789228737354,-0.0073333182372152805,-0.0004871804267168045
1782814228845892000,2.90789208984375,-0.012892133556306362,-0.025278355926275253,0.008841012604534626
1782814228865973200,2.92797314453125,-0.010104603134095669,-0.004217277746647596,0.0010139821097254753
1782814228886055200,2.94805517578125,-0.007547143846750259,0.016897134482860565,-0.012801197357475758
1782814228906137300,2.968137451171875,0.0028356711845844984,0.022564465180039406,-0.018013741821050644
1782814228926218200,2.98821826171875,0.01409839652478695,0.029436424374580383,0.0020495883654803038
1782814228946300200,3.008300048828125,0.016843773424625397,0.006960729137063026,0.015350040048360825
1782814228966381300,3.02838134765625,0.015007790178060532,-0.020723896101117134,0.005369044374674559
1782814228986463200,3.048463134765625,0.023271819576621056,-0.016740676015615463,0.001449434319511056
1782814229006544100,3.068544189453125,0.022317582741379738,-0.007457767613232136,0.008122282102704048
1782814229026626000,3.0886259765625,-0.0005870849126949906,-0.026281867176294327,-0.004513357765972614
1782814229046707200,3.108707275390625,-0.014418896287679672,-0.03908083215355873,-0.028073815628886223
1782814229066789000,3.1287890625,-0.01107298955321312,-0.006378929130733013,-0.02253499999642372
1782814229086871000,3.14887109375,-0.009948349557816982,0.01199990976601839,0.0038988874293863773
1782814229106952200,3.1689521484375,-0.008379369042813778,0.01631247065961361,0.02843797206878662
1782814229127034000,3.1890341796875,-0.010963534004986286,0.00031279586255550385,0.030656050890684128
1782814229147115300,3.209115234375,-0.022966809570789337,-0.015556706115603447,0.011178525164723396
1782814229167197200,3.229197265625,-0.030656585469841957,0.0007668104954063892,-0.007653152570128441
1782814229187278300,3.2492783203125,-0.028167417272925377,0.006467271596193314,-0.01365586742758751
1782814229207360300,3.2693603515625,-0.02443058043718338,0.01959921233355999,0.003397501539438963
1782814229227441400,3.28944140625,-0.02767641842365265,-0.01876230165362358,0.01822534203529358
1782814229247523300,3.3095234375,-0.030873365700244904,-0.009151785634458065,0.02159775421023369
1782814229267605200,3.329605224609375,-0.027124181389808655,0.007411494851112366,0.006229787599295378
1782814229287686000,3.349685791015625,-0.02595999836921692,0.00045124348253011703,-0.008121458813548088
1782814229307767800,3.369767822265625,-0.022475874051451683,-0.0046938322484493256,-0.0011456010397523642
1782814229327849000,3.389848876953125,-0.021257832646369934,-0.008096322417259216,0.008290296420454979
1782814229347931000,3.409930908203125,-0.01857086643576622,-0.021774031221866608,0.012071062810719013
1782814229368012000,3.430011962890625,-0.005488594528287649,-0.032179199159145355,0.02043016254901886
1782814229388094000,3.450093994140625,0.0016613323241472244,-0.018751362338662148,0.033658504486083984
1782814229408174800,3.4701748046875,-0.005789280403405428,0.012194940820336342,0.03235027566552162
1782814229428256800,3.4902568359375,-0.010737343691289425,0.04272153973579407,0.006275026127696037
1782814229448338000,3.510337890625,-0.008261810056865215,0.04294978082180023,-0.00580503698438406
1782814229468419800,3.530419921875,0.003751281416043639,0.014177887700498104,0.0076534682884812355
1782814229488501800,3.550501708984375,0.00506453774869442,-0.013527367264032364,0.030823174864053726
1782814229508583000,3.5705830078125,0.007588450331240892,-0.019348878413438797,0.028967494145035744
1782814229528664800,3.590664794921875,0.021611493080854416,-0.013701848685741425,0.013023614883422852
1782814229548746000,3.61074609375,0.021418169140815735,-0.01393834874033928,-0.0027906098403036594
1782814229568828000,3.630827880859375,0.00009921166929416358,-0.028905613347887993,-0.03383662551641464
1782814229588908800,3.65090869140625,-0.004416431300342083,-0.02233622595667839,-0.0640583261847496
1782814229608991000,3.670990966796875,0.0038684066385030746,0.013741172850131989,-0.04294794052839279
1782814229629072000,3.69107177734375,0.007204397115856409,0.01787431910634041,0.012768314220011234
1782814229649154000,3.711154052734375,0.01493588462471962,0.005984947085380554,0.036226559430360794
1782814229669234700,3.731234619140625,0.018792951479554176,-0.00726898480206728,0.02058771811425686
1782814229689316900,3.75131689453125,0.008208650164306164,-0.00017426162958145142,-0.012510113418102264
1782814229709398800,3.771398681640625,-0.0019448797684162855,0.001730138435959816,-0.032937537878751755
1782814229729479700,3.791479736328125,-0.00040823579183779657,0.012706090696156025,-0.028589660301804543
1782814229749561900,3.811561767578125,0.0001244220184162259,0.009322082623839378,-0.010551569052040577
1782814229769642800,3.831642822265625,-0.0018543449696153402,0.00012062164023518562,0.0022443009074777365
1782814229789725000,3.851724853515625,-0.0034390385262668133,-0.00722874328494072,-0.003318693721666932
1782814229809805800,3.871805908203125,-0.0036674761213362217,0.002569255419075489,-0.01282726414501667
1782814229829887700,3.8918876953125,-0.006959371268749237,0.009738191962242126,-0.01705387979745865
1782814229849969000,3.911968994140625,-0.005499603226780891,0.014938929118216038,-0.011801302433013916
1782814229870050800,3.93205078125,-0.0011591343209147453,0.011091789230704308,-0.009591017849743366
1782814229890133000,3.952133056640625,-0.0005188209470361471,-0.0028822352178394794,-0.0035450831055641174
1782814229910214000,3.9722138671875,-0.007496515288949013,-0.009479459375143051,0.0056766606867313385
1782814229930296000,3.992296142578125,-0.0113298948854208,-0.01485725212842226,-0.0007255484815686941
1782814229950376700,4.012376708984375,-0.015050878748297691,0.005289311055094004,-0.006671250332146883
1782814229970458600,4.032458740234375,-0.012469361536204815,0.009883184917271137,-0.010964803397655487
1782814229990539800,4.052539794921875,-0.007432095240801573,0.008844533935189247,0.0028360860887914896
1782814230010621700,4.07262158203125,-0.008587387390434742,0.0021819346584379673,0.02116251178085804
1782814230030702800,4.092702880859375,-0.016827864572405815,-0.005503157153725624,0.016837235540151596
1782814230050784800,4.11278466796875,-0.020626964047551155,0.002484259195625782,-0.0008297082968056202
1782814230070867000,4.132866943359375,-0.009928135201334953,0.022093484178185463,-0.0075292387045919895
1782814230090947800,4.15294775390625,-0.019653858616948128,0.006137148477137089,0.003384093288332224
1782814230111029800,4.17302978515625,-0.03273794800043106,-0.024929966777563095,-0.0006341920234262943
1782814230131111000,4.19311083984375,-0.0312870554625988,-0.019075807183980942,-0.014988629147410393
1782814230151192800,4.21319287109375,-0.01842453144490719,0.010269662365317345,-0.014234806410968304
1782814230171274000,4.23327392578125,-0.022176649421453476,0.011102600954473019,0.0073789930902421474
1782814230191356000,4.25335595703125,-0.021525315940380096,-0.00363448029384017,0.028537366539239883
1782814230211436800,4.273436767578125,-0.017522012814879417,-0.00978907197713852,0.0254290122538805
1782814230231518700,4.293518798828125,-0.024498114362359047,0.01718747988343239,-0.000013368669897317886
1782814230251600600,4.3136005859375,-0.027161896228790283,0.06170324608683586,-0.029991721734404564
1782814230271681800,4.333681884765625,-0.024684522300958633,0.01769639365375042,-0.01794130727648735
1782814230291764200,4.35376416015625,-0.01605021022260189,0.016877152025699615,0.020615581423044205
1782814230311845400,4.373845458984375,-0.010227654129266739,0.0003671855665743351,0.03169827163219452
1782814230331927300,4.39392724609375,-0.004647571127861738,-0.008681677281856537,0.014087501913309097
1782814230352008400,4.414008544921875,0.00263604917563498,0.006532954517751932,0.002400715369731188
1782814230372090400,4.43409033203125,0.004042628686875105,0.007626163773238659,0.0022261349949985743
1782814230392171300,4.454171142578125,0.007503419183194637,-0.0011035099159926176,0.008062570355832577
1782814230412253400,4.47425341796875,0.015088432468473911,-0.0156342051923275,0.0074133481830358505
1782814230432334300,4.494334228515625,0.02060955949127674,-0.018284227699041367,0.000369133660569787
1782814230452416500,4.51441650390625,0.018320318311452866,-0.0034811433870345354,-0.0034598412457853556
1782814230472498400,4.53449853515625,0.018122201785445213,0.008663926273584366,-0.00853247195482254
1782814230492579300,4.554579345703125,0.022492462769150734,0.009004181250929832,-0.0017349023837596178
1782814230512661200,4.5746611328125,0.019900016486644745,0.0072624655440449715,0.009768852964043617
1782814230532742100,4.5947421875,0.020604915916919708,0.002303152810782194,0.012290246784687042
1782814230552824300,4.61482421875,0.019327614456415176,0.005201062653213739,0.005806043278425932
1782814230572905200,4.6349052734375,0.009717571549117565,-0.0017410705331712961,-0.0030220383778214455
1782814230592987400,4.6549873046875,0.013567907735705376,-0.0033684915397316217,-0.009119590744376183
1782814230613068300,4.675068359375,0.02329746074974537,0.00482182065024972,-0.0018367315642535686
1782814230633150500,4.695150390625,0.012475935742259026,-0.003531690454110503,0.008281860500574112
1782814230653232400,4.715232421875,-0.0037248439621180296,-0.035509444773197174,-0.005956949200481176
1782814230673313300,4.735313232421875,-0.004074583761394024,-0.011630070395767689,-0.012577435001730919
1782814230693395500,4.7553955078125,-0.003532743314281106,0.0011079898104071617,-0.00786595419049263
1782814230713476400,4.775476318359375,-0.0014331841375678778,0.01882072538137436,0.015624815598130226
1782814230733558500,4.79555859375,0.002072916366159916,0.020167015492916107,0.03515070676803589
1782814230753639200,4.81563916015625,-0.005558243952691555,0.00259396992623806,0.032459698617458344
1782814230773721300,4.835721435546875,-0.01956482231616974,-0.01275474950671196,0.0071793124079704285
1782814230793802200,4.85580224609375,-0.017187559977173805,-0.0016666706651449203,-0.015333949588239193
1782814230813884200,4.87588427734375,-0.01702798344194889,0.01969628408551216,-0.010745118372142315
1782814230833966300,4.89596630859375,-0.013946479186415672,0.00808226503431797,-0.0012049637734889984
1782814230854047200,4.916047119140625,-0.01535596139729023,-0.014437069185078144,-0.007633189205080271
1782814230874129400,4.93612939453125,-0.007505319081246853,-0.01815043017268181,-0.010820219293236732
1782814230894210300,4.956210205078125,0.000937828270252794,-0.017260046675801277,-0.004698032047599554
1782814230914292200,4.976292236328125,0.004320043139159679,-0.02743997983634472,-0.009550044313073158
1782814230934373400,4.996373291015625,0.008745720610022545,-0.0009709286969155073,-0.011175362393260002
1782814230954455300,5.016455322265625,0.00918255839496851,0.00622389605268836,-0.018166441470384598
1782814230974536400,5.036536376953125,0.008662301115691662,-0.005639946088194847,-0.00819393340498209
1782814230994618400,5.056618408203125,0.004807362798601389,-0.0273270346224308,0.00354729313403368
1782814231014700300,5.0767001953125,-0.003243081271648407,-0.020931648090481758,0.008183027617633343
1782814231034781200,5.09678125,-0.009259985759854317,-0.0015779954846948385,-0.011843647807836533
1782814231054863400,5.11686328125,-0.005981939844787121,0.021639203652739525,-0.03658875823020935
1782814231074944300,5.1369443359375,-0.004291290882974863,0.018529295921325684,-0.034766796976327896
1782814231095026200,5.157026123046875,-0.0002653110132087022,-0.009479407221078873,-0.0014868846628814936
1782814231115107300,5.177107421875,-0.006025779526680708,-0.028602909296751022,0.014802933670580387
1782814231135189200,5.197189208984375,-0.004754399415105581,-0.013099754229187965,-0.015719672664999962
1782814231155270400,5.2172705078125,0.010219692252576351,0.018989428877830505,-0.051322463899850845
1782814231175352300,5.237352294921875,0.002558525651693344,0.020265474915504456,-0.039974141865968704
1782814231195434200,5.257434326171875,-0.015029661357402802,-0.03154383972287178,-0.01421433687210083
1782814231215515400,5.277515380859375,-0.009060743264853954,-0.04030358046293259,-0.014328287914395332
1782814231235597300,5.297597412109375,0.004988444969058037,-0.002803750801831484,-0.030384425073862076
1782814231255678500,5.317678466796875,0.0007314973045140505,0.017658833414316177,-0.028529537841677666
1782814231276387300,5.33838720703125,0.0028940739575773478,0.015590740367770195,0.002225736388936639
1782814231296468500,5.358468505859375,0.002641477854922414,-0.010498475283384323,0.018234683200716972
1782814231316550400,5.37855029296875,-0.0017352249706164002,-0.03201073780655861,0.002979773562401533
1782814231336631600,5.398631591796875,-0.011867564171552658,-0.010591943748295307,-0.022289536893367767
1782814231356713500,5.41871337890625,-0.01502896472811699,0.029870236292481422,-0.025961417704820633
1782814231376794600,5.438794677734375,-0.01329935435205698,0.021922457963228226,-0.004852054640650749
1782814231396876500,5.45887646484375,-0.014831854961812496,-0.017240125685930252,0.0048622852191329
1782814231416957400,5.47895751953125,-0.017502114176750183,-0.02354416437447071,-0.0045566800981760025
1782814231437039400,5.499039306640625,-0.017038902267813683,0.003567648585885763,-0.011084138415753841
1782814231457121300,5.519121337890625,-0.015304017812013626,0.01938151754438877,-0.011329006403684616
1782814231477202400,5.539202392578125,-0.010027599520981312,0.009290514513850212,0.006771557033061981
1782814231497284400,5.559284423828125,-0.004602714441716671,-0.004407648928463459,0.021100664511322975
1782814231517365500,5.579365478515625,-0.0036819572560489178,-0.005708850920200348,0.022670209407806396
1782814231537447400,5.599447509765625,-0.009186942130327225,0.00022776005789637566,0.009383708238601685
1782814231557528600,5.619528564453125,-0.010268894024193287,0.004255640786141157,-0.0013671808410435915
1782814231577610500,5.639610595703125,-0.008519627153873444,0.015804991126060486,0.004292445722967386
1782814231597691600,5.659691650390625,0.00037871551467105746,0.01481194980442524,0.013110796920955181
1782814231617146400,5.679146484375,0.0006764057325199246,0.004477144218981266,0.01822812296450138
1782814231637228500,5.699228515625,-0.0021320893429219723,0.009604927152395248,0.019047407433390617
1782814231657309400,5.719309326171875,-0.0054884180426597595,0.0002699717879295349,0.011665141209959984
1782814231677391600,5.7393916015625,-0.003427827497944236,-0.00396949565038085,0.0009732259204611182
1782814231697472500,5.759472412109375,0.009725065901875496,0.010459909215569496,0.00016452092677354813
1782814231717554700,5.7795546875,0.005363746080547571,0.01844504289329052,0.014146802015602589
1782814231737636600,5.79963671875,-0.006943658459931612,-0.004401328507810831,0.015745878219604492
1782814231757717200,5.81971728515625,-0.004479005467146635,-0.02710426226258278,-0.001664681825786829
1782814231777799400,5.83979931640625,0.00677754171192646,-0.009267758578062057,-0.013362759724259377
1782814231797880300,5.85988037109375,0.010442698374390602,-0.0003001764416694641,-0.0017524480354040861
1782814231817962500,5.87996240234375,0.01331669557839632,0.0015530828386545181,0.015355482697486877
1782814231838043400,5.90004345703125,0.014125167392194271,-0.00380311137996614,0.01733708567917347
1782814231858125600,5.92012548828125,0.007909804582595825,0.004351540468633175,0.009832123294472694
1782814231878206500,5.94020654296875,0.006137522403150797,0.018280813470482826,0.0008875691564753652
1782814231898288400,5.960288330078125,0.014833099208772182,0.01182090025395155,0.0025131877046078444
1782814231918370600,5.98037060546875,0.02209172211587429,-0.008276760578155518,0.01970280334353447
1782814231938451500,6.000451416015625,0.013444183394312859,-0.031051412224769592,0.015249582007527351
1782814231958533600,6.02053369140625,0.007265675347298384,-0.02064157836139202,-0.01889563538134098
1782814231978614500,6.040614501953125,0.0000295878853648901,0.005479603074491024,-0.045687686651945114
1782814231998696400,6.060696533203125,-0.0031052827835083008,-0.013934087008237839,-0.038418110460042953
1782814232018777300,6.08077734375,0.00006567899254150689,-0.04137667268514633,-0.008864804171025753
1782814232038859300,6.100859375,0.002846298273652792,-0.06641341745853424,-0.0009508365765213966
1782814232058941400,6.12094140625,-0.005594360642135143,-0.06637229770421982,-0.023611949756741524
1782814232079022300,6.141022216796875,-0.01912662945687771,-0.036982838064432144,-0.05112672597169876
1782814232099104500,6.1611044921875,-0.01634552888572216,-0.00038831657730042934,-0.04918483644723892
1782814232119185400,6.181185302734375,-0.003874936606734991,0.013910858891904354,-0.018616709858179092
1782814232139267300,6.201267333984375,0.0015689234714955091,-0.000593582633882761,0.004968879744410515
1782814232159348500,6.221348388671875,-0.002430895809084177,-0.0177028588950634,0.012656353414058685
1782814232179430400,6.241430419921875,0.00042815052438527346,-0.0058346763253211975,0.014942719601094723
1782814232199511600,6.261511474609375,-0.0007799513405188918,0.0009295563213527203,0.014421435073018074
1782814232219593500,6.281593505859375,-0.004961836617439985,0.0034709577448666096,0.0003814247902482748
1782814232239675600,6.301675537109375,0.010124591179192066,0.020547308027744293,0.005337649490684271
1782814232259756500,6.321756591796875,0.016041144728660583,0.020328260958194733,0.03788423910737038
1782814232279838500,6.34183837890625,-0.00565766915678978,-0.017342835664749146,0.04663541167974472
1782814232299919400,6.36191943359375,-0.0165336262434721,-0.021030239760875702,0.006635566707700491
1782814232320001300,6.382001220703125,-0.007359006442129612,0.010276785120368004,-0.034118130803108215
1782814232340082400,6.40208251953125,0.0010786070488393307,0.036335788667201996,-0.02369876392185688
1782814232360164400,6.422164306640625,-0.00008755495946388692,0.01948346197605133,0.011456036940217018
1782814232380246500,6.44224658203125,0.006223540753126144,-0.007517839781939983,0.029955895617604256
1782814232400327400,6.462327392578125,0.007582996040582657,-0.026104876771569252,0.011366283521056175
1782814232420409300,6.482409423828125,0.00709112361073494,-0.0014491616748273373,-0.01936354860663414
1782814232440490200,6.502490234375,0.008291525766253471,0.02310270629823208,-0.027508830651640892
1782814232460572200,6.522572265625,0.01477754209190607,0.020295629277825356,-0.011709279380738735
1782814232480653300,6.5426533203125,0.014141945168375969,-0.0017700542230159044,0.005600268021225929
1782814232500735200,6.5627353515625,0.02071254700422287,-0.0066352407447993755,0.01099151000380516
1782814232520816400,6.58281640625,0.026962565258145332,0.011542005464434624,0.006083221640437841
1782814232540898300,6.602898193359375,0.01863928698003292,0.007929142564535141,0.000789779587648809
1782814232560980200,6.622980224609375,0.015606327913701534,0.004931942094117403,0.0012947096256539226
1782814232581061400,6.643061279296875,0.01336560770869255,-0.0024489653296768665,-0.006860098801553249
1782814232601143300,6.663143310546875,0.017405079677700996,-0.007076560519635677,-0.015760689973831177
1782814232621224400,6.683224365234375,0.008408627472817898,-0.016806039959192276,-0.000028645386919379234
1782814232641306400,6.703306396484375,0.003536451142281294,-0.0252043716609478,0.021317031234502792
1782814232661387500,6.723387451171875,-0.0005005962448194623,-0.0007760198786854744,0.01894317753612995
1782814232681469400,6.743469482421875,-0.005408092867583036,0.03214399889111519,-0.009012051858007908
1782814232701550300,6.76355029296875,-0.0044753896072506905,0.056429672986269,-0.022181859239935875
1782814232721632300,6.78363232421875,0.006750175263732672,0.050906144082546234,0.007309284992516041
1782814232741714200,6.803714111328125,0.014262624084949493,0.009307336993515491,0.05288185179233551
1782814232761795300,6.82379541015625,0.005180343519896269,-0.03536241501569748,0.04621661454439163
1782814232781877200,6.843877197265625,0.0028996618930250406,-0.009907325729727745,-0.004630193579941988
1782814232801958400,6.86395849609375,0.018912767991423607,0.03206556662917137,-0.02746286615729332
1782814232822040300,6.884040283203125,0.01711607351899147,0.01830900087952614,-0.008825036697089672
1782814232842121500,6.90412158203125,0.006925159599632025,-0.04909264296293259,-0.0006544371135532856
1782814232862203400,6.924203369140625,0.018420161679387093,-0.030603911727666855,-0.015142299234867096
1782814232882285300,6.944285400390625,0.022471223026514053,0.008944837376475334,-0.023824170231819153
1782814232902366500,6.964366455078125,0.022283688187599182,0.023596957325935364,0.0013231344055384398
1782814232922448400,6.984448486328125,0.03113815374672413,0.005842290818691254,0.0253580454736948
1782814232942529500,7.004529541015625,0.02661828324198723,-0.0118399728089571,0.018521571531891823
1782814232962611500,7.024611572265625,0.015213485807180405,-0.003324994584545493,-0.013114292174577713
1782814232982692400,7.0446923828125,0.007942534051835537,-0.0023904021363705397,-0.04428655281662941
1782814233002774300,7.064774169921875,0.012049004435539246,-0.01702253706753254,-0.03715882450342178
1782814233022855200,7.084855224609375,0.012171384878456593,-0.017794862389564514,0.0019533869344741106
1782814233042937300,7.104937255859375,0.009594975970685482,-0.029223410412669182,0.01834154687821865
1782814233063019300,7.125019287109375,0.011285158805549145,-0.001726280665025115,0.008946145884692669
1782814233083100400,7.145100341796875,0.011827289126813412,0.017933059483766556,-0.006265856325626373
1782814233103182300,7.165182373046875,0.007621284574270248,0.019870376214385033,-0.0051474254578351974
1782814233123263200,7.18526318359375,0.012337133288383484,0.015017881989479065,0.012704367749392986
1782814233143345400,7.205345458984375,0.003824833082035184,-0.010147897526621819,0.019291076809167862
1782814233163426300,7.22542626953125,-0.005875249393284321,-0.004779639653861523,0.013326190412044525
1782814233183508500,7.245508544921875,-0.010540167801082134,0.009699959307909012,-0.006586034316569567
1782814233203589400,7.26558935546875,-0.00987830851227045,0.011846777983009815,-0.022682921960949898
1782814233223671600,7.285671630859375,-0.013699337840080261,0.0065080709755420685,-0.021599717438220978
1782814233243753500,7.30575341796875,-0.015840163454413414,0.00017119525000452995,-0.014351366087794304
1782814233263834000,7.325834228515625,-0.014402425847947598,0.009301558136940002,0.0008141269208863378
1782814233283916300,7.345916259765625,-0.009988830424845219,0.010839836671948433,0.008879264816641808
1782814233303997700,7.365997802734375,-0.008768733590841293,-0.0045484215952456,0.005208773538470268
1782814233324079900,7.386079833984375,-0.009278856217861176,-0.014101803302764893,-0.005899384152144194
1782814233344160800,7.406160888671875,0.008046754635870457,0.007035518996417522,-0.007313517853617668
1782814233364242700,7.42624267578125,0.011018019169569016,0.009627236053347588,0.004832125268876553
1782814233384323800,7.44632373046875,-0.009569711983203888,-0.02816273272037506,0.00898706540465355
1782814233404405800,7.46640576171875,-0.015471911989152431,-0.051888320595026016,-0.00023267441429197788
1782814233424488000,7.486488037109375,-0.01084022969007492,-0.022499309852719307,-0.0015729919541627169
1782814233444568600,7.506568603515625,-0.01936352625489235,0.0073944865725934505,0.006586139090359211
1782814233464650800,7.526650634765625,-0.02816973440349102,0.018365956842899323,0.01925724931061268
1782814233484731600,7.546731689453125,-0.03422050178050995,0.020301762968301773,0.035828713327646255
1782814233504813600,7.5668134765625,-0.039517950266599655,-0.003047661855816841,0.042227938771247864
1782814233524894700,7.586894775390625,-0.04369998723268509,-0.02425481379032135,0.03540535643696785
1782814233544976600,7.6069765625,-0.0442839041352272,-0.01120460219681263,0.014463852159678936
1782814233565057800,7.627057861328125,-0.045377328991889954,0.02989387698471546,-0.004781957715749741
1782814233585139700,7.6471396484375,-0.044012751430273056,0.02302391454577446,-0.0018806788139045238
1782814233605221600,7.6672216796875,-0.03864198178052902,-0.017628327012062073,0.009396430104970932
1782814233625302800,7.687302734375,-0.025843454524874687,-0.02831384353339672,0.018364332616329193
1782814233645384700,7.707384765625,-0.015964722260832787,-0.014636034145951271,0.01528526283800602
1782814233665465900,7.7274658203125,-0.009376139380037785,0.0061681014485657215,-0.0027168148662894964
1782814233685547800,7.7475478515625,-0.011850683949887753,0.005640840623527765,-0.012793360278010368
1782814233705628700,7.767628662109375,-0.01229169312864542,-0.01783350482583046,-0.011145622469484806
1782814233725710800,7.7877109375,-0.012841318733990192,-0.019121535122394562,-0.006963455118238926
1782814233745791700,7.807791748046875,-0.013480487279593945,-0.008743016980588436,-0.011747065931558609
1782814233765873700,7.827873779296875,-0.01992088556289673,0.006570744328200817,-0.01850288175046444
1782814233785955600,7.84795556640625,-0.026115909218788147,0.012436081655323505,-0.025492720305919647
1782814233806036700,7.86803662109375,-0.03156163915991783,0.009697696194052696,-0.024862606078386307
1782814233826118700,7.88811865234375,-0.020689131692051888,0.009052491746842861,-0.013292231597006321
1782814233846199800,7.90819970703125,-0.012745252810418606,-0.0065504806116223335,0.004458212293684483
1782814233866281700,7.92828173828125,-0.017447128891944885,-0.01949082687497139,0.02256392315030098
1782814233886363000,7.94836279296875,-0.013904144987463951,-0.021330837160348892,0.011047933250665665
1782814233906444800,7.96844482421875,0.0042627849616110325,0.01196468435227871,-0.008049087598919868
1782814233926526000,7.98852587890625,-0.004082406871020794,0.005463225767016411,-0.02069162018597126
1782814233946607900,8.00860791015625,-0.016484811902046204,-0.033667176961898804,-0.02678285911679268
1782814233966689800,8.028689697265625,-0.012979280203580856,-0.03171917051076889,-0.026810172945261
1782814233986771000,8.04877099609375,-0.003754366422072053,0.015016289427876472,-0.00953561719506979
1782814234006852900,8.068852783203125,-0.001831820816732943,0.023474840447306633,0.0034262940753251314
1782814234026933800,8.088933837890625,-0.0066837468184530735,0.007450901437550783,0.010363510809838772
1782814234047015700,8.109015625,-0.014030317775905132,-0.01515527069568634,-0.005062614101916552
1782814234067096800,8.129096923828126,-0.016825798898935318,-0.01540057361125946,-0.039866846054792404
1782814234087178800,8.1491787109375,-0.018395226448774338,0.003282228484749794,-0.05816566199064255
1782814234107259600,8.169259765625,-0.020021872594952583,0.01926642283797264,-0.029559200629591942
1782814234127341800,8.189341796875,-0.017422271892428398,0.001492869108915329,0.011732073500752449
1782814234147422700,8.209422607421875,-0.015201319940388203,-0.037718988955020905,0.02615332044661045
1782814234167505000,8.2295048828125,-0.012148790992796421,-0.018526483327150345,0.0072436644695699215
1782814234187586800,8.2495869140625,-0.016975075006484985,0.02344704605638981,-0.004216328263282776
1782814234207667700,8.269667724609375,-0.018709376454353333,0.02448180690407753,0.014004815369844437
1782814234227750000,8.28975,-0.019594253972172737,-0.01018976978957653,0.028720669448375702
1782814234247830800,8.309830810546876,-0.01955738663673401,-0.011498792096972466,0.022299785166978836
1782814234267913000,8.329912841796874,-0.024202819913625717,-0.003386033931747079,0.010288676247000694
1782814234287993600,8.34999365234375,-0.022328777238726616,0.005655674729496241,0.00635023508220911
1782814234308075800,8.37007568359375,-0.018843811005353928,0.0062180752865970135,0.012875917367637157
1782814234328156400,8.390156494140625,-0.015295582823455334,-0.0007067406550049782,0.016481105238199234
1782814234348238600,8.410238525390625,-0.012020580470561981,0.00025423290207982063,0.021165523678064346
1782814234368319500,8.430319580078125,-0.009018411859869957,0.008019309490919113,0.021600032225251198
1782814234388401400,8.4504013671875,0.0011591626098379493,0.011602566577494144,0.02189413271844387
1782814234408483600,8.470483642578126,-0.001286366954445839,-0.006743541918694973,0.01469421572983265
1782814234428564500,8.490564453125,0.011803358793258667,0.0003716149367392063,0.01166423037648201
1782814234448646700,8.510646728515624,0.026098664849996567,0.02644813433289528,0.01740702986717224
1782814234468727600,8.5307275390625,0.016069989651441574,0.011060040444135666,0.014762470498681068
1782814234488809500,8.5508095703125,0.004292522557079792,-0.04044537618756294,-0.011577269062399864
1782814234508890600,8.570890625,0.01308103371411562,-0.032923515886068344,-0.02675064466893673
1782814234528972500,8.59097265625,0.02538171596825123,-0.0002543861046433449,-0.012890124693512917
1782814234549053700,8.6110537109375,0.029454298317432404,0.007745697163045406,0.0007933701854199171
1782814234569135600,8.631135498046875,0.019910452887415886,-0.005597530864179134,-0.006255448330193758
1782814234589216500,8.651216552734375,0.009976356290280819,-0.015923600643873215,-0.023702913895249367
1782814234609298400,8.67129833984375,0.0043506077490746975,-0.012830106541514397,-0.025061339139938354
1782814234629380600,8.691380615234374,0.005145179573446512,-0.0050405478104949,-0.01924259401857853
1782814234649461500,8.71146142578125,0.011202272959053516,0.006824367679655552,-0.016450803726911545
1782814234669543400,8.73154345703125,0.01131441816687584,0.0039807152934372425,-0.029885681346058846
1782814234689624600,8.75162451171875,0.009234541095793247,-0.014970461837947369,-0.03662300854921341
1782814234709706500,8.77170654296875,0.015660060569643974,-0.002611159812659025,-0.02226359210908413
1782814234729787600,8.79178759765625,0.02019183710217476,-0.003291072091087699,-0.007133143953979015
1782814234749869600,8.81186962890625,0.025406381115317345,-0.004987907130271196,0.002527036238461733
1782814234769950700,8.83195068359375,0.02237301878631115,-0.011496661230921745,0.005607357248663902
1782814234790032600,8.85203271484375,0.01440651249140501,-0.013162070885300636,0.011579591780900955
1782814234810113800,8.87211376953125,0.005337864626199007,-0.008185830898582935,0.003553418442606926
1782814234830195700,8.89219580078125,-0.0016386518254876137,0.0017209257930517197,-0.01710185781121254
1782814234850277600,8.912277587890625,-0.009255167096853256,0.024467259645462036,-0.022786874324083328
1782814234870358500,8.932358642578125,-0.017386825755238533,0.022103145718574524,0.003219515085220337
1782814234890440700,8.952440673828125,-0.018353287130594254,0.001729961484670639,0.028495043516159058
1782814234910521600,8.972521484375,-0.01429148018360138,0.0033970410004258156,0.021047919988632202
1782814234930603500,8.992603515625,-0.008841286413371563,0.018187595531344414,0.00048273266293108463
1782814234950684700,9.0126845703125,-0.013622167520225048,0.021258024498820305,-0.0037812849041074514
1782814234970766600,9.0327666015625,-0.015764007344841957,0.004696351010352373,0.0052566491067409515
1782814234990847500,9.052847412109376,-0.00032812313293106854,-0.0071997675113379955,0.02178150787949562
1782814235010929700,9.0729296875,0.0016850726678967476,-0.014401649124920368,0.02356521040201187
1782814235031011600,9.093011474609375,-0.011427367106080055,-0.023777775466442108,-0.0014177041593939066
1782814235051092700,9.1130927734375,-0.00993364118039608,0.0012039504945278168,-0.027469709515571594
1782814235071174700,9.133174560546875,-0.002817800035700202,0.013515469618141651,-0.019627001136541367
1782814235091255600,9.153255615234375,0.004751767031848431,0.006302609108388424,0.02037826180458069
1782814235111337700,9.173337646484375,0.004143860656768084,-0.005694198422133923,0.04524323716759682
1782814235131418600,9.193418701171876,-0.0018893195083364844,0.009988397359848022,0.036890480667352676
1782814235151500800,9.213500732421876,-0.012448246590793133,0.018080607056617737,0.003223095089197159
1782814235171581400,9.23358154296875,-0.015224553644657135,0.01707257516682148,-0.01700672134757042
1782814235191663600,9.25366357421875,-0.010264909826219082,0.01129242405295372,-0.010939953848719597
1782814235211744500,9.27374462890625,-0.004550362471491098,0.008727755397558212,0.00752421747893095
1782814235231826400,9.293826416015625,-0.007120769005268812,-0.013550438918173313,0.018197275698184967
1782814235251907600,9.313907470703125,-0.005461950320750475,-0.02251255325973034,-0.0012222840450704098
1782814235271989500,9.333989501953125,-0.004249907098710537,0.000495267566293478,-0.017352432012557983
1782814235292070700,9.354070556640625,-0.0007464800728484988,0.01772482879459858,-0.01100416760891676
1782814235312152600,9.374152587890626,0.00616436917334795,0.007894077338278294,0.004022703506052494
1782814235332233700,9.394233642578126,0.010134727694094181,-0.009940043091773987,0.010296118445694447
1782814235352315600,9.414315673828124,0.008222386240959167,-0.009386241436004639,-0.0022893515415489674
1782814235372397600,9.4343974609375,0.004166442435234785,0.004796032328158617,-0.01664784550666809
1782814235392478700,9.454478759765625,-0.000012548029189929366,0.01848447136580944,-0.008873913437128067
1782814235412560600,9.474560546875,-0.0021741236560046673,0.007374133449047804,0.007648254744708538
1782814235432641500,9.4946416015625,0.0009421790018677711,0.00404242891818285,0.01679902896285057
1782814235452723500,9.514723388671875,0.0035118793603032827,0.018318025395274162,0.008665133267641068
1782814235472804600,9.5348046875,0.002264631213620305,0.029180143028497696,-0.004878931678831577
1782814235492886500,9.554886474609376,0.0022654524073004723,0.023119840770959854,0.0007841720944270492
1782814235512967700,9.5749677734375,-0.005668267607688904,-0.002446752740070224,0.004629387520253658
1782814235533049600,9.595049560546874,-0.0009752969490364194,-0.014079582877457142,-0.0054679266177117825
1782814235553130800,9.615130859375,0.013787112198770046,0.004368595313280821,-0.008959033526480198
1782814235573212700,9.635212646484375,0.008359907194972038,-0.00006089778617024422,-0.0029965434223413467
1782814235593293600,9.65529345703125,-0.004679853096604347,-0.031970635056495667,-0.006689051631838083
1782814235613375700,9.675375732421875,-0.0007230214541777968,-0.011822688393294811,-0.025006376206874847
1782814235633457700,9.695457763671875,0.004711248446255922,0.02197001315653324,-0.025769347324967384
1782814235653538800,9.715538818359375,0.013760317116975784,0.02681080624461174,-0.0018852679058909416
1782814235673620700,9.735620849609376,0.01164300087839365,-0.009047610685229301,0.024360841140151024
1782814235693701600,9.75570166015625,0.005301318131387234,-0.032971832901239395,0.0150068961083889
1782814235713783600,9.775783447265624,0.002443226519972086,-0.019211377948522568,-0.018598882481455803
1782814235733864400,9.795864501953124,0.0017104496946558356,0.005415412597358227,-0.03760476037859917
1782814235753946600,9.815946533203125,0.0009278621291741729,0.020148741081357002,-0.024083897471427917
1782814235774027500,9.836027587890625,-0.0061177355237305164,-0.003022396471351385,-0.00241484260186553
1782814235794109700,9.856109619140625,-0.009025766514241695,-0.02991607040166855,-0.0011653231922537088
1782814235814191600,9.876191650390625,-0.008295552805066109,-0.04101113602519035,-0.002893684199079871
1782814235834272500,9.8962724609375,-0.011822150088846684,-0.01794866845011711,-0.018287641927599907
1782814235854354700,9.916354736328126,-0.02832118049263954,0.009676444344222546,-0.023599643260240555
1782814235874435600,9.936435546875,-0.019924361258745193,0.0016748872585594654,-0.021774426102638245
1782814235894517800,9.956517822265624,-0.006310115568339825,0.015048546716570854,0.01509244553744793
1782814235914598700,9.9765986328125,-0.0049819485284388065,-0.006615675985813141,0.027968158945441246
1782814235934680600,9.9966806640625,-0.016302866861224174,-0.0004222625866532326,0.020792854949831963
1782814235954761500,10.016761474609375,-0.008864382281899452,0.020823191851377487,0.010540523566305637
1782814235974843400,10.036843505859375,-0.007915661670267582,0.010866716504096985,0.007309187203645706
1782814235994924500,10.056924560546875,-0.011689296923577785,-0.0003864259924739599,0.006594185717403889
1782814236015006500,10.07700634765625,0.002119611017405987,0.029763031750917435,-0.00839914008975029
1782814236035088600,10.097088623046876,0.012205271050333977,0.009358507581055164,-0.011781543493270874
1782814236055169500,10.11716943359375,0.01987186260521412,-0.014889760874211788,0.008152222260832787
1782814236075251500,10.13725146484375,0.00937470979988575,-0.04177647456526756,0.007763579487800598
1782814236095332600,10.15733251953125,0.008536715060472488,-0.018679659813642502,-0.016887029632925987
1782814236115414500,10.17741455078125,0.010687166824936867,0.02876441180706024,-0.0342065691947937
1782814236135495700,10.19749560546875,0.0006987020606175065,0.06178158521652222,-0.038177456706762314
1782814236155577600,10.21757763671875,-0.0031568044796586037,0.06276369094848633,0.021564040333032608
1782814236175658800,10.23765869140625,0.020583296194672585,-0.10069439560174942,0.04936771094799042
1782814236195740700,10.25774072265625,0.012227298691868782,-0.09738226234912872,0.03444676473736763
1782814236215822600,10.277822509765626,-0.0044304076582193375,0.011938300915062428,-0.036072876304388046
1782814236235903500,10.297903564453126,0.008201397955417633,0.09486866742372513,-0.10995382815599442
1782814236255985400,10.3179853515625,0.022412585094571114,0.09675079584121704,-0.08063723891973495
