time,seconds_elapsed,z,y,x
1782814623002024400,0.0600244140625,-0.01728028617799282,-0.0018319562077522278,0.015510981902480125
1782814623022105300,0.080105224609375,-0.027193011716008186,-0.03294483572244644,-0.007642213720828295
1782814623042187500,0.1001875,-0.024845939129590988,0.0018175910227000713,-0.017243333160877228
1782814623062269400,0.12026953125,-0.009838845580816269,0.020293330773711205,0.002659920835867524
1782814623082350600,0.1403505859375,0.005924555938690901,0.017393555492162704,0.04305129498243332
1782814623102432500,0.1604326171875,0.022117823362350464,0.004641334060579538,0.059089235961437225
1782814623122514400,0.180514404296875,0.02325614169239998,-0.0037964191287755966,0.037678636610507965
1782814623142595600,0.200595703125,0.020120983943343163,0.0032692737877368927,0.007589562796056271
1782814623162677500,0.220677490234375,0.01926000788807869,-0.0013978190254420042,-0.01693902164697647
1782814623182759400,0.240759521484375,0.024387218058109283,-0.01694825291633606,-0.02647680602967739
1782814623202841600,0.260841552734375,0.017123796045780182,-0.005545722786337137,-0.017850680276751518
1782814623222922500,0.280922607421875,0.005991928279399872,-0.004708109889179468,-0.01087656244635582
1782814623243004700,0.301004638671875,-0.0023479301016777754,-0.00018620816990733147,-0.018186435103416443
1782814623263086600,0.321086669921875,-0.003981604240834713,0.0027251294814050198,-0.00928514450788498
1782814623283167500,0.34116748046875,-0.010528028011322021,0.005624210461974144,0.012436321005225182
1782814623303249400,0.36124951171875,-0.011840608902275562,0.010466933250427246,0.0241209976375103
1782814623323331300,0.381331298828125,-0.007507355883717537,0.005340443924069405,0.010835482738912106
1782814623343412500,0.40141259765625,-0.00456198351457715,0.025785859674215317,0.011065167374908924
1782814623363494400,0.421494384765625,-0.0054318164475262165,-0.0028293770737946033,0.006181261036545038
1782814623383576300,0.441576416015625,-0.0024623549543321133,-0.003769194707274437,0.003714929334819317
1782814623403657500,0.461657470703125,0.008796782232820988,0.00823476817458868,-0.0010850918479263783
1782814623423739400,0.481739501953125,0.007287401705980301,0.0141574926674366,0.005365589167922735
1782814623443821300,0.5018212890625,0.0037752643693238497,-0.00021042441949248314,0.007667304947972298
1782814623463902500,0.52190234375,0.005871650297194719,0.003941425122320652,0.014409059658646584
1782814623483984400,0.541984375,0.010288473218679428,0.011531779542565346,0.00905865989625454
1782814623504066600,0.562066650390625,0.009055610746145248,0.011891634203493595,-0.0038820526096969843
1782814623524147500,0.5821474609375,-0.004517371766269207,-0.0076451110653579235,-0.012696435675024986
1782814623544229600,0.602229736328125,-0.01814575493335724,-0.0015866607427597046,-0.009297933429479599
1782814623564311600,0.6223115234375,-0.01015554927289486,0.008431326597929,-0.010507583618164062
1782814623584393500,0.6423935546875,-0.011297367513179779,0.019898414611816406,-0.004362775012850761
1782814623604474600,0.662474609375,-0.02095324546098709,-0.024318067356944084,-0.002625633031129837
1782814623624556500,0.682556640625,-0.02318607084453106,-0.03705295920372009,-0.0037197680212557316
1782814623644638500,0.702638427734375,-0.006029726471751928,-0.0036817763466387987,0.0008279323810711503
1782814623664719600,0.7227197265625,0.01438036561012268,0.019655201584100723,0.02654094249010086
1782814623684801500,0.742801513671875,0.03261397406458855,0.023445770144462585,0.05507688969373703
1782814623704883500,0.762883544921875,0.03355826064944267,0.013139670714735985,0.06064330041408539
1782814623724964600,0.782964599609375,0.029349902644753456,-0.012697441503405571,0.038155194371938705
1782814623745046500,0.803046630859375,0.034737180918455124,-0.02977328561246395,0.005305260885506868
1782814623765128700,0.823128662109375,0.03273412212729454,-0.02296503633260727,-0.010586060583591461
1782814623785209600,0.843209716796875,0.023185035213828087,-0.004581785295158625,-0.010943228378891945
1782814623805291800,0.863291748046875,0.016033336520195007,-0.006446192041039467,-0.014920252375304699
1782814623825373700,0.883373779296875,0.007127520628273487,-0.01720285601913929,-0.01657039485871792
1782814623845454600,0.90345458984375,0.004347371403127909,-0.006324933376163244,-0.004384612664580345
1782814623865536800,0.923536865234375,0.004815797787159681,0.002684443723410368,0.006928565911948681
1782814623885618700,0.94361865234375,0.006761557422578335,0.0012263809330761433,0.00701648835092783
1782814623905699800,0.963699951171875,0.013490863144397736,0.009527109563350677,0.005241333972662687
1782814623925781800,0.98378173828125,0.01824990287423134,-0.001742066815495491,0.020366191864013672
1782814623945863700,1.00386376953125,0.01880636438727379,-0.004209887236356735,0.03234003484249115
1782814623965944600,1.023944580078125,0.021117456257343292,-0.006819252390414476,0.020335305482149124
1782814623986026500,1.044026611328125,0.021053394302725792,-0.015766989439725876,-0.002744545927271247
1782814624006108400,1.0641083984375,0.020624907687306404,-0.021469611674547195,-0.00029388838447630405
1782814624026189600,1.084189453125,0.029126714915037155,-0.013708117417991161,0.025300633162260056
1782814624046271500,1.104271484375,0.03160533681511879,-0.01690896600484848,0.038899015635252
1782814624066353700,1.124353759765625,0.02557537518441677,-0.0062599703669548035,0.03245246037840843
1782814624086434600,1.1444345703125,0.023116592317819595,0.0019775801338255405,0.020633606240153313
1782814624106516500,1.1645166015625,0.026239512488245964,0.009308051317930222,0.01947164162993431
1782814624126598700,1.1845986328125,0.016255909577012062,-0.0005927637685090303,0.007548973895609379
1782814624146680600,1.2046806640625,0.012163078412413597,-0.0062484582886099815,-0.015134114772081375
1782814624166761700,1.22476171875,0.00853245984762907,-0.004363005980849266,-0.023962363600730896
1782814624186843600,1.24484375,-0.004156246781349182,-0.013432426378130913,-0.02077540196478367
1782814624206925600,1.264925537109375,-0.013546697795391083,-0.03038855455815792,-0.02205648086965084
1782814624227006700,1.2850068359375,-0.013968342915177345,-0.004316407721489668,-0.016433613374829292
1782814624247088600,1.305088623046875,-0.01612851209938526,0.016206596046686172,0.007203306071460247
1782814624267170600,1.325170654296875,-0.006385677494108677,0.010090265423059464,0.03523870185017586
1782814624287251700,1.345251708984375,0.0014532238710671663,-0.002349663060158491,0.04177962616086006
1782814624307333600,1.365333740234375,-0.004046905320137739,0.0024553332477808,0.04094256833195686
1782814624327415800,1.385415771484375,-0.007260777521878481,0.00035961344838142395,0.019840853288769722
1782814624347496700,1.40549658203125,-0.011882070451974869,0.0016483468934893608,-0.009057313203811646
1782814624367578600,1.42557861328125,-0.005464391782879829,0.01980861835181713,-0.028809092938899994
1782814624387660800,1.445660888671875,-0.000865698792040348,0.002913505770266056,-0.013330839574337006
1782814624407741400,1.465741455078125,-0.005762840621173382,-0.019684165716171265,0.02093428745865822
1782814624427823600,1.48582373046875,-0.019980566576123238,-0.01578979566693306,0.03185117617249489
1782814624447905500,1.505905517578125,-0.029895631596446037,0.0025994712486863136,0.016283679753541946
1782814624467986700,1.525986572265625,-0.022583838552236557,0.004659631755203009,0.009980390779674053
1782814624488068600,1.546068603515625,-0.011400479823350906,0.01396176964044571,0.02218269184231758
1782814624508150500,1.566150634765625,-0.019022628664970398,-0.002606349065899849,0.028954723849892616
1782814624528231700,1.586231689453125,-0.02787868119776249,0.016602594405412674,0.01815313845872879
1782814624548313600,1.606313720703125,-0.03210878372192383,0.014796016737818718,-0.0027772262692451477
1782814624568395500,1.6263955078125,-0.028822680935263634,-0.019417960196733475,-0.009154856204986572
1782814624588476700,1.6464765625,-0.015266651287674904,-0.000811427365988493,0.010610772296786308
1782814624608558600,1.66655859375,-0.01083512045443058,0.014952277764678001,0.01931675337255001
1782814624628640800,1.686640869140625,-0.009367840364575386,0.011254525743424892,0.011153464205563068
1782814624648721700,1.7067216796875,-0.0033612861298024654,-0.010192333720624447,0.0043338593095541
1782814624668803600,1.726803466796875,0.0004545822739601135,-0.004649465437978506,0.01175694726407528
1782814624688886000,1.746885986328125,-0.006261041853576899,-0.0035123624838888645,0.008029983378946781
1782814624708967000,1.766966796875,-0.010903928428888321,-0.007975796237587929,-0.007324683014303446
1782814624729049000,1.787049072265625,-0.008437635377049446,-0.01133015751838684,-0.009020534344017506
1782814624749131000,1.807131103515625,-0.01274313684552908,0.00668445136398077,0.009809720329940319
1782814624769212000,1.8272119140625,-0.022326432168483734,0.003436489962041378,0.0058153048157691956
1782814624789294000,1.847294189453125,-0.020776959136128426,-0.027238493785262108,-0.02122516743838787
1782814624809376000,1.8673759765625,-0.01929773949086666,-0.015492944046854973,-0.02683335356414318
1782814624829457000,1.887456787109375,-0.015184015966951847,0.02058825083076954,0.0000033690594136714935
1782814624849538800,1.907538818359375,-0.009159786626696587,0.03417912498116493,0.01792796514928341
1782814624869620700,1.927620849609375,-0.001520165242254734,0.007159341126680374,0.012031693011522293
1782814624889702000,1.947701904296875,-0.0014190960209816694,-0.01353435218334198,-0.0033275610767304897
1782814624909783800,1.96778369140625,-0.0025379888247698545,-0.008013208396732807,-0.023897789418697357
1782814624929865700,1.98786572265625,-0.002040000632405281,0.008626658469438553,-0.042179785668849945
1782814624949947000,2.00794677734375,0.006779987830668688,0.014513975940644741,-0.03316045552492142
1782814624970028800,2.02802880859375,0.0130317946895957,0.008713088929653168,-0.01391642913222313
1782814624990111000,2.048111083984375,0.014533999375998974,-0.011834735050797462,0.002306068316102028
1782814625010192000,2.06819189453125,0.006733183283358812,-0.0026128804311156273,0.004505029879510403
1782814625030273800,2.088273681640625,-0.0012427546316757798,0.015012705698609352,0.0023236125707626343
1782814625050356000,2.10835595703125,-0.0029214839451014996,0.019939864054322243,0.005641194060444832
1782814625070436900,2.128436767578125,0.0018839542753994465,0.00385695556178689,0.00009234040044248104
1782814625090519000,2.14851904296875,0.0004906423855572939,0.003228200599551201,0.0025494107976555824
1782814625110601000,2.16860107421875,-0.0030554032418876886,0.0022255931980907917,0.004786340985447168
1782814625130682000,2.18868212890625,-0.008918610401451588,-0.00828448124229908,-0.000610376475378871
1782814625150764000,2.208763916015625,-0.015574953518807888,0.005998040083795786,-0.009965016506612301
1782814625170846000,2.228845947265625,-0.022159360349178314,0.007456828374415636,-0.009495681151747704
1782814625190926800,2.2489267578125,-0.01501549780368805,-0.004079119767993689,-0.008347723633050919
1782814625211008800,2.2690087890625,-0.006126058287918568,-0.004754738882184029,-0.008996158838272095
1782814625231090700,2.289090576171875,-0.009058509021997452,-0.00011783605441451073,-0.006789856124669313
1782814625251171800,2.309171875,-0.014537018723785877,0.008914679288864136,0.00882880762219429
1782814625271253800,2.329253662109375,-0.013325563631951809,-0.007776422891765833,0.014723964966833591
1782814625291336000,2.3493359375,-0.003936717752367258,-0.019903436303138733,0.01845390722155571
1782814625311417900,2.36941796875,0.008069131523370743,-0.007312614470720291,0.02438514679670334
1782814625331498800,2.389498779296875,0.007479582913219929,0.005365477874875069,0.0287641491740942
1782814625351581000,2.409580810546875,-0.008116760291159153,-0.014101187698543072,0.01502272766083479
1782814625371661800,2.429661865234375,-0.009012840688228607,-0.01567802205681801,-0.010914286598563194
1782814625391744000,2.449743896484375,-0.003322023432701826,0.003407491836696863,-0.007596048526465893
1782814625411826000,2.469825927734375,0.0027656599413603544,0.009407049044966698,0.020876850932836533
1782814625431907800,2.489907958984375,0.0030320200603455305,0.005129583645612001,0.03483787178993225
1782814625451989000,2.509989013671875,0.0044033280573785305,-0.002477011177688837,0.014097301289439201
1782814625472071000,2.53007080078125,0.011319860816001892,-0.010619347915053368,-0.011988872662186623
1782814625492152800,2.55015283203125,0.006421926897019148,-0.013805679976940155,-0.02030724473297596
1782814625512234000,2.57023388671875,0.005099615082144737,-0.00039055640809237957,-0.016027849167585373
1782814625532316000,2.59031591796875,0.007181521505117416,0.00815645232796669,-0.020061485469341278
1782814625552398000,2.610398193359375,0.013662262819707394,0.001464886125177145,-0.018851561471819878
1782814625572478700,2.630478759765625,0.013915225863456726,-0.02535529062151909,-0.011765976436436176
1782814625592561000,2.650560791015625,0.01644163951277733,0.0021223658695816994,-0.0008763931691646576
1782814625612643000,2.67064306640625,0.019133446738123894,0.013415372930467129,0.0006104607600718737
1782814625632723700,2.6907236328125,0.01793905720114708,0.0036801998503506184,0.0049050962552428246
1782814625652806000,2.710805908203125,0.016457008197903633,-0.0008042973931878805,0.01784060150384903
1782814625672887800,2.7308876953125,0.018045295029878616,0.005823682062327862,0.02332385629415512
1782814625692969000,2.750968994140625,0.010721182450652122,0.006449384614825249,0.010584613308310509
1782814625713051100,2.771051025390625,0.0006733420304954052,-0.000805332325398922,-0.0103496965020895
1782814625733133000,2.791133056640625,-0.0029749528039246798,0.00412612222135067,-0.025434480980038643
1782814625753214000,2.8112138671875,-0.003935805521905422,0.008481903932988644,-0.017588187009096146
1782814625773295900,2.8312958984375,-0.003696015104651451,0.007737585809081793,-0.006734929047524929
1782814625793377800,2.851377685546875,-0.0006181766511872411,-0.00038868701085448265,-0.007949667051434517
1782814625813459000,2.871458984375,-0.0008719991892576218,-0.00408658292144537,-0.019270161166787148
1782814625833540900,2.891540771484375,0.0030332470778375864,0.005039622541517019,-0.02084924280643463
1782814625853623000,2.911623046875,0.0013655584771186113,-0.0027205687947571278,-0.014047278091311455
1782814625873704000,2.931703857421875,-0.006702693644911051,-0.017444010823965073,-0.015095815062522888
1782814625893785900,2.951785888671875,-0.0021747455466538668,0.0012837061658501625,-0.014009032398462296
1782814625913868000,2.971867919921875,-0.003273820271715522,-0.00038857804611325264,-0.012763112783432007
1782814625933949000,2.991948974609375,-0.019768428057432175,-0.04322660341858864,-0.01631367765367031
1782814625954031000,3.012031005859375,-0.023478399962186813,-0.027004379779100418,-0.025165792554616928
1782814625974113000,3.032113037109375,-0.017926836386322975,0.016806643456220627,-0.01885271817445755
1782814625994194000,3.05219384765625,-0.015930045396089554,0.022404145449399948,0.01389791164547205
1782814626014276000,3.072276123046875,-0.013139385730028152,-0.004043372813612223,0.030980361625552177
1782814626034358000,3.09235791015625,-0.004927871748805046,-0.007825975306332111,0.010732380673289299
1782814626054439200,3.112439208984375,-0.00025414576521143317,-0.002920650877058506,-0.024781839922070503
1782814626074521000,3.13252099609375,-0.005435500293970108,-0.00135681196115911,-0.03477795794606209
1782814626094603000,3.15260302734375,-0.0004826823715120554,-0.006406741216778755,-0.03153670206665993
1782814626114684000,3.172683837890625,0.013892093673348427,0.005203165113925934,-0.026659948751330376
1782814626134765800,3.192765869140625,0.012777150608599186,-0.011335913091897964,-0.03041590191423893
1782814626154847700,3.21284765625,0.00012378720566630363,-0.008063825778663158,-0.02454257942736149
1782814626174929000,3.232928955078125,0.0014606283511966467,-0.0037274230271577835,-0.022932754829525948
1782814626195010800,3.2530107421875,0.02030133455991745,0.0103650176897645,-0.009008550085127354
1782814626215093000,3.273093017578125,0.022329894825816154,0.011252837255597115,0.004076733719557524
1782814626235174000,3.293173828125,0.01545755472034216,0.0034167347475886345,0.0065116239711642265
1782814626255256000,3.313256103515625,0.021411370486021042,0.000795403029769659,-0.00592103973031044
1782814626275338000,3.333337890625,0.02455626055598259,-0.0018329732120037079,-0.022901033982634544
1782814626295419000,3.3534189453125,0.024177078157663345,-0.0017911435570567846,-0.03182871267199516
1782814626315501000,3.3735009765625,0.02415156550705433,-0.014912786893546581,-0.030843567103147507
1782814626335583000,3.3935830078125,0.020862407982349396,-0.018371839076280594,-0.01807878352701664
1782814626355664100,3.4136640625,0.018763359636068344,-0.005043765529990196,-0.00721278041601181
1782814626375746000,3.43374609375,0.017471369355916977,0.0015820595435798168,-0.007486805785447359
1782814626395828000,3.453827880859375,0.013705011457204819,0.005128287244588137,-0.005385901313275099
1782814626415909000,3.4739091796875,0.007327280472964048,0.007842937484383583,-0.0018359946552664042
1782814626435991000,3.493990966796875,0.004360506311058998,0.00821479968726635,0.002431894652545452
1782814626456073000,3.514072998046875,0.0001867680111899972,-0.008454734459519386,-0.006142185069620609
1782814626476154000,3.534154052734375,-0.0036798915825784206,-0.0001447894610464573,0.0042347293347120285
1782814626496236000,3.554236083984375,0.0018374400679022074,0.00993325375020504,0.008391076698899269
1782814626516318200,3.574318115234375,-0.00506866117939353,-0.018288441002368927,0.001577025162987411
1782814626536398800,3.59439892578125,-0.006788036320358515,-0.038813699036836624,-0.015310367569327354
1782814626556480800,3.614480712890625,-0.005343834403902292,-0.009552672505378723,-0.011411075480282307
1782814626576563000,3.63456298828125,-0.00816594809293747,0.01962653174996376,0.010014875791966915
1782814626596643800,3.654643798828125,0.002544836373999715,0.020710108801722527,0.029500041157007217
1782814626616726000,3.67472607421875,0.008476700633764267,-0.0027266154065728188,0.03497954457998276
1782814626636808000,3.694807861328125,0.003076700260862708,-0.016019221395254135,0.017242152243852615
1782814626656889000,3.71488916015625,0.005195419769734144,0.00032803043723106384,-0.008129843510687351
1782814626676971000,3.734970947265625,0.00534929009154439,-0.0036013061180710793,-0.02024025283753872
1782814626697052700,3.755052734375,0.005997800268232822,0.0012186700478196144,-0.00405931007117033
1782814626717133600,3.775133544921875,0.003108658129349351,-0.00338039081543684,0.006566337775439024
1782814626737215700,3.7952158203125,-0.01323988288640976,-0.00840255618095398,0.0035442367661744356
1782814626757297700,3.815297607421875,-0.029588842764496803,0.015406521037220955,-0.006951780058443546
1782814626777378600,3.835378662109375,-0.031524624675512314,0.021761290729045868,-0.01188808586448431
1782814626797460500,3.85546044921875,-0.026023447513580322,0.02193400263786316,0.007833165116608143
1782814626817542700,3.875542724609375,-0.02818443439900875,0.016850970685482025,0.02896990440785885
1782814626837623600,3.89562353515625,-0.02038622833788395,0.008404647931456566,0.01916286163032055
1782814626857705500,3.91570556640625,-0.02147696726024151,0.005513283424079418,-0.007091319188475609
1782814626877787600,3.93578759765625,-0.02040598914027214,0.02312844805419445,-0.017950456589460373
1782814626897868500,3.95586865234375,-0.014478233642876148,0.02374260313808918,-0.0011738133616745472
1782814626917950700,3.97595068359375,0.008825011551380157,0.003195534460246563,0.01333486009389162
1782814626938032600,3.99603271484375,0.01531136129051447,-0.014622271992266178,0.011056666262447834
1782814626958113800,4.01611376953125,0.01623285375535488,-0.0033577964641153812,-0.003770270384848118
1782814626978195700,4.03619580078125,0.009538602083921432,0.014273261651396751,-0.013343274593353271
1782814626998277600,4.056277587890625,0.007128123193979263,0.005536568816751242,-0.009923623874783516
1782814627018358800,4.07635888671875,0.01918112486600876,0.00003361143171787262,-0.004179054871201515
1782814627038440700,4.096440673828125,0.01263368222862482,-0.008460916578769684,-0.0055691758170723915
1782814627058522600,4.116522705078125,-0.002640877850353718,-0.014026124030351639,-0.01498211920261383
1782814627078604800,4.136604736328125,-0.007205132395029068,-0.0000960594043135643,-0.02726622112095356
1782814627098685700,4.156685791015625,-0.004921951796859503,0.025840485468506813,-0.0176021046936512
1782814627118767600,4.176767578125,-0.023490916937589645,-0.019085470587015152,-0.011075538583099842
1782814627138849800,4.196849853515625,-0.017934422940015793,-0.03706950694322586,-0.0151437409222126
1782814627158930400,4.216930419921875,0.0010171637404710054,0.001598794013261795,-0.012197218835353851
1782814627179012600,4.2370126953125,0.011271391995251179,0.03221999481320381,0.011652541346848011
1782814627199094500,4.257094482421875,0.0186272244900465,0.020468326285481453,0.04137033969163895
1782814627219175700,4.27717578125,0.02265249378979206,-0.012637285515666008,0.042643092572689056
1782814627239257600,4.297257568359375,0.02904556505382061,-0.02294997125864029,0.023661158978939056
1782814627259339500,4.317339599609375,0.03147122636437416,-0.010686095803976059,-0.0019240588881075382
1782814627279420700,4.337420654296875,0.026464276015758514,-0.0028309933841228485,-0.01182094682008028
1782814627299502600,4.357502685546875,0.014968360774219036,-0.006492167711257935,-0.022990498691797256
1782814627319584500,4.37758447265625,0.004609281197190285,-0.010052075609564781,-0.03390451893210411
1782814627339665700,4.397665771484375,-0.0064747268334031105,-0.009005519561469555,-0.031432975083589554
1782814627359747600,4.41774755859375,-0.016649600118398666,-0.004677882883697748,-0.027343159541487694
1782814627379829800,4.437829833984375,-0.02244233340024948,0.0025661508552730083,-0.019851481541991234
1782814627399910700,4.45791064453125,-0.018528666347265244,0.01148308627307415,-0.011992215178906918
1782814627419992600,4.47799267578125,-0.007770682219415903,0.010030646808445454,0.006213785149157047
1782814627440074800,4.49807470703125,0.00401265686377883,0.002387701068073511,0.03479468449950218
1782814627460155600,4.51815576171875,0.013848518021404743,-0.0010639303363859653,0.04871813580393791
1782814627480237800,4.53823779296875,0.01689712144434452,0.006334003992378712,0.039589498192071915
1782814627500319700,4.55831982421875,0.01693875901401043,0.010151408612728119,0.023006586357951164
1782814627520400600,4.578400634765625,0.0195907112210989,-0.0019239024259150028,0.0021295277401804924
1782814627540482600,4.598482666015625,0.021397149190306664,-0.007231666706502438,0.005471088923513889
1782814627560564700,4.618564697265625,0.018349578604102135,0.00007086014375090599,0.004917427897453308
1782814627580645600,4.638645751953125,-0.0007326853810809553,0.005815770942717791,-0.003307864535599947
1782814627600727600,4.6587275390625,-0.014761388301849365,-0.00043980684131383896,-0.012182474136352539
1782814627620809500,4.6788095703125,-0.013987457379698753,0.004755670204758644,-0.008935189805924892
1782814627640890600,4.698890625,-0.012634207494556904,0.010816436260938644,0.00174797885119915
1782814627660972500,4.71897265625,-0.016379114240407944,0.005335038993507624,-0.0008026883006095886
1782814627681054700,4.7390546875,-0.015215531922876835,-0.010124772787094116,-0.015889029949903488
1782814627701136000,4.759135986328125,-0.010201409459114075,0.010826556012034416,-0.007485999725759029
1782814627721217800,4.7792177734375,-0.007916904054582119,-0.0007519647479057312,0.008277717977762222
1782814627741300000,4.799300048828125,-0.0004371725954115391,-0.04187304526567459,0.010646061971783638
1782814627761380900,4.819380859375,0.006842806003987789,-0.019396863877773285,0.009080177173018456
1782814627781462800,4.839462890625,0.011210755445063114,0.002104110550135374,0.010758664458990097
1782814627801545000,4.859544921875,0.01227763295173645,-0.0006366325542330742,0.03200039640069008
1782814627821625900,4.8796259765625,0.009451381862163544,0.0009998450987040997,0.05233834683895111
1782814627841708000,4.8997080078125,-0.0005881287506781518,-0.015955854207277298,0.04901096224784851
1782814627861790000,4.9197900390625,-0.006550710182636976,-0.01673608273267746,0.022997362539172173
1782814627881870800,4.939870849609375,-0.008008569478988647,-0.005403636954724789,-0.004340985789895058
1782814627901952800,4.959952880859375,-0.007259179838001728,0.007646555081009865,-0.01149709615856409
1782814627922034700,4.98003466796875,-0.0011434056796133518,0.01464031171053648,0.007714476436376572
1782814627942115800,5.00011572265625,0.0036179383751004934,-0.01015473436564207,0.026163088157773018
1782814627962197800,5.02019775390625,0.0014326630625873804,-0.036315105855464935,0.011101039126515388
1782814627982279700,5.04027978515625,-0.010167527012526989,-0.027896761894226074,-0.025483423843979836
1782814628002360800,5.06036083984375,-0.016163688153028488,0.007199421990662813,-0.03973670303821564
1782814628022442800,5.08044287109375,-0.010176018811762333,0.014138493686914444,-0.022101102396845818
1782814628042525000,5.10052490234375,0.003110849764198065,-0.0019427072256803513,0.005430450662970543
1782814628062605800,5.120605712890625,0.005800292827188969,-0.014435801655054092,0.017304273322224617
1782814628082687700,5.140687744140625,-0.0007731044897809625,-0.0030061076395213604,0.010425475426018238
1782814628102770000,5.16077001953125,-0.007443821057677269,0.01155666820704937,-0.0025285142473876476
1782814628122850800,5.180850830078125,-0.006211606785655022,0.00701286131516099,-0.004596035461872816
1782814628142933000,5.20093310546875,0.006158959586173296,0.01446524541825056,0.005305450409650803
1782814628163015000,5.221014892578125,0.013290448114275932,0.003483815584331751,0.023763787001371384
1782814628183095800,5.241095703125,0.008262377232313156,0.004923689644783735,0.03162923827767372
1782814628203178000,5.261177978515625,0.0036527421325445175,0.002409321255981922,0.012572033330798149
1782814628223260000,5.281260009765625,0.0038974208291620016,-0.00584250595420599,-0.014685211703181267
1782814628243340800,5.3013408203125,0.004562128335237503,0.013406905345618725,-0.02522902376949787
1782814628263423000,5.321423095703125,-0.0016455634031444788,0.011029459536075592,-0.02011929638683796
1782814628283505000,5.3415048828125,-0.00339041231200099,-0.0112302890047431,-0.011797412298619747
1782814628303585800,5.361585693359375,0.011429492384195328,-0.013623956590890884,-0.015720287337899208
1782814628323667700,5.381667724609375,0.01669306308031082,-0.0012206945102661848,-0.015827372670173645
1782814628343750000,5.40175,0.0002192370011471212,-0.016325270757079124,-0.02489582821726799
1782814628363830800,5.421830810546875,-0.0058173369616270065,-0.03867797553539276,-0.039977557957172394
1782814628383912700,5.44191259765625,0.003585935104638338,-0.0011188224889338017,-0.029503226280212402
1782814628403995000,5.461994873046875,0.00878063589334488,0.035009246319532394,0.01435082871466875
1782814628424075800,5.48207568359375,0.008985860273241997,0.025079969316720963,0.04818640649318695
1782814628444158000,5.502157958984375,0.015173502266407013,0.007505255285650492,0.03393267095088959
1782814628464239900,5.522239990234375,0.016234148293733597,0.00328349182382226,-0.0037057686131447554
1782814628484320800,5.54232080078125,0.014243731275200844,0.009255552664399147,-0.023060716688632965
1782814628504403000,5.56240283203125,0.016833312809467316,0.012210836634039879,-0.01824789308011532
1782814628524484900,5.58248486328125,0.02226865664124489,0.0020398134365677834,-0.01320762187242508
1782814628544566000,5.60256591796875,0.02125287428498268,0.0024139699526131153,-0.011538923718035221
1782814628564648000,5.62264794921875,0.013693863525986671,0.009299076162278652,-0.017524035647511482
1782814628584729900,5.642729736328125,0.0015686129918321967,0.007781559135764837,-0.027766650542616844
1782814628604811000,5.66281103515625,0.0030007322784513235,0.006811592262238264,-0.03799406811594963
1782814628624893000,5.682892822265625,0.004571768455207348,-0.001709977863356471,-0.037479788064956665
1782814628644974800,5.702974853515625,0.0005840890808030963,-0.0006101350300014019,-0.02405674196779728
1782814628665055700,5.7230556640625,-0.002273307181894779,-0.0008807422127574682,-0.013425995595753193
1782814628685138200,5.74313818359375,-0.004679055884480476,-0.0011940568219870329,-0.01612003892660141
1782814628705220000,5.76322021484375,-0.009599017910659313,-0.0127858342602849,-0.02543732151389122
1782814628725301200,5.78330126953125,-0.005992411635816097,0.002360324840992689,-0.018538732081651688
1782814628745383200,5.803383056640625,-0.0059481896460056305,0.026552395895123482,-0.014617133885622025
1782814628765465300,5.82346533203125,0.0040784901939332485,0.021566208451986313,-0.009551438502967358
1782814628785546200,5.843546142578125,0.014013687148690224,0.0031798342242836952,-0.00506170280277729
1782814628805628400,5.86362841796875,0.015230851247906685,0.0068862768821418285,-0.0005149159114807844
1782814628825710300,5.88371044921875,0.019357897341251373,0.008707151748239994,0.0017728926613926888
1782814628845791200,5.903791259765625,0.022786017507314682,-0.0013365719933062792,-0.0009097368456423283
1782814628865873400,5.923873291015625,0.018576230853796005,0.007227578666061163,-0.004112269263714552
1782814628885955300,5.943955322265625,0.011951768770813942,0.007685515563935041,-0.006952785886824131
1782814628906036200,5.9640361328125,0.0197914969176054,-0.0034834551624953747,-0.02226211503148079
1782814628926118100,5.9841181640625,0.015762904658913612,-0.0007168850861489773,-0.020711731165647507
1782814628946200000,6.004199951171875,0.005420076660811901,0.0023364597000181675,-0.017726000398397446
1782814628966281200,6.02428125,-0.013975816778838634,-0.015997836366295815,-0.03362193703651428
1782814628986363100,6.044363037109375,-0.016520937904715538,-0.03464091941714287,-0.040284413844347
1782814629006445000,6.064445068359375,-0.003151550656184554,-0.009561115875840187,-0.020962877199053764
1782814629026526200,6.084526123046875,0.0014143246226012707,0.02068454399704933,0.010566829703748226
1782814629046608100,6.104608154296875,0.00253497576341033,0.007384093478322029,0.03227567672729492
1782814629066690300,6.124690185546875,0.007148285396397114,-0.011435339227318764,0.025767561048269272
1782814629086771200,6.144771240234375,0.017355382442474365,-0.008364981040358543,0.011091679334640503
1782814629106853000,6.16485302734375,0.008165630511939526,0.005899980664253235,0.005289732478559017
1782814629126935300,6.184935302734375,0.006628223694860935,0.024685664102435112,0.0011179129360243678
1782814629147017200,6.205017333984375,0.009409896098077297,0.001017086673527956,0.007071409374475479
1782814629167098400,6.225098388671875,0.014389414340257645,0.010373728349804878,0.02472049370408058
1782814629187180300,6.24518017578125,0.005056038498878479,-0.01017000526189804,0.018832558766007423
1782814629207262200,6.26526220703125,-0.0014224057085812092,0.001903332769870758,0.008015918545424938
1782814629227343400,6.28534326171875,-0.007620532996952534,0.02365509420633316,0.004372436553239822
1782814629247425300,6.30542529296875,-0.004347431007772684,0.01524228323251009,0.005485072731971741
1782814629267507200,6.325507080078125,0.006548161152750254,0.006312371231615543,0.012415546923875809
1782814629287588000,6.345588134765625,0.012099162675440311,-0.011660268530249596,0.011775797232985497
1782814629307670000,6.365669921875,0.011355401948094368,-0.0023641283623874187,0.007068343926221132
1782814629327752200,6.385752197265625,0.011122429743409157,0.005409390199929476,-0.001258257543668151
1782814629347833000,6.4058330078125,0.015364602208137512,0.00993100181221962,0.0036844988353550434
1782814629367915300,6.425915283203125,0.014049206860363483,0.004669551737606525,0.0009465516777709126
1782814629387997200,6.4459970703125,0.016460293903946877,0.007413448765873909,-0.009804547764360905
1782814629408078000,6.466078125,0.017377153038978577,0.0009857099503278732,-0.018874339759349823
1782814629428160300,6.48616015625,0.008097817189991474,-0.00004087807610630989,-0.013914613984525204
1782814629448242200,6.5062421875,0.004434844478964806,0.012596512213349342,-0.005471813026815653
1782814629468323300,6.5263232421875,0.00751230213791132,0.019651193171739578,-0.0013602178078144789
1782814629488405200,6.5464052734375,0.016430672258138657,0.009717240929603577,0.0011397615307942033
1782814629508487200,6.566487060546875,0.007551130838692188,-0.01612786017358303,-0.010005409829318523
1782814629528568300,6.586568359375,0.001963697373867035,-0.011294441297650337,-0.027178971096873283
1782814629548650200,6.606650146484375,0.0009078386356122792,0.0009557735174894333,-0.015115239657461643
1782814629568732200,6.626732177734375,-0.0008338319603353739,-0.008792715147137642,0.017033131793141365
1782814629588814300,6.646814453125,-0.005422595422714949,-0.037347085773944855,0.008735869079828262
1782814629608895200,6.666895263671875,-0.005699009168893099,-0.01680123433470726,-0.024223215878009796
1782814629628977400,6.686977294921875,-0.008693747222423553,0.00006544869393110275,-0.023231813684105873
1782814629649059300,6.707059326171875,-0.008446653373539448,0.004854417406022549,0.007539022713899612
1782814629669140200,6.72714013671875,-0.009974858723580837,0.007185809779912233,0.016449546441435814
1782814629689221600,6.7472216796875,-0.016493136063218117,-0.008770671673119068,-0.005931692197918892
1782814629709303600,6.767303466796875,-0.022066574543714523,-0.012278490699827671,-0.02553475834429264
1782814629729384700,6.787384765625,-0.02089587412774563,-0.003378569148480892,-0.017932161688804626
1782814629749466600,6.807466552734375,-0.008250596933066845,-0.011160841211676598,-0.0008319669868797064
1782814629769548500,6.827548583984375,0.00200962508097291,0.007423538248986006,0.016805164515972137
1782814629789629700,6.847629638671875,0.0011857467470690608,-0.0029226294718682766,0.02366376668214798
1782814629809711600,6.867711669921875,-0.0030803834088146687,-0.01264414843171835,0.019471315667033195
1782814629829793800,6.887793701171875,-0.0014984726440161467,-0.011362992227077484,0.015179985202848911
1782814629849874700,6.907874755859375,0.0012786481529474258,0.0023212977685034275,0.019157487899065018
1782814629869956600,6.92795654296875,0.0047326236963272095,0.001620305236428976,0.020445825532078743
1782814629890038800,6.948038818359375,-0.004554998595267534,0.006113463081419468,0.01079773623496294
1782814629910119700,6.96811962890625,-0.009431823156774044,0.0074092550203204155,0.00002291891723871231
1782814629930201900,6.988201904296875,-0.005327656399458647,-0.00688624894246459,-0.004477133043110371
1782814629950283800,7.00828369140625,-0.00029619329143315554,-0.00235613901168108,0.006244361400604248
1782814629970365000,7.028364990234375,0.0008850869489833713,0.0010208943858742714,0.01811542920768261
1782814629990446800,7.04844677734375,0.0021643484942615032,0.004814349580556154,0.013623307459056377
1782814630010528800,7.06852880859375,0.007935219444334507,-0.005119840614497662,0.005492540542036295
1782814630030609700,7.088609619140625,0.013987937942147255,-0.001737220212817192,0.007606036029756069
1782814630050691600,7.108691650390625,0.01733309030532837,-0.004514733795076609,0.00933502521365881
1782814630070773800,7.128773681640625,0.011752884835004807,-0.0018275442998856306,-0.003937783185392618
1782814630090854700,7.148854736328125,-0.0040499866008758545,-0.00841742753982544,-0.01987232267856598
1782814630110936600,7.1689365234375,-0.012487879022955894,0.001927555538713932,-0.01641940511763096
1782814630131018800,7.189018798828125,-0.015707967802882195,-0.006441803649067879,-0.011933793313801289
1782814630151099600,7.209099609375,-0.004705185070633888,-0.012487112544476986,-0.004615291487425566
1782814630171181600,7.229181640625,0.0013838588492944837,-0.0028511779382824898,0.006935533136129379
1782814630191263700,7.249263671875,-0.009825287386775017,0.00018077529966831207,0.016810165718197823
1782814630211344600,7.2693447265625,-0.011385451070964336,-0.02664039097726345,0.002893137978389859
1782814630231426800,7.2894267578125,-0.0037185982801020145,-0.023113518953323364,-0.007794828619807959
1782814630251508700,7.3095087890625,-0.002220995957031846,0.0024964497424662113,0.010457830503582954
1782814630271590700,7.329590576171875,0.007533317897468805,0.0205704215914011,0.03014105185866356
1782814630291671800,7.349671875,0.017119741067290306,0.008115118369460106,0.039038218557834625
1782814630311753700,7.369753662109375,0.009984605945646763,-0.015592781826853752,0.030228927731513977
1782814630331835600,7.389835693359375,0.0009247215348295867,-0.017240062355995178,0.0038703219033777714
1782814630351916800,7.409916748046875,0.00017849632422439754,-0.002481713192537427,-0.02571704238653183
1782814630371998700,7.429998779296875,0.0037444154731929302,0.001958823762834072,-0.025184184312820435
1782814630392081000,7.450080810546875,0.011233102530241013,0.00006216811016201973,0.0002981051802635193
1782814630412161800,7.470161865234375,0.013642421923577785,-0.009725583717226982,0.017901398241519928
1782814630432243700,7.49024365234375,0.009107839316129684,-0.012901675887405872,0.017289655283093452
1782814630452326000,7.510325927734375,-0.00408229511231184,0.0031071966513991356,-0.007299154996871948
1782814630472406500,7.530406494140625,-0.012411468662321568,0.016032624989748,-0.022948339581489563
1782814630492488700,7.55048876953125,-0.009489105083048344,0.0012889471836388111,-0.015196975320577621
1782814630512570600,7.570570556640625,0.003724913578480482,-0.0043431236408650875,0.009671583771705627
1782814630532651800,7.59065185546875,0.008786595426499844,-0.009998763911426067,0.018549464643001556
1782814630552733700,7.610733642578125,0.0028029808308929205,-0.010782362893223763,-0.0016561339143663645
1782814630572815600,7.630815673828125,0.003411573823541403,0.009021278470754623,-0.0345747172832489
1782814630592896800,7.650896728515625,0.013905349187552929,0.009869180619716644,-0.04846985638141632
1782814630612978700,7.670978759765625,0.024097943678498268,-0.016015365719795227,-0.020629607141017914
1782814630633060600,7.691060546875,0.023430082947015762,-0.03406722843647003,0.023450186476111412
1782814630653141800,7.711141845703125,0.015952423214912415,-0.026722773909568787,0.040746599435806274
1782814630673223700,7.7312236328125,-0.0036060838028788567,-0.00013146176934242249,0.014078060165047646
1782814630693306000,7.75130615234375,-0.01320034172385931,0.0152873694896698,-0.0005241921171545982
1782814630713387300,7.77138720703125,-0.013415609486401081,-0.008424557745456696,0.013380290940403938
1782814630733469200,7.79146923828125,-0.0014638751745224,-0.015003629960119724,0.03089297190308571
1782814630753551400,7.81155126953125,-0.003832840593531728,-0.0036190885584801435,0.025214167311787605
1782814630773632000,7.831632080078125,-0.013617164455354214,-0.008265462704002857,0.0012500588782131672
1782814630793714000,7.8517138671875,-0.009162777103483677,-0.01605832204222679,-0.015359636396169662
1782814630813796000,7.871796142578125,-0.003928455524146557,-0.0010692034848034382,-0.0027382844127714634
1782814630833877000,7.891876953125,-0.005836533848196268,-0.014284849166870117,0.007547152228653431
1782814630853959200,7.911959228515625,-0.006608470808714628,-0.030692722648382187,-0.0028953792061656713
1782814630874041000,7.932041015625,-0.007485426962375641,-0.0013906648382544518,-0.02079508826136589
1782814630894122200,7.952122314453125,-0.007764365524053574,0.004453340545296669,-0.011645874008536339
1782814630914204200,7.9722041015625,0.006355173420161009,0.006606681272387505,0.02051348239183426
1782814630934286000,7.9922861328125,0.013179903849959373,-0.003509209491312504,0.03614223003387451
1782814630954367200,8.0123671875,0.010027170181274414,-0.014527978375554085,0.009553084149956703
1782814630974449200,8.03244921875,0.0052200425416231155,-0.010843711905181408,-0.028947070240974426
1782814630994531000,8.052531005859375,0.01307828538119793,-0.009781092405319214,-0.03219183161854744
1782814631014612200,8.0726123046875,0.03662821650505066,-0.003500250866636634,-0.004312713630497456
1782814631034694100,8.092694091796876,0.05087786167860031,-0.0034499599132686853,0.007498857565224171
1782814631054776000,8.112776123046874,0.03352542221546173,-0.025396477431058884,-0.005955845583230257
1782814631074857200,8.132857177734374,0.005167115014046431,-0.020415179431438446,-0.015019675716757774
1782814631094939100,8.152939208984375,-0.007058118004351854,-0.0007219878025352955,-0.009880469180643559
1782814631115021300,8.173021240234375,0.0005596716655418277,0.007111284416168928,0.01705523021519184
1782814631135102000,8.19310205078125,0.0015878791455179453,0.005031874869018793,0.0327012799680233
1782814631155184000,8.21318408203125,0.003111412515863776,-0.00030840467661619186,0.029604604467749596
1782814631175266000,8.23326611328125,0.003956806845963001,-0.0006633680313825607,0.012957794591784477
1782814631195347000,8.253346923828126,0.0005494746146723628,-0.00436057336628437,0.004487463738769293
1782814631215429000,8.27342919921875,-0.00516922865062952,0.001483255997300148,-0.0017346437089145184
1782814631235511000,8.293510986328124,-0.00664213253185153,0.005450952798128128,-0.00961335375905037
1782814631255593000,8.313593017578125,0.004291071556508541,0.0014141765423119068,-0.010890524834394455
1782814631275674000,8.333674072265625,0.007781920488923788,-0.0035295456182211637,-0.0026482378598302603
1782814631295756000,8.353756103515625,0.004796791356056929,0.008511762134730816,-0.0016815976705402136
1782814631315838200,8.373838134765625,-0.0034269974566996098,0.007663562893867493,-0.008532807230949402
1782814631335919000,8.393919189453126,-0.006541258189827204,0.0062020327895879745,0.00034459447488188744
1782814631356001000,8.4140009765625,-0.007851039990782738,0.006500560790300369,0.009319426491856575
1782814631376083200,8.434083251953124,-0.0051452768966555595,0.010679235681891441,0.0094489436596632
1782814631396164000,8.4541640625,-0.017739251255989075,-0.0009077850263565779,-0.006054393015801907
1782814631416246300,8.474246337890625,-0.012957530096173286,-0.0017683366313576698,-0.010485534556210041
1782814631436328200,8.494328125,0.002983393147587776,0.010067563503980637,0.010820839554071426
1782814631456409000,8.5144091796875,-0.004402543883770704,-0.007195465266704559,0.028926042839884758
1782814631476491300,8.5344912109375,-0.014237490482628345,-0.03039795346558094,0.01703883334994316
1782814631496573200,8.5545732421875,-0.0037985772360116243,0.005851081572473049,0.022279836237430573
1782814631516654300,8.574654296875,0.011141483671963215,0.018563324585556984,0.047194063663482666
1782814631536736300,8.594736328125,0.0243589635938406,0.021127130836248398,0.06211491674184799
1782814631556818200,8.614818115234375,0.02708076871931553,0.006032618228346109,0.04196068271994591
1782814631576899000,8.634899169921875,0.02092369832098484,-0.002905252855271101,0.0034888489171862602
1782814631596981000,8.65498095703125,0.017165735363960266,0.00016919756308197975,-0.02049165405333042
1782814631617063200,8.675063232421875,0.014695364981889725,0.006059745792299509,-0.012623808346688747
1782814631637144000,8.69514404296875,0.0012832744978368282,0.0105955945327878,-0.01851082406938076
1782814631657226000,8.71522607421875,-0.007442017551511526,0.013308651745319366,-0.027302788570523262
1782814631677308200,8.73530810546875,-0.01500117126852274,0.002584623172879219,-0.00964578427374363
1782814631697388300,8.75538818359375,-0.01481420174241066,0.004313196986913681,0.0009683348471298814
1782814631717470500,8.775470458984374,-0.0201374813914299,0.008212191984057426,0.009830258786678314
1782814631737552400,8.795552490234375,-0.020023886114358902,0.001580702606588602,0.013564109802246094
1782814631757633500,8.815633544921875,-0.02209259197115898,0.0013815108686685562,0.016079485416412354
1782814631777715500,8.835715576171875,-0.028060048818588257,0.0005479049868881702,0.010898508131504059
1782814631797797400,8.85579736328125,-0.032005004584789276,0.007292620837688446,0.002708205720409751
1782814631817878500,8.87587841796875,-0.029568159952759743,-0.00022289110347628593,-0.006270529702305794
1782814631837960400,8.89596044921875,-0.01447533443570137,-0.00831139087677002,0.0007456840248778462
1782814631858042400,8.91604248046875,-0.000197814020793885,0.0028534838929772377,0.01801062375307083
1782814631878123500,8.93612353515625,0.010974115692079067,0.0027548479847609997,0.03419500216841698
1782814631898205400,8.956205322265625,0.020671825855970383,-0.00021135667338967323,0.04100794345140457
1782814631918287600,8.97628759765625,0.022763511165976524,-0.012212878093123436,0.03081924468278885
1782814631938368500,8.996368408203125,0.017728561535477638,-0.021468866616487503,0.006159901153296232
1782814631958450400,9.016450439453125,0.018399298191070557,0.004778590053319931,-0.004834949038922787
1782814631978532600,9.03653271484375,0.014505244791507721,0.0034060939215123653,-0.005379369482398033
1782814631998613500,9.056613525390626,-0.0028343910817056894,-0.007595799397677183,-0.024279506877064705
1782814632018695700,9.07669580078125,-0.015581238083541393,-0.010431230999529362,-0.047378093004226685
1782814632038777600,9.096777587890625,-0.008693276904523373,-0.010907240211963654,-0.034657448530197144
1782814632058858800,9.116858642578125,-0.009614122100174427,-0.009950784966349602,-0.009334282018244267
1782814632078940700,9.136940673828125,-0.01952817477285862,-0.007290875539183617,-0.012679614126682281
1782814632099022600,9.157022705078125,-0.01999390684068203,-0.015261255204677582,-0.04370689392089844
1782814632119103500,9.177103515625,-0.011979708448052406,0.000837269239127636,-0.032887570559978485
1782814632139185400,9.197185302734376,0.011238048784434795,0.013558141887187958,0.01854902319610119
1782814632159267300,9.217267333984376,0.03510748967528343,0.014531636610627174,0.055765584111213684
1782814632179348500,9.237348388671874,0.032452940940856934,-0.009144366718828678,0.028497539460659027
1782814632199430400,9.257430419921874,0.011161244474351406,-0.012549127452075481,-0.03116348385810852
1782814632219512600,9.2775126953125,-0.000403510668547824,-0.01313998643308878,-0.06263145804405212
1782814632239593500,9.297593505859375,0.0012871555518358946,-0.0007725025061517954,-0.04049387574195862
1782814632259675400,9.31767529296875,-0.009010490030050278,0.019007593393325806,-0.004134537652134895
1782814632279757600,9.337757568359375,-0.020792176946997643,0.011976804584264755,0.005470870994031429
1782814632299838500,9.35783837890625,-0.029600050300359726,-0.019975801929831505,-0.003205707762390375
1782814632319920600,9.377920654296876,-0.02373809739947319,-0.014760332182049751,-0.014702710323035717
1782814632340002600,9.39800244140625,-0.016537237912416458,0.0053280494175851345,-0.01086983922868967
1782814632360083500,9.41808349609375,-0.010279402136802673,0.007415858097374439,0.006174174137413502
1782814632380165600,9.43816552734375,-0.005976768676191568,0.006238129921257496,0.01527510304003954
1782814632400247600,9.45824755859375,-0.002804738702252507,0.009739011526107788,0.016056522727012634
1782814632420328700,9.47832861328125,-0.00493135629221797,-0.012097516097128391,0.013173770159482956
1782814632440410600,9.49841064453125,-0.006169961765408516,-0.0163477323949337,0.012191439047455788
1782814632460492500,9.518492431640626,-0.003682333743199706,-0.0040414538234472275,0.004592532757669687
1782814632480573400,9.538573486328126,-0.008615459315478802,-0.0014596586115658283,-0.00144912488758564
1782814632500655400,9.5586552734375,-0.015838824212551117,0.002778648864477873,0.009440572001039982
1782814632520737500,9.578737548828125,-0.013322809711098671,-0.0014559123665094376,0.020337434485554695
1782814632540818400,9.598818359375,-0.004980898927897215,0.006643856409937143,0.027224961668252945
1782814632560900400,9.618900390625,-0.004937943536788225,0.001169488299638033,0.03475002944469452
1782814632580982500,9.638982421875,0.0016081115463748574,-0.00020478945225477219,0.03555361554026604
1782814632601063400,9.6590634765625,0.008152153342962265,-0.006468592211604118,0.014768075197935104
1782814632621145600,9.6791455078125,0.002471569227054715,-0.008605888113379478,-0.003989850170910358
1782814632641227500,9.6992275390625,0.004948521964251995,-0.0006965843494981527,-0.00691057788208127
1782814632661308400,9.719308349609374,0.0029780797194689512,-0.0025182650424540043,0.0028396297711879015
1782814632681390600,9.739390625,-0.008725919760763645,-0.02030833810567856,0.0076021114364266396
1782814632701472500,9.759472412109375,-0.01385775487869978,-0.010564250871539116,-0.0030249988194555044
1782814632721553700,9.7795537109375,-0.00955824926495552,0.0010733525268733501,0.001201676786877215
1782814632741635600,9.799635498046875,0.006686348933726549,0.008637921884655952,0.025053469464182854
1782814632761717500,9.819717529296875,0.0175620149821043,0.00563347153365612,0.04510732740163803
1782814632781798400,9.83979833984375,0.02192922681570053,-0.005883937235921621,0.030393019318580627
1782814632801880300,9.85988037109375,0.016238613054156303,-0.00605951901525259,-0.009235240519046783
1782814632821962200,9.879962158203124,0.009544522501528263,-0.011907367035746574,-0.042315322905778885
1782814632842043400,9.90004345703125,0.008575892075896263,-0.00896485149860382,-0.04129162058234215
1782814632862125300,9.920125244140625,0.009557153098285198,0.007612399756908417,-0.026033297181129456
1782814632882207500,9.94020751953125,0.008257552981376648,0.013846424408257008,-0.011427792720496655
1782814632902288400,9.960288330078125,0.005170500837266445,-0.002228211145848036,-0.00735380919650197
1782814632922370600,9.98037060546875,0.0012425507884472609,0.0019753044471144676,-0.00929316133260727
1782814632942452500,10.000452392578126,-0.004640021827071905,-0.0015342698898166418,-0.01711471751332283
1782814632962533400,10.020533447265626,-0.005613878834992647,-0.010537242516875267,-0.03244498744606972
1782814632982615600,10.040615478515624,-0.007710875011980534,0.02362835220992565,-0.024082591757178307
1782814633002697500,10.060697509765625,-0.003842616220936179,-0.0019822840113192797,-0.010229535400867462
1782814633022778600,10.080778564453125,-0.011760028079152107,-0.017216486856341362,0.009397723712027073
1782814633042860500,10.100860595703125,-0.009037220850586891,0.006200065370649099,0.007057690992951393
1782814633062942500,10.1209423828125,-0.006440965924412012,0.01858818158507347,0.004692320711910725
1782814633083023600,10.141023681640625,0.0029955122154206038,-0.009384209290146828,0.012277241796255112
1782814633103105500,10.16110546875,0.011518091894686222,0.00007274234667420387,0.036267928779125214
1782814633123187500,10.1811875,0.008023081347346306,0.012296335771679878,0.032542869448661804
1782814633143268600,10.2012685546875,0.001045180018991232,0.0021772505715489388,0.0023575276136398315
1782814633163350500,10.2213505859375,0.004184941295534372,0.019913600757718086,0.008108546957373619
1782814633183432700,10.2414326171875,0.012009963393211365,0.019903432577848434,0.043163105845451355
1782814633203513300,10.261513427734375,0.011982463300228119,-0.005303586833178997,0.05544281005859375
1782814633223595300,10.28159521484375,0.0002620966115500778,-0.042663317173719406,0.0219365656375885
1782814633243677400,10.301677490234376,-0.0011018830118700862,-0.014992778189480305,-0.018922390416264534
1782814633263758300,10.32175830078125,-0.013347233645617962,0.00023601902648806572,-0.03153743967413902
1782814633283840500,10.341840576171874,-0.027499454095959663,-0.04348888248205185,-0.04686617851257324
1782814633303922400,10.36192236328125,-0.031244749203324318,-0.057743221521377563,-0.06590011715888977
1782814633324003600,10.382003662109375,-0.020047703757882118,-0.031880445778369904,-0.06349684298038483
1782814633344085500,10.40208544921875,-0.02318425104022026,0.011418777517974377,-0.039660584181547165
