time,seconds_elapsed,z,y,x
1782814634523762400,0.060762451171875,-0.13398060042262078,0.05004135736748576,0.07541742536015808
1782814634543844400,0.08084423828125,-0.2412503040522337,0.10338467888981104,0.09652936963494867
1782814634563926500,0.100926513671875,-0.13733926320075987,0.027886954835057258,0.03969868092089891
1782814634584007400,0.12100732421875,0.055520227169990534,-0.007367460028082132,-0.0050295551324263214
1782814634604089600,0.141089599609375,0.1538999373793602,-0.04534077846109867,0.030413404572755095
1782814634624171500,0.161171630859375,0.0692331107020378,-0.016446546279639006,0.03331957434304059
1782814634644252400,0.18125244140625,-0.09544073414802551,0.021451807221025226,0.007413856453076005
1782814634664334600,0.20133447265625,-0.059497898629307745,-0.010829875441640616,-0.018039222298562526
1782814634684416500,0.22141650390625,0.029998832422494886,-0.03155512195378542,-0.017944383621960876
1782814634704496600,0.24149658203125,0.04985094936192035,-0.06719649030789733,-0.015792977741733192
1782814634724578600,0.26157861328125,-0.03132978876531124,-0.047088352780789135,-0.024399587643332776
1782814634744660700,0.28166064453125,-0.11985036826133727,-0.019129501753300426,-0.023781309614516792
1782814634764741600,0.30174169921875,-0.11400573388636112,-0.018162848678231237,0.005448986120894551
1782814634784823600,0.321823486328125,-0.04093172984719276,-0.030476240675896403,0.0020961685616523026
1782814634804905700,0.34190576171875,0.012166238611936568,-0.04283624829426408,0.0037619828820228576
1782814634824986600,0.361986572265625,-0.020669863063097,-0.006646890668570995,0.029457126761227845
1782814634845068800,0.38206884765625,0.007921440649032592,0.038718291581422086,0.024798341169953345
1782814634865149700,0.402149658203125,0.020930559825897217,0.002134381680190563,0.02065009891670197
1782814634885231600,0.422231689453125,0.014564531925320624,0.006964432185143232,-0.04731759495940059
1782814634905313800,0.442313720703125,0.031814941933751104,0.01515270707681775,-0.012597506168670952
1782814634925394400,0.46239453125,-0.06335398953557014,0.04049582264795899,0.004034698876179754
1782814634945476600,0.4824765625,-0.0394184026747942,0.0608045973137021,-0.01468088831398636
1782814634965558500,0.50255859375,-0.027242227190732955,-0.006283025792241096,-0.02814958782661706
1782814634985639700,0.5226396484375,0.06268354292809963,0.0003850537948310375,-0.021313750457204877
1782814635005721600,0.5427216796875,0.07237316229343414,-0.044144116022437806,-0.0005951894141733646
1782814635025803500,0.562803466796875,-0.0010644143611192702,-0.01748012711107731,-0.01620444461945444
1782814635045885400,0.582885498046875,-0.1055494557082653,0.008878741373866796,0.014702369493432342
1782814635065966600,0.602966552734375,-0.02200608010292053,-0.0227383399002254,0.0010590075336396694
1782814635086048500,0.623048583984375,0.11443126582205294,-0.06204100724086165,0.040205205670930444
1782814635106129700,0.643129638671875,-0.02384264788031578,-0.05842077091708779,0.03569832270573824
1782814635126211600,0.663211669921875,-0.2009948660314083,0.017082944487035272,-0.008447875675931572
1782814635146293800,0.683293701171875,-0.24456220507919788,0.03983165965080261,0.02412760230153799
1782814635166374700,0.703374755859375,-0.10631284129619598,0.04151376751884818,0.016783486616425217
1782814635186456600,0.72345654296875,0.10553367361724376,-0.05098652926310897,0.036978498709388075
1782814635206538800,0.743538818359375,0.1883241850286722,-0.05727276992574334,-0.0023545637695118783
1782814635226619600,0.76361962890625,0.12652560824155806,-0.01839636517316103,-0.021759302267618477
1782814635246701800,0.783701904296875,-0.0050660512179136275,0.01068652144819498,0.008876074492745101
1782814635266783700,0.80378369140625,-0.08910334782004356,0.05704246830120682,0.027179537218064067
1782814635286864600,0.82386474609375,-0.0458405446767807,0.028134645985811946,0.07747030276935547
1782814635306946600,0.843946533203125,-0.019864391899108887,0.009853285494446754,0.047349561000242825
1782814635327028500,0.864028564453125,-0.029170564904808998,-0.04797288053035736,0.008909246109984814
1782814635347109600,0.884109619140625,-0.09936755220293998,-0.056704030127078295,-0.05341350068170577
1782814635367191600,0.904191650390625,-0.1110825399160385,-0.02489478728175163,0.0071757003156468265
1782814635387273500,0.9242734375,-0.06362053151726722,-0.007335603585094213,0.003994038072228432
1782814635407354600,0.944354736328125,0.03645312312841415,-0.025223580844700336,0.0037937662597745656
1782814635427436500,0.9644365234375,0.0577308889567852,-0.03168006350770593,0.006570902822911739
1782814635447518500,0.9845185546875,0.051096565508842465,0.02243380399569869,0.031320874806493516
1782814635467599600,1.004599609375,-0.02000876880586147,0.07625760251134633,0.01087075544130057
1782814635487681500,1.024681640625,-0.0436316364556551,0.04515183176025748,-0.019317425540834664
1782814635507763700,1.044763671875,-0.03718552905619144,0.03668751640617847,-0.0039166619870811695
1782814635527844600,1.0648447265625,-0.038893502017855644,0.03762172851637006,0.037916875538043675
1782814635547926800,1.0849267578125,-0.059168812805414195,0.04328209236562252,-0.00902425079178065
1782814635568008700,1.1050087890625,-0.020848142239451407,0.012189911748468875,-0.0072478887690231196
1782814635588089600,1.125089599609375,0.03977379198372364,-0.026025837138295174,-0.032971089698933066
1782814635608171800,1.145171875,0.06267360605597495,-0.028566753792762755,-0.0012337430460378526
1782814635628253700,1.165253662109375,0.016921908706426618,0.006318389366567134,-0.014967888561822473
1782814635648334800,1.1853349609375,-0.029689620342850682,-0.01505509192124009,-0.08206950366050005
1782814635668416800,1.205416748046875,-0.06295709917247296,-0.07603767615035176,-0.01859188774526119
1782814635688498700,1.225498779296875,-0.08893675908148288,-0.017269406969845295,0.03740921827685088
1782814635708579800,1.245579833984375,-0.1721206537246704,0.02543254742026329,0.06218669932186603
1782814635728661800,1.265661865234375,-0.15521394258737564,0.057484659110754725,0.03951477572135627
1782814635748743700,1.28574365234375,-0.07417641232311725,0.04782689618840814,0.03481021475959569
1782814635768824800,1.305824951171875,0.06924480113983154,0.01597995168119669,0.04260039371177554
1782814635788906800,1.32590673828125,0.1861632076025009,0.006063683953136206,0.04152173162959516
1782814635808989000,1.345989013671875,0.13235153791606424,0.02636281400769949,0.027782909938693045
1782814635829069800,1.36606982421875,0.012923778980970382,-0.01604074195772409,-0.015470979245752095
1782814635849151700,1.38615185546875,-0.07918985657095909,0.010082418075203894,-0.04795311638396233
1782814635869233000,1.40623291015625,-0.012184358790516853,-0.043388036958128214,-0.009662877488881349
1782814635889314800,1.426314697265625,-0.029124387675523757,-0.041226182749122375,-0.02812237102612853
1782814635909397000,1.44639697265625,-0.14229250169396399,-0.04246756111234426,-0.020675452553667126
1782814635929477600,1.4664775390625,-0.17123101140856742,0.0061466860614717,0.008527407185547054
1782814635949559800,1.486559814453125,-0.08882043922543525,0.011897212412208319,0.0601369271852076
1782814635969641700,1.506641845703125,0.00585457124710083,-0.0028984979204833504,0.04261529901996255
1782814635989722600,1.52672265625,0.05086451031863689,-0.027530688743293282,0.03634049306679517
1782814636009804800,1.5468046875,0.0014800094246864319,0.007836538844555615,0.06320405967086554
1782814636029886700,1.56688671875,-0.016274258452653883,0.05563055567666888,0.08263006015270948
1782814636049967900,1.5869677734375,-0.07344049926400184,0.06302651114687323,0.015457864035852252
1782814636070049800,1.6070498046875,-0.03334931189417839,0.03766483700573444,0.008616437175869941
1782814636090131700,1.627131591796875,0.02963876693844795,0.017301555673778057,0.0011273965947329997
1782814636110212900,1.647212890625,0.08229366780519486,0.0017187866166234016,-0.016684775482304393
1782814636130294800,1.667294677734375,0.06450199052691459,0.03338306803330779,-0.033717049228027464
1782814636150376700,1.687376708984375,0.009960253000259399,0.03186433403342962,0.002018536748178303
1782814636170457900,1.707457763671875,-0.05108896672427654,0.04664499292746186,-0.027476583935879168
1782814636190539800,1.727539794921875,0.0031897359520196913,0.02073372207954526,-0.018098222476802765
1782814636210622000,1.7476220703125,0.062196636193990705,0.010680822359770536,0.03424542048368603
1782814636230702800,1.767702880859375,-0.058822191324830055,0.026938568069040773,0.004246734191663563
1782814636250784800,1.78778466796875,-0.06671323683559895,-0.02064779736176133,-0.02612005476038903
1782814636270865700,1.80786572265625,-0.013297872990369795,-0.05210208928957581,-0.024716727301105856
1782814636290947800,1.82794775390625,-0.07921732909977436,-0.04618000576421618,0.011392587358318268
1782814636311030000,1.848030029296875,-0.13100538400411604,-0.013948591984063386,0.015259491919539868
1782814636331110700,1.868110595703125,-0.12112053432762622,0.020800795966386794,0.04634232018645853
1782814636351192800,1.88819287109375,-0.028787703067064283,0.0006637246057391166,0.04423592249173671
1782814636371274800,1.908274658203125,0.04875672438442707,-0.016635639110952616,0.024211481192708013
1782814636391355600,1.928355712890625,0.044941550010442734,0.0266356395997107,0.04677468372173607
1782814636411437800,1.948437744140625,0.05891980648040771,0.04559563000500202,0.06215765589047223
1782814636431519700,1.968519775390625,0.00016425065100193021,0.060421297084540124,0.03491608628686517
1782814636451601000,1.988600830078125,-0.07517945188581943,0.04834478258267045,0.016923370011150837
1782814636471682800,2.008682861328125,-0.05820961238443851,0.00410305140465498,-0.027952421286702153
1782814636491764700,2.0287646484375,0.0007224690556526184,-0.01620031643360853,-0.033539318040944635
1782814636511846000,2.048845947265625,-0.02982347585558891,-0.044985243021696805,-0.04496781696286052
1782814636531927800,2.068927734375,-0.16324176622033118,-0.05210077411532402,-0.03906516879033297
1782814636552009700,2.089009765625,-0.13263152390122412,-0.0949836380302906,-0.06246204566452652
1782814636572091000,2.1090908203125,-0.01886953564286232,-0.15122297325506806,-0.023276282701827584
1782814636592172800,2.1291728515625,0.03372399042546749,-0.18363252008110284,-0.03273282396364957
1782814636612255000,2.1492548828125,-0.022599369820952415,-0.17064517434462903,0.02668335119895637
1782814636632336000,2.1693359375,-0.08347849367558956,-0.037089959727227687,0.09637578650843351
1782814636652417800,2.189417724609375,-0.09146656982004642,-0.0021751520819962024,0.17306429125033318
1782814636672498700,2.209498779296875,-0.09383914417028427,0.08120923356935382,0.1301706136804074
1782814636692581400,2.229581298828125,-0.03832067056596279,0.07382555305883289,0.14987079146113247
1782814636712663300,2.249663330078125,0.003243511965870857,0.1294511402994394,0.1262860638646409
1782814636732744400,2.269744384765625,-0.024072364982962606,0.09931552975475788,0.08726944692377
1782814636752826400,2.289826416015625,-0.07446048996150494,0.07920709996670484,0.015186828542128205
1782814636772908500,2.309908447265625,-0.032388357907533645,-0.018542349515110253,-0.06997797425258905
1782814636792989400,2.329989501953125,0.07278817283511162,-0.06874605783745646,-0.09830207839589565
1782814636813071600,2.350071533203125,0.11859189263284206,-0.1192240530565381,-0.0777971601035446
1782814636833153500,2.370153564453125,0.062390112939476966,-0.14245353747457265,-0.12498089955020696
1782814636853234400,2.390234375,0.017400047612190245,-0.15400851232036947,-0.05443663318436592
1782814636873316600,2.410316650390625,-0.11911796233355998,-0.032884470861405134,0.06904518691450356
1782814636893398500,2.4303984375,-0.1970072576999664,0.08090440540388226,0.18081282301787285
1782814636913479400,2.4504794921875,-0.17625439252853392,0.137550713994354,0.21890841612368822
1782814636933561300,2.470561279296875,-0.0215063138872385,0.1512413856945932,0.17163765598069874
1782814636953643300,2.490643310546875,0.09332476490736007,0.09248349177762866,0.1198674289939925
1782814636973724400,2.510724365234375,0.13513210854530333,0.07997662303447722,0.06071443481221795
1782814636993806300,2.530806396484375,0.11270225007236004,0.06732976129874586,0.050424657596647736
1782814637013887500,2.550887451171875,0.02223579720556736,0.06616510143354534,-0.017304734011553226
1782814637033969400,2.570969482421875,-0.022763620471954345,-0.011788491340726613,-0.07506937910746783
1782814637054051300,2.59105126953125,0.01837503012418747,-0.09318009573966264,-0.1310224812693894
1782814637074132500,2.611132568359375,0.025700258445739744,-0.11938538109809159,-0.10962667855191975
1782814637094214400,2.63121435546875,-0.006046878948807716,-0.06775383192971349,-0.07272767481952905
1782814637114296300,2.65129638671875,-0.06254793384969234,-0.022067747162282464,-0.02440123161114752
1782814637134377500,2.67137744140625,-0.04993219790458679,-0.008069909209012984,0.015126001732982694
1782814637154459400,2.69145947265625,-0.009368716847896575,0.024445874470472334,0.08719879284035414
1782814637174541600,2.71154150390625,-0.023873627540469167,0.08541413791328668,0.1131590539291501
1782814637194622500,2.73162255859375,0.03877425955235958,0.07819763066321611,0.10368362530376761
1782814637214704600,2.75170458984375,0.0173889416962862,0.0377678589887917,0.06623334436416625
1782814637234786600,2.77178662109375,-0.023886487022042272,0.006675678371638059,0.011734423065930604
1782814637254867200,2.7918671875,-0.11576046859920024,-0.007248802084475755,-0.01965473120380193
1782814637274949400,2.811949462890625,-0.10778291384875774,-0.004917728788405656,-0.04659081505481154
1782814637295031300,2.83203125,-0.07640402524471282,-0.07282032153904437,-0.06842190391700714
1782814637315112400,2.852112548828125,-0.0771025289028883,-0.09044745590537787,-0.11058200651537627
1782814637335194400,2.8721943359375,-0.05452303282618522,-0.07389335759803653,-0.0706945615567267
1782814637355276300,2.8922763671875,0.023808745610713958,-0.059017860027402634,-0.05914897559378296
1782814637375357400,2.912357421875,0.0940729529261589,-0.05370864770337939,0.00438760396707803
1782814637395439400,2.932439453125,-0.036710897281765936,0.018325345763564108,0.05505290191918611
1782814637415521300,2.952521240234375,-0.08763210622370242,0.03396130631268024,0.06360292279534041
1782814637435602400,2.9726025390625,-0.04044833024442196,0.008156418448686599,0.027135515413247047
1782814637455684400,2.992684326171875,0.01025426751077175,-0.014021511089801788,0.06628887394368649
1782814637475765500,3.012765625,-0.12175415605604648,0.035973230656981464,0.10115162260811775
1782814637495847400,3.032847412109375,-0.22375322580635545,0.06148322722762823,0.0896929842762649
1782814637515929300,3.052929443359375,-0.157777655595541,0.0670456836603582,0.030233810222148893
1782814637536010500,3.073010498046875,0.021924831560254095,0.029077918185293674,0.012163133339397609
1782814637556092400,3.093092529296875,0.16340134069621562,-0.01591989205703139,0.00031483810283243653
1782814637576174600,3.113174560546875,0.15684534318149088,-0.04334215198978782,-0.0034565336620435115
1782814637596255200,3.133255126953125,0.03358019804060459,0.020777707351744175,-0.014864756980910896
1782814637616337700,3.153337646484375,-0.04954056823849678,0.05916559793502092,0.01929835551418364
1782814637636419600,3.173419677734375,-0.07573357863724231,0.0649070641964674,-0.012635134765319526
1782814637656500200,3.193500244140625,0.00937806919813156,0.04486760799139738,0.0038786315316334365
1782814637676582400,3.21358251953125,0.06848200007379054,0.003075461922585964,-0.001912446025200188
1782814637696663600,3.23366357421875,-0.022705168282985685,-0.001733399663865566,0.006463935317099094
1782814637716744700,3.25374462890625,-0.12133446933925152,0.05381503068730235,-0.023739918158203362
1782814637736826600,3.27382666015625,-0.12366028193831444,0.026198124965280293,-0.0041912411447614425
1782814637756907800,3.29390771484375,-0.05164952321648597,0.039141339299082756,-0.00025247692372649906
1782814637776989700,3.31398974609375,-0.003995791637897491,-0.006659311758726835,-0.0029388664634898303
1782814637797071600,3.334071533203125,0.011723171019554137,0.011444792469590901,-0.04521620223335922
1782814637817152800,3.35415283203125,0.027643209207057953,-0.013803484424948692,-0.08133559989538043
1782814637837234700,3.374234619140625,-0.004676175117492676,-0.04087327765822411,-0.0709342885967344
1782814637857316600,3.394316650390625,-0.048532852500677105,0.0017089958749711514,-0.054978704171814025
1782814637877397800,3.414397705078125,-0.055426119145751,0.012379735232144593,-0.005273885282315313
1782814637897479700,3.434479736328125,-0.054641106247901916,0.043231092830747365,0.00406977018956095
1782814637917561900,3.454561767578125,-0.07537117506563663,0.026002894654124975,-0.0015111352153122425
1782814637937642500,3.474642578125,-0.12629939827024936,0.04469941181764006,0.013873627051711081
1782814637957724700,3.494724609375,-0.06307341902852058,0.045278965271264314,0.04143175179120153
1782814637977806600,3.514806640625,0.011166121658682823,0.02262552717551589,0.044009493324719366
1782814637997887500,3.534887451171875,0.0075695584714412685,0.06733122260347009,0.038911001141928137
1782814638017969700,3.5549697265625,-0.046860535374283786,0.10056786790341138,0.0189092465987429
1782814638038050600,3.575050537109375,0.01980243257880211,0.028783611413836476,-0.06259886031933129
1782814638058132700,3.5951328125,0.1221013620585203,0.0032169162198901176,-0.02596541218794882
1782814638078214700,3.615214599609375,0.12771627933084964,-0.01527165728136897,0.01785096971746534
1782814638098295800,3.6352958984375,0.02321779398024082,0.03891220671832561,0.05239825922455638
1782814638118377700,3.655377685546875,-0.0735860452145338,-0.010621931779384612,-0.0046855640003457665
1782814638138459600,3.675459716796875,-0.10024491955935955,-0.050462505389004944,-0.0432758818205446
1782814638158540800,3.695540771484375,-0.035361236238479615,-0.11473448655232786,-0.03128507284075022
1782814638178622700,3.715622802734375,-0.049042555588483805,-0.08854542167633771,0.03737948072571307
1782814638198704600,3.73570458984375,-0.13899229110479355,-0.0337517552152276,0.07930979315619915
1782814638218785800,3.755785888671875,-0.17006255215108393,0.03146729753986001,0.10924250153992325
1782814638238867700,3.77586767578125,-0.10460136120319366,0.027274522025138137,0.06743976101186126
1782814638258949600,3.79594970703125,-0.030961539974808692,-0.03581789396479726,0.019138196516409516
1782814638279030500,3.816030517578125,-0.05348316838443279,-0.007035451594740152,-0.028604784248210488
1782814638299112400,3.836112548828125,-0.05848959836959838,0.022264877169579266,-0.057134347835741936
1782814638319193600,3.856193603515625,-0.01526011297404766,0.04420446790754795,-0.03704385556317866
1782814638339275500,3.876275634765625,0.03267477363348007,0.029274902062118052,-0.019538630543462932
1782814638359357700,3.896357666015625,0.09782792154550551,0.019433745396882293,-0.07754866523519158
1782814638379438600,3.9164384765625,0.131805594471097,0.001868424220383167,-0.12369093280490487
1782814638399520500,3.9365205078125,0.11088380247354507,0.020739859559386967,-0.11577946556061505
1782814638419602700,3.956602783203125,0.008918050470948218,0.0441116750575602,-0.05410469781626016
1782814638439683600,3.97668359375,-0.0399888960391283,0.05681845028698444,-0.04153429885022342
1782814638459765800,3.996765869140625,-0.01153787758052349,0.03306041195020079,-0.011122392114810645
1782814638479847700,4.01684765625,-0.024832243439555167,0.07532353653162717,0.004647643142752349
1782814638499928800,4.0369287109375,-0.04600479532778263,0.028813568160682916,0.04452197289150208
1782814638520010800,4.0570107421875,-0.02256254494190216,0.01918093967959285,0.05312956917379051
1782814638540092700,4.0770927734375,0.028383213919401167,0.02911678889095783,0.07946783326212316
1782814638560173800,4.097173828125,0.13454758665561675,-0.05447963207587599,0.06285382146108895
1782814638580255700,4.117255859375,0.11017536194324493,-0.1049701945155859,0.048991227260045705
1782814638600337700,4.137337646484375,-0.06611527094244957,-0.037062194937467575,0.06643200874142348
1782814638620418800,4.157418701171875,-0.19136428337693212,-0.009167933578789233,0.03220660813245922
1782814638640500700,4.177500732421875,-0.08889818063676357,-0.07884411187320947,0.03467292518075556
1782814638660581600,4.19758154296875,-0.08504384329617024,-0.06726531776040792,0.01679371574949473
1782814638680663600,4.21766357421875,-0.2199129169911146,-0.02096840761825442,0.0008631561679765581
1782814638700746200,4.237746337890625,-0.19023966326117514,0.0019134324058890343,-0.012302176483906805
1782814638720827400,4.257827392578125,-0.03394201709032058,0.009146160138398408,0.035061266911216075
1782814638740909300,4.277909423828125,0.15254209302961824,-0.010299129565805197,0.025016806226223706
1782814638760991200,4.2979912109375,0.22496961585879324,-0.054177580389380454,0.006373736282996833
1782814638781072400,4.318072265625,0.10019757328629493,-0.035721740113943815,-0.001439275555498898
1782814638801154300,4.338154296875,0.03460837204456329,-0.01701148668602109,0.011735117185674607
1782814638821236500,4.358236572265625,-0.1239186406135559,0.010728022502362728,0.06401183238979428
1782814638841317400,4.3783173828125,-0.18222645267546175,0.048648003312945366,0.05154788947291672
1782814638861399300,4.3983994140625,-0.10817337447106838,0.005622516056895256,0.053841809096373615
1782814638881481500,4.4184814453125,-0.04533201063275337,-0.008639818051457405,0.06804240308012813
1782814638901562000,4.43856201171875,-0.06219371358454227,-0.009086392775177955,0.03931841289903968
1782814638921644300,4.458644287109375,-0.08335282146930693,-0.0075064301073551176,0.03398907110244036
1782814638941725200,4.47872509765625,0.0015559972703456878,-0.04966609431430697,-0.010475472513400018
1782814638961807400,4.498807373046875,0.051040451407432554,-0.06847177094072103,-0.029641981808841228
1782814638981889300,4.51888916015625,0.11253916846513748,-0.08560118491798639,-0.011477379564940928
1782814639001970200,4.53897021484375,0.07954524587988852,-0.052522068267315626,0.012951288042403758
1782814639022052400,4.55905224609375,-0.0025280571728944776,-0.04062061807140708,0.08838179207984358
1782814639042134300,4.57913427734375,-0.0826093096256256,-0.010007160881906747,0.0746533091198653
1782814639062215400,4.59921533203125,-0.09659516488015651,0.001166997952759266,0.0906617562431842
1782814639082297300,4.61929736328125,-0.06358721376955509,0.012575403934717178,0.07958634507525712
1782814639102379300,4.639379150390625,-0.049607788255810734,-0.006473579928278923,0.09139872874822468
1782814639122460400,4.65946044921875,-0.05234335069954395,0.03748845752552152,0.03318301541656256
1782814639142542300,4.679542236328125,-0.01849427258968353,0.012523089225590228,0.020170864032395184
1782814639162624300,4.699624267578125,-0.003251110750436783,0.019591712437570095,0.02374265810456127
1782814639182705400,4.719705322265625,0.0022258593559265137,0.05790566100180149,0.04813431816976517
1782814639202787300,4.739787353515625,-0.02241349186003208,0.06704948305264115,-0.022503983155079184
1782814639222869500,4.759869384765625,0.03914543095231056,-0.0025632746167480944,-0.08289729625415057
1782814639242950100,4.7799501953125,0.09969839159250259,-0.03307005656138062,-0.11186879492290318
1782814639263032300,4.8000322265625,-0.033797640183568,-0.009168371970206498,-0.06626991351488977
1782814639283113200,4.82011328125,-0.1521352657943964,0.07148001284599304,-0.019721257101371882
1782814639303195100,4.840195068359375,-0.09111293407678604,0.08998977526575326,0.024113975634984672
1782814639323277300,4.86027734375,0.04239420361518859,0.024994740524888037,0.06357322177682072
1782814639343358200,4.880358154296875,0.12139642865955828,-0.014668722952157258,0.0527574844583869
1782814639363440400,4.9004404296875,0.0993143607109785,0.012077829676121473,0.0719110977396369
1782814639383522300,4.920522216796875,-0.0174935711145401,0.0053508595086634156,0.025232166009955107
1782814639403603200,4.940603271484375,-0.15427987660765646,0.025760756461322306,0.005991714695468544
1782814639423685400,4.960685302734375,-0.09381400972902774,0.011746698025614023,0.01071892588045448
1782814639443767300,4.980767333984375,0.04841244099140167,-0.04762041383087635,0.021501272385939955
1782814639463848400,5.000848388671875,0.02107318316698074,-0.07055237660706043,-0.02410075082723051
1782814639483930400,5.020930419921875,-0.09151625418066978,-0.046090866176038976,-0.04947645349372178
1782814639504012300,5.04101220703125,-0.055450669065117836,-0.026729016971588134,-0.0071784767946228385
1782814639524093400,5.061093505859375,0.006820201408863067,-0.04549070832580328,0.006111066758818924
1782814639544175400,5.08117529296875,0.050072483158111566,-0.07297624275311827,-0.04434537421558052
1782814639564257300,5.10125732421875,0.023882395368814466,-0.04109934149906039,-0.006126629654131829
1782814639584338200,5.121338134765625,-0.05685118351280689,0.03021393647789955,0.041729711824469266
1782814639604420000,5.141420166015625,-0.04946282682716846,0.06810469119399785,0.05965374677814543
1782814639624501200,5.161501220703125,-0.058412441480159755,0.023374445846676827,0.02103281462397426
1782814639644583200,5.181583251953125,-0.01845160249173641,-0.013363631702959537,-0.02043251064326614
1782814639664665300,5.201665283203125,0.013557400709390639,-0.009692688105255365,0.003974639252014458
1782814639684746200,5.221746337890625,0.007064531558752059,0.014847148258984089,0.013049012795835733
1782814639704828000,5.241827880859375,-0.0648240620881319,-0.011174304965138434,-0.020866152820177376
1782814639724910000,5.26191015625,0.0017629180192947386,-0.04067760895565152,-0.05665149622224271
1782814639744991000,5.281990966796875,0.082953593018651,-0.059453913357108826,-0.000814312057569623
1782814639765073200,5.3020732421875,0.04455810365080833,-0.02893324901759624,0.09445610702484845
1782814639785155000,5.322155029296875,-0.114677349537611,0.05066650352850556,0.05592486244812608
1782814639805863200,5.34286328125,-0.05874737252295017,-0.02231207731217146,0.02058704361785203
1782814639825945000,5.362945068359375,-0.0759130268573761,-0.03226736187636852,0.02498286742400378
1782814639846026000,5.38302587890625,-0.1684258908599615,0.03606675415933132,0.09553509790059178
1782814639866108000,5.40310791015625,-0.20556758077442644,0.07680559178292751,0.10460742561779916
1782814639886189800,5.42318994140625,-0.10078677135109901,0.01867182111367583,0.027899485523067414
1782814639906271000,5.44327099609375,0.1129214457809925,-0.06452464075013994,-0.015456987253017723
1782814639926353000,5.463352783203125,0.1937923873066902,-0.06667158965095878,-0.014792312799207865
1782814639946435000,5.48343505859375,0.0795949302405119,0.027547932139039038,0.05004048058465123
1782814639966516000,5.503515869140625,-0.049510173100233076,0.021778408826887606,0.05381013531647622
1782814639986598000,5.523597900390625,-0.12049509590566157,0.00283273920789361,0.005092025909386575
1782814640006680000,5.54368017578125,-0.03172141843140125,-0.049913785465061665,-0.00758435418177396
1782814640026761000,5.563760986328125,0.021914310166239737,-0.045614919227361675,0.010472367240861058
1782814640046843100,5.583843017578125,-0.04765490062236786,-0.02498421913087368,0.04671710831560194
1782814640066925000,5.603925048828125,-0.10323767163455486,0.04407981861457228,0.06949735112879425
1782814640087006200,5.624006103515625,-0.03991173914968967,0.03743438925072551,0.09188987326603382
1782814640107088100,5.644088134765625,0.04715045823156833,0.0305200798176229,0.09070921211410313
1782814640127169000,5.6641689453125,0.08831073613762855,-0.028417700710892675,0.039837504869699475
1782814640146624000,5.6836240234375,0.0021247370690107344,-0.0024425708465278147,0.010597454925253987
1782814640166706200,5.7037060546875,-0.06958090122640133,0.061557607638090844,0.02219104474838823
1782814640186788000,5.7237880859375,-0.06538754118978977,0.039728491537272925,0.004995689395442605
1782814640206869200,5.743869140625,0.00802782363295555,0.02747092138007283,-0.03874039381537586
1782814640226951200,5.763951171875,0.008162263667583465,0.011939297988265752,-0.030006650402769446
1782814640247033000,5.784033203125,-0.05927168865799903,0.04809095395207405,-0.023475787329301237
1782814640267114200,5.8041142578125,-0.06760580176115036,0.06657835840955376,0.009031009326130152
1782814640287196200,5.824196044921875,-0.02659282337129116,0.007474135272949933,-0.01700871020704508
1782814640307278000,5.844278076171875,0.045330841588974,-0.07149068037047981,-0.1029112161591649
1782814640327359000,5.86435888671875,0.1187117196202278,-0.057250996485352514,-0.008154591817781328
1782814640347441000,5.88444091796875,0.026404022800922394,0.035045156026631594,0.09940539999529718
1782814640367522000,5.90452197265625,-0.07432546540498733,0.043482291112840174,0.02167447352837771
1782814640387604000,5.92460400390625,-0.04654430903196335,-0.06615224195197224,-0.04368417036049068
1782814640407686000,5.944685791015625,-0.028453356546163558,-0.0659872606486082,-0.011150193437188862
1782814640427767000,5.96476708984375,-0.11158230613172053,0.0027184651784598825,0.06342552040182053
1782814640447849000,5.984848876953125,-0.2075952872097492,0.051112785991281266,0.05225399191565811
1782814640467931100,6.00493115234375,-0.17360358575880527,0.06789411718323826,0.029778138876520095
1782814640488012000,6.025011962890625,-0.07539689402878284,0.03649754679203033,0.019498627326637506
1782814640508094000,6.045093994140625,0.08349661385416984,-0.02258753325268626,0.004965805713832378
1782814640528176000,6.065176025390625,0.11515490392148495,0.022107348520308732,-0.0060342021303251385
1782814640548257000,6.085257080078125,0.1286591131389141,-0.0021510405540466305,-0.012549502308480441
1782814640568339200,6.105339111328125,0.07687865701913833,-0.0024691665925085544,-0.06538070959020406
1782814640588421000,6.125421142578125,0.03533960892856121,-0.007371113289892673,-0.08039981688261032
1782814640608502300,6.145502197265625,0.022713936111330983,-0.014436083240061997,-0.04263232321999967
1782814640628584200,6.165584228515625,-0.06242284616529941,-0.020128741923719645,-0.015650390933267772
1782814640648666000,6.185666015625,-0.09830722949504851,0.0001597206063568592,0.047331331223808226
1782814640668747000,6.2057470703125,-0.14319617253541947,0.008733633814752102,0.07875219580605626
1782814640688829000,6.225828857421875,-0.1491682326823473,-0.0036062077984213826,0.049169250708073375
1782814640708911400,6.245911376953125,-0.0980243209004402,-0.02605287127569318,0.03336947789937258
1782814640728992500,6.265992431640625,-0.0036392332851886747,-0.01615764633566141,0.02584558520056307
1782814640749074400,6.286074462890625,0.020543606334924698,0.005471271017938852,0.049431043449416755
1782814640769155300,6.3061552734375,-0.0067740241795778275,0.017155571331828833,0.012571896803379059
1782814640789237200,6.3262373046875,-0.05434650721549988,-0.02525660633146763,-0.062669806663692
1782814640809319400,6.3463193359375,-0.06717091747522354,-0.033297435576468706,-0.0942808965884149
1782814640829400300,6.366400390625,-0.016207038435339927,-0.017605799317359925,-0.023216223077662287
1782814640849482200,6.386482177734375,-0.011422726768255233,-0.0029521278038620946,-0.028325565448030828
1782814640869564400,6.406564453125,-0.06905249343812465,0.012353431747108698,-0.03613528935089707
1782814640889645300,6.426645263671875,-0.058472647234797476,0.021611235566437244,-0.010509411315619945
1782814640909727200,6.446727294921875,0.06693301706612109,0.04225888679772615,0.04515409678258001
1782814640929809400,6.466809326171875,0.062119479304552076,0.05676745075210929,0.1328797630412504
1782814640949890300,6.486890380859375,-0.050959787386655804,0.08580036075189709,0.051543469026125964
1782814640969972500,6.506972412109375,-0.06529577125310898,0.010238631550222635,-0.03643029024209827
1782814640990054400,6.527054443359375,0.05651566794812679,-0.050183834578096866,-0.015235964913479984
1782814641010135300,6.54713525390625,-0.06462883177697658,-0.01404036192074418,0.0357870969677344
1782814641030217500,6.567217529296875,-0.19646891303956507,0.03231879980266094,0.03534128942899406
1782814641050299400,6.58729931640625,-0.15493571016788482,0.03472717611864209,0.007489004048518836
1782814641070380500,6.607380615234375,0.03496025422215462,-0.04324643653035164,-0.039977972786314785
1782814641090462500,6.62746240234375,0.10144435847699641,-0.06850640386268496,0.0003228752788156271
1782814641110543600,6.647543701171875,0.04678630109429359,0.028038346004486084,0.07004457321539521
1782814641130625500,6.66762548828125,-0.026979776862263678,0.07724281415641307,0.0863425048045814
1782814641150707500,6.68770751953125,-0.028597733452916142,0.06863280672132968,0.07004559612870216
1782814641170788400,6.707788330078125,0.04261339932382106,0.08953224075660109,0.051580184307321905
1782814641190870300,6.727870361328125,0.0672252780109644,0.049579292813688516,0.03872950709518045
1782814641210952200,6.7479521484375,0.006484101322293281,0.04065013642683625,-0.00853610194865614
1782814641231033300,6.768033447265625,-0.06331190395951271,0.0029626491978764534,-0.09471640192884952
1782814641251115300,6.788115234375,-0.039271103158593175,-0.02592982941791415,-0.09497227638605982
1782814641271197400,6.808197509765625,0.07000117246508598,-0.040987405557185407,-0.042727563755400474
1782814641291278300,6.8282783203125,0.010495090529322624,-0.04002557478770614,-0.05293024720940739
1782814641311360300,6.8483603515625,-0.12231003637313842,-0.04435176742374897,0.01577723218332976
1782814641331442400,6.8684423828125,-0.17790099069178103,0.021480156532675026,0.0570402763441205
1782814641351523300,6.8885234375,-0.09625964931547641,0.036156039877980946,0.1170111262474209
1782814641371605500,6.90860546875,-0.056369537475705146,0.10960954475402832,0.16687003972008824
1782814641391687400,6.9286875,-0.09971358916163443,0.11434504884332418,0.1333846803560853
1782814641411768300,6.948768310546875,-0.07332710201740264,0.10904080495536327,0.059974905023910105
1782814641431850500,6.9688505859375,-0.01595160236954689,0.053357350047677755,0.025738836890459058
1782814641451931400,6.988931396484375,0.03550210601389408,0.027508476911485193,-0.04564293974544853
1782814641472013600,7.009013671875,0.05321428831517696,0.0013284721247851848,-0.07217161183934659
1782814641492095500,7.029095458984375,0.10386603266596793,-0.09096841103956103,-0.17416900108922273
1782814641512176400,7.04917626953125,0.04327390905916691,-0.08808131129592657,-0.1532149142572656
1782814641532258300,7.06925830078125,-0.01782148789465427,-0.03574702068567276,-0.10216266281418501
1782814641552340200,7.08934033203125,-0.07328793905079364,-0.02385886836275458,-0.07605586939416825
1782814641572421400,7.10942138671875,-0.018555647388100623,-0.060037704594433305,-0.04172244183346629
1782814641592503300,7.12950341796875,-0.08837620258927345,0.004110796319693326,0.06311170521229505
1782814641612585200,7.149585205078125,-0.18822072465419767,0.05233706708922982,0.09548625379018486
1782814641632666400,7.169666259765625,-0.15596622225940227,0.08556216808184981,0.13889540660157798
1782814641652748300,7.189748291015625,-0.03159574622511863,0.08439955404326319,0.09468695663865655
1782814641672830500,7.20983056640625,0.06845978824198246,0.015692074650526047,0.057443486850149925
1782814641692910800,7.229910888671875,0.05435644408762454,-0.019550211383402346,0.00584525542948395
1782814641712993000,7.249992919921875,0.06443769311904907,-0.015803572200983763,-0.05171944664753973
1782814641733074000,7.270073974609375,0.048695934107899665,-0.03113718880265951,-0.06371902345567941
1782814641753155800,7.29015576171875,-0.03185761203169823,-0.035885406243056056,-0.08300568853206933
1782814641773238000,7.310238037109375,-0.06655190879404545,-0.036438510081171986,-0.055732445148564874
1782814641793319000,7.33031884765625,-0.08237199373841285,-0.01724324961528182,-0.016056633646599948
1782814641813401000,7.350401123046875,-0.05065875861346721,-0.02050838889107108,0.04911719172727316
1782814641833483000,7.37048291015625,-0.04063187011778355,0.005341945549845695,0.07460767987985163
1782814641853564000,7.39056396484375,-0.04193827654123306,0.031255846746265886,0.11044698195885866
1782814641873645800,7.410645751953125,-0.021000117930769918,0.0461956417247653,0.11777356198728084
1782814641893727700,7.430727783203125,0.00915069018304348,0.036717765413969754,0.08543620361462236
1782814641913809000,7.450808837890625,-0.03082125472128391,0.05461231854483485,0.04038406936917454
1782814641933890800,7.470890869140625,-0.05181611195504665,0.04337210873663425,0.023432021252810954
1782814641953972700,7.49097265625,-0.013857260438799857,0.05129676425606012,0.04398169200234115
1782814641974054000,7.511053955078125,0.0047451487004756925,0.03231441588848829,-0.03102404728438705
1782814641994135800,7.5311357421875,-0.003678396251797676,-0.034941695652157066,-0.06880816328823566
1782814642014217700,7.5512177734375,0.034878421157598496,-0.0498087176553905,-0.08599332604072987
1782814642034299000,7.571298828125,0.052716860187053675,-0.03628828795552254,-0.049105574354715645
1782814642054380800,7.591380859375,0.023536358410120008,-0.0008963643178343773,-0.010452712692320346
1782814642074462000,7.6114619140625,0.02728723537623882,-0.03342237713038921,0.007807568478398024
1782814642094544000,7.6315439453125,-0.019817045626044274,-0.010043547369539737,0.023565913298167287
1782814642114626000,7.6516259765625,-0.09387129287421703,-0.00032718612775206563,0.0357479705337435
1782814642134707000,7.67170703125,-0.09037000675499439,-0.005145838455855846,0.00700863665305078
1782814642154788900,7.691788818359375,0.012394202148914336,-0.0923852921001613,-0.016968012870475647
1782814642174871000,7.71187109375,0.01945113492310047,-0.12261676423475146,-0.007585815486498177
1782814642194951700,7.73195166015625,-0.09944295552670955,-0.07821282823234796,0.008002981452643871
1782814642215033900,7.752033935546875,-0.20714929700791834,-0.017551731042563915,0.03807060479503125
1782814642235115800,7.77211572265625,-0.14356266776025295,0.024569208589196204,0.10168941927924752
1782814642255197000,7.792197021484375,0.06358195307254791,-0.008807721964269877,0.12392287839725613
1782814642275278800,7.81227880859375,0.1888040775001049,-0.029197891303151844,0.14479831050243228
1782814642295360800,7.83236083984375,0.041588147929310794,0.02319908927977085,0.1410733351625502
1782814642315442000,7.85244189453125,-0.09844576118290424,0.04969795075729489,0.10408636088576168
1782814642335523800,7.87252392578125,-0.16236439886391163,0.06899316446632146,0.05180774598550051
1782814642355605800,7.892605712890625,-0.03553133210837841,0.006637684448808431,0.031116182547248898
1782814642375687000,7.91268701171875,0.04193476940989494,-0.03539338494241238,0.04866802318766713
1782814642395768800,7.932768798828125,-0.022010171756148337,-0.02670285961702466,0.012205218915455042
1782814642415850000,7.95285009765625,-0.06973989118039607,-0.053633975031971926,-0.0017103475818410516
1782814642435932000,7.972931884765625,0.006321019715070724,-0.08021919961869717,0.007137742925435305
1782814642456013800,7.993013916015625,0.014876082092523574,-0.07574205420464276,0.05033336258400231
1782814642476095000,8.013094970703126,-0.03574292903244495,-0.020308920796215532,0.047192799535952505
1782814642496177000,8.033177001953124,-0.0416401703774929,-0.012440525508671998,0.05507971686087548
1782814642516259000,8.053259033203124,-0.006999649628996849,0.011291793864965437,0.07915591776873916
1782814642536340000,8.073340087890625,-0.006049217036366463,-0.007781301525980233,0.07939513335209339
1782814642556422000,8.093421875,0.003692424777150154,-0.0005754618003964424,0.04349884038884193
1782814642576504000,8.113504150390625,-0.01129997717142105,0.03886033040061593,0.0654221741117537
1782814642596584700,8.133584716796875,0.0036181904971599576,0.03309723682925105,0.05927877598591148
1782814642616667000,8.1536669921875,-0.05084463657438755,0.05243161350488663,-0.0018088760528713465
1782814642636747800,8.173747802734376,-0.13932663762569428,0.10702814995869994,-0.03575860152561217
1782814642656830000,8.193829833984376,-0.051718496799468994,0.0425467638283968,-0.025833456371352075
1782814642676911900,8.213911865234374,0.07237199324965476,0.001888297964632511,-0.06667473145611584
1782814642696992500,8.233992431640624,0.05520633891522884,-0.021598229954391715,-0.09350987568330019
1782814642717075000,8.254074951171875,-0.0015805471897125244,-0.023986001873761414,-0.1755662276012823
1782814642737156900,8.274156982421875,0.1094447095811367,-0.08606646434217691,-0.14142525387275964
1782814642757237800,8.29423779296875,0.07149813302457332,-0.09525763266608119,-0.08666906987782567
1782814642777319700,8.314319580078125,-0.1305640699774027,-0.021796675135940313,-0.06292082228269427
1782814642797401600,8.334401611328126,-0.2553238375902176,0.04496799962595105,-0.008097052944265305
1782814642817482800,8.354482666015626,-0.07434358558356761,0.06318038653433322,0.05225008292552084
1782814642837564700,8.374564697265624,0.13235504504740236,0.04952332484275102,0.111102815519087
1782814642857645800,8.394645751953124,0.20035832169353962,0.016096125406771897,0.12812599264290184
1782814642877727700,8.414727783203125,0.07677052046954631,0.055488809118419885,0.050234213058464226
1782814642897809700,8.4348095703125,-0.11146481723189353,0.0670572279676795,0.005187960564531385
1782814642917890800,8.454890869140625,-0.1628401996821165,0.03341989291235804,-0.07706493683885783
1782814642937972700,8.47497265625,-0.034112697482109065,-0.04065349742770195,-0.08318002218566835
1782814642958054700,8.4950546875,0.06378887382149696,-0.1263577043287456,-0.10194419775791466
1782814642978135800,8.5151357421875,0.025967969471216202,-0.1299983989186585,-0.10857260292172431
1782814642998217700,8.5352177734375,-0.06831482681334018,-0.0827853968448937,-0.058800527482293544
1782814643018300000,8.5552998046875,-0.10928396606147289,-0.07307415016964078,0.005543788264878094
1782814643038380800,8.575380859375,-0.06162380474209785,-0.078676207960397,0.05076455707550048
1782814643058463000,8.595462890625,-0.04886602997779846,-0.06812734141722321,0.06266936827227473
1782814643078545000,8.615544921875,-0.029134909069538115,-0.02207622272968292,0.11716554962415247
1782814643098625500,8.63562548828125,-0.012182020702958107,0.048198067588359116,0.15143303580917417
1782814643118707700,8.655707763671876,-0.11140811860859394,0.06528393468484282,0.1304394572170451
1782814643138788600,8.67578857421875,-0.1062508819758892,0.052179684570431706,0.08574055685605854
1782814643158870800,8.695870849609374,0.029739304703474044,0.009575783727318049,0.03979348306488246
1782814643178952700,8.71595263671875,0.10752104804217814,-0.016882453478872773,-0.014339527530409395
1782814643199033900,8.736033935546875,0.09987608624696731,-0.018370938470959663,-0.030643596599437294
1782814643219115800,8.75611572265625,0.023206688064336775,-0.013533289181441067,0.002353796584531665
1782814643239197700,8.77619775390625,-0.012153379130363464,-0.020475801795721053,-0.017913038635626433
1782814643259278800,8.79627880859375,0.008304887008666991,-0.037487726873159405,-0.004910824123583734
1782814643279360800,8.81636083984375,-0.04733224453926086,-0.008536211546510457,0.006648388505913317
1782814643299442700,8.836442626953126,0.031662381720542906,-0.01776522766277194,0.04409147251974791
1782814643319523800,8.85652392578125,-0.004525952991843224,-0.052604924245178694,0.13461835033688693
1782814643339605800,8.876605712890624,-0.14952479103505611,-0.025502251655608415,0.05720047187451273
1782814643359687000,8.89668701171875,-0.23856442596912383,0.016002748034894466,0.022929295895062384
1782814643379768800,8.916768798828125,-0.07613806778490544,0.05521539900451898,0.05412910160515457
1782814643399850800,8.936850830078125,0.11215806019306182,-0.0059247138738632195,0.06850991099402308
1782814643419931600,8.956931640625,0.1707481963276863,-0.04404737764969468,0.013718984479270875
1782814643440013600,8.977013671875,0.020405074647068977,0.018081600135564802,0.032507454242557285
1782814643460095700,8.997095703125,-0.09882160875797272,0.09641673957332968,0.06858169758860022
1782814643480176600,9.0171767578125,-0.10622808562219142,0.03925415202379227,-0.0013821385407820344
1782814643500258600,9.037258544921874,-0.01348199738562107,-0.03360401730760932,-0.08473463121652602
1782814643520340700,9.0573408203125,0.034141339054703713,-0.08091098127514124,-0.06998159098178147
1782814643540421600,9.077421630859375,-0.03457973047196865,-0.03211962396875024,-0.026293109772354363
1782814643560503800,9.09750390625,-0.06970949604213238,-0.025601912637799977,-0.02368395018726587
1782814643580585700,9.117585693359375,0.04783785597383976,-0.0662903352484107,-0.00043923166748136277
1782814643600667000,9.1376669921875,0.058250528916716574,-0.02908230209946632,-0.0012172303026542067
1782814643620748800,9.157748779296876,-0.02673135505914688,-0.007842530193924904,0.07256167060285806
1782814643640829700,9.17782958984375,-0.10345920543074608,0.02038330120667815,0.04333908324986696
1782814643660911900,9.197911865234374,-0.1467670167595148,0.0173693602129817,0.02030322170779109
1782814643680993800,9.217993896484375,-0.17321137157082556,0.051703153099864715,0.06552585368193686
1782814643701075200,9.2380751953125,-0.1309825876504183,0.0720285866394639,0.07321775989141315
1782814643721157000,9.2581572265625,-0.014258826977014541,0.054249622712284326,0.021286862450279293
1782814643741239000,9.278239013671875,0.12358838574588298,0.013410247323662042,-0.0024859715968370438
1782814643761320200,9.2983203125,0.17550445094406603,-0.005557926388084888,-0.016831198215670883
1782814643781402000,9.318402099609376,0.09387655357122421,-0.008503039929270744,-0.051989824554137885
1782814643802738000,9.339738037109376,0.04574176047742366,-0.017132044325768946,-0.05984221855495125
1782814643822819800,9.35981982421875,-0.08079436915814876,0.05512319067642092,-0.0056689490145072335
1782814643842902000,9.379902099609374,-0.12943769629597662,0.05865063415020704,-0.018494930176809428
1782814643862983000,9.39998291015625,-0.021944120782613753,-0.014283230765908955,-0.04613200190402567
1782814643883065000,9.420065185546875,-0.00048632221221923825,-0.028963936416804788,-0.03048986734244972
1782814643903147000,9.44014697265625,-0.0739390964359045,-0.0030025428168475627,0.009421725676767528
1782814643923228000,9.460227783203125,-0.12342530413866043,0.06579641425162554,0.04389423291459679
1782814643943310000,9.48031005859375,-0.04713759874999523,0.03238075912296772,0.040902649883180854
1782814643963391000,9.500390869140626,0.022274375650286674,-0.025925737764686343,0.0008299845507368444
1782814643983473200,9.52047314453125,0.030812486892938612,-0.02620397018417716,0.025021847727522254
1782814644003555000,9.54055517578125,-0.022873510587215422,0.03025046909600496,0.06065126991551369
1782814644023636200,9.56063623046875,-0.055146133160591124,0.07421703659445048,0.0814008471513167
1782814644043718100,9.58071826171875,-0.06991232513785361,0.038653263521194456,0.03325071035791188
1782814644063800000,9.600800048828125,-0.03883037365376949,0.010760755728185176,0.03398998441789299
1782814644083881000,9.620880859375,0.009157119923830032,-0.01292100250199437,0.015939327409863473
1782814644103963000,9.640962890625,0.006945289093255996,0.03611600012853741,0.007419628606736659
1782814644124044800,9.661044921875,-0.004655716851353645,0.049035979717224835,0.00011679478008300066
1782814644144127000,9.681126953125,-0.0017716858476400374,0.023035130889713762,0.026266988950408993
1782814644164207900,9.701207763671874,-0.016426818665862084,0.02617649765536189,-0.00598155862763524
1782814644184290000,9.7212900390625,-0.03231353910565376,0.011772709249705075,-0.038143231639824804
1782814644204371000,9.741370849609375,-0.06627133828699588,0.006115414140373468,-0.0564981688240543
1782814644224452900,9.761452880859375,-0.03403904772400856,-0.006145663148164749,-0.05387059679944068
1782814644244535000,9.78153515625,0.0158639240860939,-0.022524112627655267,-0.03312606106493622
1782814644264616000,9.801615966796875,0.008977087181806565,0.003895546133816242,-0.015911745283193886
1782814644284698000,9.821697998046876,-0.03606967676877975,0.03156915047913789,0.037314854524284596
1782814644304780000,9.841780029296874,-0.0392483068048954,0.05812982514649629,0.061022952772118146
1782814644324861000,9.86186083984375,-0.027817396730184553,0.029695027170330283,0.03188070064634085
1782814644344943000,9.881943115234375,0.010769815817475319,-0.0015152268685400484,-0.010207907618395984
1782814644365025000,9.90202490234375,0.054065352186560625,-0.02705897957831621,-0.0026494915954768656
1782814644385106200,9.922106201171875,-0.05021569102108478,0.044940965488553045,0.01655917634125799
1782814644405188000,9.94218798828125,-0.08214519924521446,0.011356237403303384,-0.060801345910690724
1782814644425270000,9.96227001953125,-0.051938277029991146,-0.02798047833740711,-0.09900419878326355
1782814644445351000,9.982350830078126,-0.0006552490383386611,-0.02904737691655755,-0.048722822114825245
1782814644465433000,10.00243310546875,-0.045509120765328405,-0.005492167675495148,0.021545221125520764
1782814644485515000,10.022514892578124,-0.1311766489177942,0.025169366439431903,0.023107465473562478
1782814644505596000,10.042595947265625,-0.16606325338184832,0.041636809376627205,0.015385237191058694
1782814644525677800,10.062677734375,-0.016862871995568275,0.03248100462704897,0.03281173441875726
1782814644545759000,10.082759033203125,0.1236655426353216,-0.018045944300293923,0.07509586525559425
1782814644565841000,10.1028408203125,0.101079616817832,0.032241789043694735,0.0822129672518
1782814644585923000,10.122923095703126,-0.0559662173718214,0.03708411450833082,0.03378974913805723
1782814644606004000,10.14300390625,-0.12737316498160361,0.07084814468324184,0.011333258386515081
1782814644626086000,10.1630859375,-0.03801613466143608,-0.003927110315859317,0.008098477716371417
1782814644646168000,10.18316796875,0.015596213060617446,-0.04160509906411171,-0.00834193108342588
1782814644666249000,10.2032490234375,0.003622282150387764,-0.07483414557948707,-0.05487349023167044
1782814644686331100,10.2233310546875,-0.018274492359161378,-0.08669745572209357,-0.07491656316593288
1782814644706414000,10.2434140625,-0.05409048662781715,-0.03522197389826178,-0.03893693930078298
1782814644726494700,10.26349462890625,-0.08615969558358191,-0.03889394040927291,-0.007736402938328683
1782814644746577000,10.283576904296876,-0.058388476082682605,-0.006042202773690223,0.003672916359081864
1782814644766658800,10.303658935546874,-0.06507774458825588,0.030482524286210535,0.057634917769022284
1782814644786739700,10.32373974609375,-0.04103109856843948,0.036191841843724246,0.09837335353381932
1782814644806822000,10.34382177734375,-0.05521569126546383,0.04810629765167832,0.05079619432277977
1782814644826903800,10.36390380859375,0.029528292301297186,0.03758738785535097,0.014351144902966916
1782814644846985000,10.38398486328125,0.04408697900772095,0.02181771792396903,0.03979925521854311
1782814644867067000,10.40406689453125,-0.08073357888162136,0.031147710196673867,-0.005136997562274336
1782814644887148800,10.424148681640625,-0.08986088818907738,0.011870324405282734,-0.04316580904219299
1782814644907230000,10.44422998046875,0.03232172241210937,-0.0009048398852348328,-0.07451010125689209
1782814644927312000,10.464311767578126,0.20902327418625352,-0.05619958773627877,-0.08928020222429185
1782814644947393800,10.484393798828124,0.23026772226691244,-0.08385770225152372,-0.08341280802823603
1782814644967475000,10.504474853515624,-0.02431611061096191,-0.03166252785101533,-0.05004486449882388
1782814644987556900,10.524556884765625,-0.5044827228099108,0.14400705052688717,-0.14882292637601494
1782814645007639000,10.54463916015625,-0.15497428861260412,0.09805486216917633,0.17296430147457867
1782814645027720000,10.564719970703125,0.5131996977508068,-0.057134530498832464,0.127561490627937
1782814645047801900,10.5848017578125,-0.011441431468725205,-0.16749679331630468,-0.05331007683984935
1782814645067882800,10.6048828125,-0.45044601219594477,-0.09827274270355701,-0.13762535013314336
1782814645087964700,10.624964599609376,-0.2372849075525999,0.019872136814147234,0.055770475604012604
