time,seconds_elapsed,z,y,x
1782814241381660700,0.07066064453125,1.8409218809515238,0.3375027929745614,0.19168712212312966
1782814241401741600,0.090741455078125,2.2217355539947747,0.054517918259650466,0.1514366525383666
1782814241421823500,0.110823486328125,1.7164608040243385,-0.05501549251824617,0.08531682415180838
1782814241441905400,0.130905517578125,0.8335679621815681,0.18776406692788003,-0.2958304190942086
1782814241461986600,0.150986572265625,-0.08371990121603011,0.03154664638638496,-0.6711080670539289
1782814241482068500,0.171068359375,-0.755297558543086,-0.09387056222185491,-0.7539847954440861
1782814241502149600,0.191149658203125,-0.8316337792485952,0.07274111882299185,-0.4698005914093926
1782814241522231600,0.2112314453125,-0.3656389002650976,0.10548998060598969,0.29837588405963034
1782814241542312700,0.231312744140625,-0.11433540423214435,0.15329700305014848,0.7267746438920497
1782814241562394600,0.25139453125,-0.48395197595655914,0.3060807958811521,0.8864097639225422
1782814241582475800,0.271475830078125,-1.0545628291904925,0.41573944047391415,0.851313389165327
1782814241602557700,0.2915576171875,-1.4298451715916394,0.41263548310920595,0.5837219714805484
1782814241622638600,0.311638671875,-1.1902233455240725,0.26103169384300706,0.35045842839851976
1782814241642720800,0.331720703125,-0.3762690153509378,-0.12524229043275117,0.22318258631154894
1782814241662801400,0.351801513671875,0.016149170768260956,-0.471047340067476,-0.039538631520979105
1782814241682883600,0.371883544921875,-0.27986440460681916,-0.647523558653146,-0.5315381952568888
1782814241702964500,0.391964599609375,-0.6168909583717584,-0.7070528753340244,-0.8159146704606711
1782814241723046700,0.412046630859375,-0.7845634005159139,-0.6384683647338301,-0.7340081753421575
1782814241743127600,0.43212744140625,-0.6787883193582296,-0.4290229926779866,-0.3648510743556544
1782814241763209500,0.45220947265625,-0.5370131195366382,-0.1814808950051665,-0.1198101093161851
1782814241783290600,0.47229052734375,-0.22509002736806868,-0.05612630330435931,-0.06897909940835088
1782814241803372500,0.49237255859375,0.002622165197134018,-0.04693221237100661,0.04368749482873827
1782814241823453700,0.51245361328125,0.14269582179784773,0.037335239725187416,0.016132511894404886
1782814241843535600,0.53253564453125,0.07864332860410213,0.14438779347278177,-0.05303926054183394
1782814241863617500,0.552617431640625,0.05323357753753662,0.16615714221037922,-0.12347067765034735
1782814241883698700,0.57269873046875,0.07003858186602592,0.11701214916072786,-0.24559728374797848
1782814241903780600,0.592780517578125,0.20367606793940066,0.04116670764684677,-0.2727763460420072
1782814241923861500,0.612861572265625,0.3767711196541786,-0.04383789961747825,-0.2293418395936489
1782814241943943400,0.632943359375,0.4964408706516027,-0.18252660466581583,-0.19448066183179616
1782814241964024600,0.653024658203125,0.39578210959434507,-0.38237135081402956,-0.20522936179600654
1782814241984106500,0.6731064453125,0.1591103655040264,-0.47854726736880837,-0.3386629958603531
1782814242004187600,0.693187744140625,-0.05235621018111705,-0.47286169601306316,-0.30532617812156676
1782814242024269600,0.71326953125,-0.3106938426345587,-0.31975561242513356,-0.2919312014322728
1782814242044350700,0.733350830078125,-0.30603987934887406,-0.20497421799115836,-0.18608626990877092
1782814242064432600,0.7534326171875,-0.20608020647168157,-0.12221680513173341,-0.0002896305963397026
1782814242084513800,0.773513671875,-0.21165362268984317,-0.11305413224995135,0.09675758890025317
1782814242104595700,0.793595703125,-0.29469898564517494,-0.0839917769599706,0.079401234299317
1782814242124676600,0.813676513671875,-0.3840297124803066,-0.0016601882971823214,0.015949958401732144
1782814242144758800,0.8337587890625,-0.2862105587631464,0.06583616174012422,0.06535078937597573
1782814242164839400,0.85383935546875,-0.2474146719008684,0.18881642552502453,0.23084369552396236
1782814242184921600,0.873921630859375,-0.2829845824539661,0.27678251294344663,0.27344292019195854
1782814242205002500,0.89400244140625,-0.1738333028614521,0.2385264320462942,0.18632701986208558
1782814242225084400,0.91408447265625,-0.0366425082206726,0.15506423191837965,0.05899009523764252
1782814242245166600,0.93416650390625,0.04714812014400959,0.19053302018456159,0.11310900424234568
1782814242265247500,0.95424755859375,0.14687924496233462,0.2060235809136182,0.10316124539747834
1782814242285329700,0.97432958984375,0.16349544872045516,0.2272827151067555,0.07444967630654573
1782814242305410800,0.994410888671875,0.08464286127984523,0.21247626418434082,-0.017782617188990116
1782814242325492700,1.01449267578125,0.006482347756624221,0.15664273328147826,-0.09744845724124461
1782814242345574000,1.034573974609375,0.02479775664806366,0.17177615113593636,-0.1022246586671099
1782814242365655800,1.05465576171875,0.1142459723830223,0.18532441869080066,-0.020686302741244434
1782814242385737000,1.074737060546875,0.17561784819066523,0.1388064131438732,0.03118924778345972
1782814242405819000,1.09481884765625,0.015157821643352507,0.19892273593246937,0.03316347046587616
1782814242425899800,1.114899658203125,-0.060120414441823956,0.1830173107922077,0.05081694484986365
1782814242445981700,1.134981689453125,0.01722293747961521,0.1507264219097793,0.02077741509079933
1782814242466062800,1.155062744140625,0.08756722429394721,0.010491656463220716,0.04219802345596253
1782814242486144800,1.175144775390625,0.14596154559552668,-0.03736256612353027,0.03446494498588144
1782814242506226000,1.195225830078125,0.21230945625007153,-0.03552504849806428,0.08885536440834403
1782814242526307800,1.215307861328125,0.16575813295543193,-0.05585983438789844,0.13276830202341078
1782814242546389000,1.235388916015625,0.12298106750249863,-0.06959785236120224,0.1361511493947357
1782814242566471000,1.255470947265625,-0.013766659545898436,-0.0713063367795199,0.19519553210288285
1782814242586551800,1.2755517578125,-0.21897943553328514,0.023162191335484385,0.17508870975002647
1782814242606634000,1.295634033203125,-0.27668343648314475,0.07009031205326319,0.15464556811489164
1782814242626715000,1.31571484375,-0.222858907315135,0.026017288505658504,0.15359730117097495
1782814242646797000,1.335797119140625,-0.1962976481258869,-0.07180303425528109,0.032835078761726616
1782814242666877700,1.355877685546875,-0.28290041130185123,-0.11657134659066795,-0.044497751765698194
1782814242686959600,1.375959716796875,-0.23063421749174592,-0.09527502219229936,-0.10125373127572238
1782814242707040800,1.396040771484375,0.01495733063519001,-0.07186638181507587,-0.074531217110157
1782814242727122700,1.416122802734375,0.19660686020553111,-0.12754808315709232,-0.07074709546156227
1782814242747203800,1.436203857421875,0.13853461046516893,-0.190268377899006,-0.12985621396899222
1782814242767285800,1.45628564453125,-0.0128881231456995,-0.18886362566761672,-0.11496610335111618
1782814242787368000,1.476367919921875,-0.12613982379436492,-0.029534575911611318,-0.02256356785520911
1782814242807448800,1.49644873046875,-0.2308744559884071,0.1096580600708723,0.0597284925147891
1782814242827530800,1.51653076171875,0.01798632306754589,0.06019684067890048,0.1156109771259129
1782814242847612000,1.53661181640625,0.2114332579374313,-0.016176058775186537,0.15818828222304582
1782814242867693800,1.55669384765625,0.15076982266008854,-0.030433570577949282,0.12550685965307057
1782814242887775000,1.57677490234375,-0.04727496139407158,0.0939521030254662,0.171233641757071
1782814242907857000,1.59685693359375,-0.08101999460756779,0.2328529164545238,0.2930844631206244
1782814242927937800,1.616937744140625,0.002619242587685585,0.22140461685359478,0.3112676969997585
1782814242948019700,1.637019775390625,0.01638473308980465,0.12949454104974864,0.2419558950383216
1782814242968100900,1.657100830078125,0.10969956112504005,0.07457593303471803,0.18122399763464928
1782814242988182800,1.677182861328125,0.22367548439502716,0.06822437205091118,0.218719469422847
1782814243008264000,1.697263916015625,0.25359540636241434,0.09040230158939958,0.1439041016090661
1782814243028345900,1.717345947265625,0.10025894808471202,0.1434638835608959,-0.0636832214899361
1782814243048426800,1.7374267578125,-0.0828401957720518,0.12497341036349534,-0.1827972748333588
1782814243068509000,1.757509033203125,-0.07405833890140057,0.07630787139385939,-0.17410302318092435
1782814243088589800,1.77758984375,0.09015957887470721,0.04921075176224112,-0.13268376554511488
1782814243108672000,1.797672119140625,0.2139303354501724,-0.01976078539416194,-0.18693441117070614
1782814243128753000,1.8177529296875,0.28301088593900203,-0.09061134123019873,-0.22636764608845114
1782814243148834800,1.837834716796875,0.4095984535008669,-0.18224917596392332,-0.08574285841099917
1782814243168915700,1.857915771484375,0.31952363030016423,-0.24801855607815085,-0.030345965359732507
1782814243188997600,1.87799755859375,0.02894435493350029,-0.23551249105259775,0.035929756841436025
1782814243209078800,1.898078857421875,-0.12264262932837008,-0.16296828304119407,0.067597362726368
1782814243229160700,1.91816064453125,-0.18172317932844162,-0.12321611836738884,0.1581509824199602
1782814243249241900,1.938241943359375,-0.2339040329426527,-0.11148315660618245,0.1989076479611918
1782814243269323800,1.95832373046875,-0.29228257215321063,-0.20391572191417215,0.17567334123756737
1782814243289405000,1.978405029296875,-0.4054553623467684,-0.18636947076432406,0.15572397446874528
1782814243309486600,1.998486572265625,-0.5219897379279136,-0.04926518536321819,0.23508056590873747
1782814243329567700,2.018567626953125,-0.40813481068909163,0.06137684424370527,0.2611477214381099
1782814243349649700,2.038649658203125,-0.06353168419003487,0.04359817257747054,0.24988117161225526
1782814243369730800,2.058730712890625,0.1737684209316969,-0.03724076637476682,0.17802271737530825
1782814243389812700,2.078812744140625,0.20712825421988962,-0.08472177173495292,0.0663092226119712
1782814243409893600,2.0988935546875,0.06610416502654552,-0.004490004895627498,-0.02394329524319619
1782814243429975800,2.118975830078125,-0.09610942718982696,0.040864802090823646,-0.02263308942746371
1782814243450056700,2.139056640625,-0.013781857115030287,0.07842617872208356,0.024762794932536778
1782814243470139000,2.159138916015625,0.07662497451901436,0.09354790613874793,0.08632201000582426
1782814243490219500,2.179219482421875,0.14135317501723765,0.07841258858814835,0.018804690245725213
1782814243510302000,2.199302001953125,0.0829360573619604,-0.01306735217012465,-0.10078092613220214
1782814243530384000,2.2193837890625,0.0034592005431652068,0.006829626824334263,-0.08819931165240705
1782814243550464500,2.239464599609375,0.019927520263195036,0.03355141033753752,-0.03145582629777491
1782814243570546700,2.259546630859375,0.10233224722743034,0.0052174423873424525,-0.02271262093707919
1782814243590627600,2.279627685546875,0.1066606318205595,-0.10715667170919477,-0.061397265977226195
1782814243610709800,2.299709716796875,-0.05205225879848003,-0.03350742506533861,-0.06466887152642012
1782814243630790700,2.319790771484375,-0.14948270545899867,0.000493847931548953,0.025583938589692115
1782814243650872800,2.339872802734375,-0.0709153647005558,-0.002400996727123856,0.0714513712733984
1782814243670953700,2.35995361328125,0.06526011541783809,0.011835983744263649,0.10301595517527311
1782814243691035600,2.38003564453125,0.06844575971662997,0.040976445771753786,0.16268913730625062
1782814243711116800,2.40011669921875,0.07141045474112033,-0.0025058453410863875,0.06044482409060001
1782814243731198700,2.42019873046875,0.12881693404912947,-0.05116166663430631,0.03552376985643059
1782814243751279600,2.440279541015625,0.061250295254588125,-0.030130715173855422,0.10139584316015243
1782814243771361800,2.46036181640625,-0.15389350763857365,-0.005863631336390972,0.10097739855237305
1782814243791442700,2.480442626953125,-0.2976648497134447,0.028458398047462103,0.0585983925063163
1782814243811524600,2.500524658203125,-0.16740356207489968,0.035398207248002286,0.04060487251300365
1782814243831605800,2.520605712890625,0.02608428932726383,0.007340206694975495,0.06114340081401169
1782814243851687700,2.540687744140625,0.08748597575128078,0.004508344269916415,0.06701083154268563
1782814243871768800,2.560768798828125,0.05151040700674057,0.007097483980283141,0.054796589070558545
1782814243891850800,2.580850830078125,0.06334639075100422,0.01634213605709374,0.04075381599701941
1782814243911931600,2.600931640625,0.03844517372846603,-0.013854337829351424,0.003102715255692601
1782814243932013800,2.621013916015625,-0.003435819667577743,0.01329736153371632,0.026217341122403738
1782814243952094700,2.6410947265625,-0.03346154009699821,0.04420249514617026,0.054231940925121305
1782814243972177000,2.661177001953125,-0.031092472878098486,0.019680267503857613,0.07053929792977869
1782814243992257500,2.681257568359375,-0.04249941755533218,0.03904854644909501,0.051364787990972396
1782814244012339700,2.701339599609375,0.12905892611145972,0.008244315927848219,0.0926047070045024
1782814244032420600,2.721420654296875,0.1316694008708,-0.015240969882160425,0.09841551217511296
1782814244052502500,2.74150244140625,-0.015846388429403304,-0.03809292622469365,0.03532243859805167
1782814244072583700,2.761583740234375,-0.08519581898748874,-0.04497654825858772,0.015975202440842984
1782814244092665600,2.78166552734375,-0.03510404660701751,-0.0295918590568006,0.03487294126488268
1782814244112746800,2.801746826171875,-0.02030512140393257,-0.0016594576448202133,0.07474551744796336
1782814244132828700,2.82182861328125,-0.12196107680499553,-0.01857289078384638,0.03443191949911415
1782814244152909800,2.841909912109375,-0.03326338717639446,-0.04900689975321293,0.04097133120521903
1782814244172991700,2.86199169921875,0.025901918497681618,-0.02936068064942956,0.1112647646151483
1782814244193073000,2.882072998046875,-0.0879775586605072,0.012190788531303405,0.096702424646914
1782814244213154800,2.90215478515625,-0.09057809654772281,-0.0421930550199002,-0.001292450963333249
1782814244233235700,2.922235595703125,-0.06126841543316841,-0.09962452263869345,-0.012707140555605291
1782814244253317600,2.942317626953125,-0.16840601711571215,-0.04463949832394719,0.019542977925017475
1782814244273398500,2.9623984375,-0.14087269802391528,0.0240486918464303,0.07799019845761358
1782814244293480700,2.982480712890625,-0.1142196688979864,0.1082978045683354,0.14708075888380406
1782814244313561900,3.002561767578125,-0.07646013934612274,0.061133902333304284,0.10754859363622962
1782814244333644000,3.02264404296875,-0.030257191097736356,0.06446275449506939,0.043532194669172165
1782814244353725000,3.042724853515625,0.15003390960097313,0.06110182669460773,0.04038461735844612
1782814244373806800,3.062806884765625,0.24627017804086207,0.04446647984459996,0.0716384182780981
1782814244393889000,3.082888916015625,0.1286456691354513,0.06646876055523752,0.016469854089990257
1782814244413970000,3.102969970703125,-0.031243279525637626,0.04050656323768198,-0.011343377921730279
1782814244434052000,3.123052001953125,-0.027895722663402556,0.07005071069523691,0.0009849193841218948
1782814244454132700,3.1431328125,0.03286240516006946,0.02760828402414918,0.014178382151946424
1782814244474215000,3.16321484375,-0.036731355547904965,0.01038381217457354,-0.0270217893730849
1782814244494295800,3.1832958984375,-0.07761515460014343,-0.0020742489907890557,-0.024708543994650244
1782814244514377700,3.203377685546875,-0.08326923483908176,0.02357216037586331,0.03241656108871102
1782814244534459000,3.223458984375,0.06859948897361755,0.007644158077612519,0.10299582570269704
1782814244554540800,3.243540771484375,0.12328794149458408,-0.07034209485724569,0.08814451272524892
1782814244574622000,3.2636220703125,0.013328268128633499,-0.13227335811331867,0.003150719115883112
1782814244594704000,3.283703857421875,-0.10631401033997535,-0.0654296267658472,-0.005869768816232681
1782814244614785000,3.303784912109375,-0.1792190875530243,0.029514848297834396,0.05542049312256276
1782814244634867000,3.323866943359375,-0.14168050727546214,0.0433846028920263,0.07414061035737395
1782814244654948000,3.343947998046875,-0.08303250347375869,0.05334186021760106,0.04276303692758083
1782814244675030000,3.364030029296875,0.0677823273718357,0.03228592044636607,0.0710024584621191
1782814244695111000,3.38411083984375,0.11117547889649868,0.11088760186582804,0.09744264855496584
1782814244715192800,3.40419287109375,0.13644260662198066,0.05476802056320011,0.012243760827556252
1782814244735273700,3.424273681640625,0.13969371737241745,-0.02088124079145491,-0.07620638378076255
1782814244755356000,3.44435595703125,0.045621933490037916,-0.03996076592318713,-0.016626432891190052
1782814244775436800,3.464436767578125,-0.11731880395710467,0.049352206059545274,0.022274740976467727
1782814244795519000,3.48451904296875,-0.21533903320431708,0.0642583179641515,-0.02852970971800387
1782814244815599900,3.504599853515625,-0.11739011562764644,0.03578684123940765,-0.04037278079017997
1782814244835681800,3.524681884765625,0.022747838380932806,-0.016199512716010212,0.019409779999405144
1782814244855763000,3.544762939453125,0.04053191687464714,0.0009101736474782227,0.007766542348265648
1782814244875844900,3.564844970703125,0.04437339473366737,-0.03847732243239879,-0.04039090096876025
1782814244895925800,3.58492578125,0.0022416414469480514,-0.014090923064202069,-0.029623861630260942
1782814244916008000,3.605008056640625,-0.02023673234283924,0.04342771138139069,0.022731837094202637
1782814244936088800,3.6250888671875,0.013377952489256857,0.05179119670949876,0.11187354416325687
1782814244956170800,3.645170654296875,0.006433832439780235,0.08903568941131233,0.15481573705002666
1782814244976252000,3.665251953125,0.028602994149923323,0.017169015335291624,0.14030534646473825
1782814244996333800,3.685333740234375,0.018394903868436813,0.1316301648389548,0.31932796159759164
1782814245016415000,3.7054150390625,-0.13960136291384695,-0.03656564359217882,0.064434551313892
1782814245036497000,3.725496826171875,-0.05687339534461498,-0.04042049238942563,0.022948037128150463
1782814245056578000,3.745578125,0.0904611921697855,-0.03565152442194521,0.11768383787721395
1782814245076660000,3.765659912109375,0.04060615115463734,-0.018456278666853905,0.11023279121890664
1782814245096740900,3.785740966796875,-0.08072013487815856,-0.06252623347453773,0.002037789437919855
1782814245116823000,3.805822998046875,-0.18439210627675057,-0.09616188802942634,-0.09142653007060289
1782814245136903700,3.825903564453125,-0.08042845845520497,-0.1084388935394585,-0.09632913435511291
1782814245156985900,3.84598583984375,0.05271276853382587,-0.05576105018854141,-0.020658172625303266
1782814245177066800,3.866066650390625,0.039322541084885594,-0.025915947023034094,-0.006737199300527573
1782814245197148700,3.886148681640625,0.010773322948813438,-0.060371612723916765,-0.08993855653516948
1782814245217229800,3.906229736328125,0.06063654727041721,-0.052028147270530456,-0.08298523026593028
1782814245237311700,3.926311767578125,0.09582476502954959,0.01480374750867486,0.041143984358385205
1782814245257394000,3.946393798828125,0.0669675038576126,0.05634221107736229,0.06266622646711767
1782814245277474800,3.966474853515625,0.11499416040182113,-0.04089271301105618,0.04191146159954369
1782814245297557000,3.986556884765625,-0.029906477963924406,-0.0740032477132976,0.07133212880790234
1782814245317638100,4.00663818359375,-0.13441314662098883,-0.010841273618489503,0.12287570743188261
1782814245337720000,4.026719970703125,-0.22950199859142303,0.10109890604019164,0.17279796846434473
1782814245357801200,4.04680126953125,-0.17133680987060068,0.07476502586603165,0.16312690766900778
1782814245377883100,4.066883056640625,-0.03284253141582012,0.005108282924443483,0.12396876336559652
1782814245397964300,4.08696435546875,0.03937105640172958,0.0051284489296376705,0.12301599268540739
1782814245418046200,4.107046142578125,0.07852934683561325,0.02683437704220414,0.11021306360512971
1782814245438127400,4.12712744140625,0.026037527576088904,0.010555734675377607,0.09058701050654053
1782814245458209300,4.147209228515625,0.07119593520760535,-0.010071896681189536,0.003487184528633952
1782814245478290400,4.16729052734375,0.09597206454575061,-0.026207477315515277,-0.00843881558664143
1782814245498372400,4.187372314453125,0.06861819367408752,-0.0417643812790513,-0.0020644582491368053
1782814245518453200,4.207453369140625,-0.061249710732698436,-0.005327478633075952,0.009589008535072207
1782814245538535200,4.22753515625,-0.06094575935006141,0.015020166738331318,0.018945523488521576
1782814245558616000,4.247615966796875,-0.024235446590185165,-0.023562369634211062,0.031121698972582816
1782814245578698200,4.2676982421875,-0.07532616688013076,-0.022513298972696064,0.022393179724365473
1782814245598779100,4.287779052734375,-0.15796996329724788,0.014521131175011396,0.004162088115513324
1782814245618861300,4.307861328125,-0.05545885237157344,0.025144524259120223,0.036827947790175675
1782814245638942200,4.327942138671875,0.051435003682971,0.028709084872901438,0.046053091448917984
1782814245659024100,4.348024169921875,0.12684125006198882,0.00033040099814534183,0.026674729501083492
1782814245679105300,4.368105224609375,0.0826139858007431,0.008868804501742125,0.012863938552513717
1782814245699187200,4.388187255859375,0.07127367661893368,0.027096681240200995,0.03133409961424768
1782814245719268400,4.408268310546875,-0.000353051221370697,0.024513532879203558,0.052524844746291634
1782814245739350300,4.428350341796875,-0.04141162231862545,0.02641790519580245,0.07062361521236599
1782814245759431200,4.44843115234375,-0.09688099608421324,0.03513736435472965,0.07928878690078854
1782814245779513000,4.46851318359375,-0.05396949059665203,0.024460925909131764,0.06820128343626856
1782814245799594200,4.48859423828125,-0.018638064974546432,-0.022972440917044878,0.05919073237627744
1782814245819676200,4.50867626953125,-0.08668167363107204,-0.050474341957271095,0.05993928572125733
1782814245839757300,4.52875732421875,-0.21768413502573966,-0.01244154842197895,0.07754457358196377
1782814245859839200,4.548839111328125,-0.2516273211598396,-0.005986234802752733,0.024073314831033348
1782814245879920000,4.568920166015625,-0.14572481423020361,-0.08324921496436,-0.007290157008171081
1782814245900002300,4.589002197265625,-0.11081775150001048,-0.008177753497660159,0.022661621402204034
1782814245920084200,4.609084228515625,-0.07377192317545414,0.02744344885125756,-0.02803790761306882
1782814245940165400,4.629165283203125,0.012335165438055991,0.006220628080517053,-0.09249839708581566
1782814245960247300,4.649247314453125,0.03261573692262173,0.005362257685512304,-0.11040909763388335
1782814245980328400,4.669328369140625,0.1293652155816555,0.04331584850475192,-0.004192702449485659
1782814246000410400,4.689410400390625,0.12063947281241416,0.0663848816640675,0.1023914300687611
1782814246020491000,4.709490966796875,0.009725275200605392,0.1341556647285819,0.120314332511276
1782814246040573200,4.7295732421875,-0.07084639111757278,0.10818754912689328,-0.009410217902064323
1782814246060654000,4.749654052734375,0.0503805261939764,0.026111177334189415,-0.07223543432317674
1782814246080736300,4.769736328125,0.24090426709353924,0.006220043558627366,0.029266499559953807
1782814246100817200,4.789817138671875,0.27027707657217975,-0.007658405798673629,0.07931099873259663
1782814246120899300,4.8098994140625,0.14073007468283175,0.020133564229309557,0.007881547030061484
1782814246140980200,4.829980224609375,0.10333119513690471,0.013024462876468896,-0.009186930540204048
1782814246161062100,4.850062255859375,0.15497779574394224,0.041350539781153196,0.0691682287722826
1782814246181143300,4.870143310546875,0.12994798390567303,0.026739830626547334,0.152498692279309
1782814246201225200,4.89022509765625,-0.006043956339359283,0.017937953881174324,0.1230916882701218
1782814246221306400,4.910306396484375,-0.0667412938863039,-0.006123451316356659,0.08715827816687524
1782814246241388300,4.93038818359375,-0.05624678787887096,-0.0011633446909487246,0.12269231368899344
1782814246261469200,4.95046923828125,-0.17240297779738903,-0.007847937021404504,0.12061558048017322
1782814246281551000,4.970551025390625,-0.19264380179345605,-0.04887406715378165,0.02802219858728349
1782814246301632300,4.99063232421875,-0.09740765030682086,-0.10435060131251811,-0.06313961613252758
1782814246321713700,5.010713623046875,0.022310031485557553,-0.11426672291010617,-0.07687514988780021
1782814246341794800,5.030794921875,0.08478197748959064,-0.11549538792222738,-0.05523351918309927
1782814246361876700,5.050876708984375,0.03471826215982437,-0.05882482167333364,-0.03258563404530287
1782814246381957600,5.07095751953125,0.0015104045629501341,-0.019757278262823818,-0.0164789141792804
1782814246402039600,5.09103955078125,-0.007813888621330261,-0.02297916291877627,-0.02747457464188337
1782814246422120400,5.111120361328125,-0.03590425707399845,0.031412206351757045,0.03001081512123346
1782814246442202600,5.13120263671875,0.0003606500059366226,0.03619929449781775,0.09680573889091611
1782814246462283500,5.151283447265625,-0.03437397876679897,0.007050795294344425,0.08643924317732453
1782814246482365700,5.17136572265625,-0.1779763940155506,0.028556378529220817,0.028099720802903173
1782814246502446600,5.191446533203125,-0.13379063080847262,-0.01942979987412691,-0.02812492830939591
1782814246522528800,5.21152880859375,0.06428045673072337,-0.03186491855531931,0.07316117086596786
1782814246542609700,5.231609619140625,0.05381459229588508,0.00663753831833601,0.12815657044425605
1782814246562691600,5.251691650390625,0.17656944982707498,0.008391542378813028,0.2083675867564976
1782814246582773800,5.271773681640625,0.19664134699702263,-0.03417465680241585,0.2142712578423321
1782814246602854700,5.291854736328125,-0.09538111291527747,0.026690876918286085,0.17998576107658446
1782814246622936800,5.311936767578125,-0.2497498368501663,0.07117752276808023,0.19825901132673024
1782814246643017500,5.332017578125,-0.2816962962090969,0.15349647114500403,0.05905315053649246
1782814246663099600,5.352099609375,-0.2936719806849956,0.12498553919270634,-0.032803222318738695
1782814246683180500,5.3721806640625,-0.13222118953466414,0.07612798478230834,-0.000973667337745428
1782814246703262500,5.392262451171875,0.06849193694591522,0.03557838612049818,0.026280761747434735
1782814246723343600,5.412343505859375,0.15615093117654322,-0.0009328969359397888,0.006434636157378554
1782814246743425500,5.432425537109375,0.10786240882575511,0.0035955402739346024,-0.016569003615528346
1782814246763506700,5.452506591796875,0.024928689551353453,0.07913038146868348,-0.026285291792079803
1782814246783588600,5.472588623046875,0.06297697291672229,0.04660334574282169,-0.025629531297087668
1782814246803669800,5.492669677734375,0.06399988622367382,-0.0044619478449225425,-0.09030066784583031
1782814246823751700,5.512751708984375,0.076937109208107,-0.022228490681946277,-0.047735783838853234
1782814246843832800,5.532832763671875,0.11389876638054847,-0.011748597721755504,-0.01815342326276004
1782814246863914800,5.552914794921875,0.15967676721513271,-0.0057172086030244824,0.0470098076518625
1782814246883995600,5.57299560546875,0.1784685614466667,0.0056477966286242005,0.08404277649484575
1782814246904077600,5.59307763671875,0.08761281700134277,-0.013260171328485011,0.11158734763301908
1782814246924158500,5.613158447265625,0.020972060880064963,0.03650105392336845,0.1222234540682286
1782814246944240600,5.63324072265625,0.03718026835918426,0.014439590371400118,0.12703768594954162
1782814246964321500,5.653321533203125,-0.028116671937704084,0.050385933021456,0.153260799225606
1782814246984403700,5.67340380859375,0.21420681430399416,0.10641162549555301,0.1495389291582629
1782814247004485600,5.693485595703125,0.3776391346603632,0.03187880095019936,0.12124174955449998
1782814247024566500,5.71356640625,0.4759843580782413,0.05519464847743511,0.06360445716530085
1782814247044648700,5.733648681640625,0.5596078131824731,0.11946151507422327,0.05673161225374788
1782814247064729600,5.7537294921875,0.6863087779909371,0.15117694215625524,0.011799962582811713
1782814247084811800,5.773811767578125,0.8065168736487627,0.06482450047954917,-0.06549363191276789
1782814247104892700,5.793892578125,0.7312661100924015,0.08489201373532414,-0.1109629686569795
1782814247124974800,5.813974853515625,0.46026247281134125,0.1251965515948832,-0.1181823985164985
1782814247145055500,5.834055419921875,0.20870587880015373,0.2002118989601731,-0.0755472257522866
1782814247165137400,5.854137451171875,0.14287468549609184,0.19015205804295837,0.0010643047632649541
1782814247185218600,5.874218505859375,0.16275778209567068,0.07121602814756334,-0.03974328724760562
1782814247205300500,5.894300537109375,-0.009902385333180427,0.08162745898142457,-0.027548571459855883
1782814247225381600,5.914381591796875,-0.33982582909464837,-0.05347776155695319,-0.08516783500201999
1782814247245463600,5.934463623046875,-0.7502437822848558,-0.1241427316930145,-0.10380958977099508
1782814247265544700,5.954544677734375,-1.016275476372242,-0.16194595425613223,-0.03998164431443438
1782814247285626600,5.974626708984375,-1.1960463525891303,-0.1700710277184844,0.08271640499560162
1782814247305707800,5.994707763671875,-1.167557340207696,-0.21504333819337187,0.08239486315734684
1782814247325789700,6.014789794921875,-0.940731282827258,-0.28930757493041453,0.13077668981477616
1782814247345871600,6.03487158203125,-0.7070084516704082,-0.30750863672718404,0.13815373965511096
1782814247365952800,6.054952880859375,-0.48798517699539656,-0.28117753303200005,0.12915219388548285
1782814247386034700,6.07503466796875,-0.18673837714195252,-0.24763386760950087,0.13930077253207562
1782814247406115800,6.09511572265625,0.019150106149911878,-0.17436017627976833,0.14909986188756302
1782814247426197800,6.11519775390625,0.04911912795603275,-0.11507679718397557,0.15232945492593572
1782814247446279000,6.13527880859375,0.016135726764798162,-0.0702443335711956,0.06667215590653941
1782814247466360800,6.15536083984375,0.07356967860162257,-0.03167268391884863,0.0194604690070264
1782814247486441700,6.175441650390625,0.18001812897622585,0.04633424647785723,0.08851376616274938
1782814247506524000,6.19552392578125,0.17292320227921007,0.05489902653172612,0.0931150311468169
1782814247526604500,6.2156044921875,0.044296237844228745,0.08128587900213896,0.05355130171719938
1782814247546686700,6.235686767578125,-0.022777064475417136,0.07588548126332462,0.021078882255405187
1782814247566767600,6.255767578125,-0.05438859279155731,0.11461831282675265,0.017163078784849493
1782814247586849800,6.275849853515625,0.004628828844428062,0.09473222055248916,-0.0011696465675719082
1782814247606930700,6.2959306640625,0.053711131921410554,0.05937931375093758,0.0026471717742271718
1782814247627012600,6.3160126953125,0.07810264585614204,0.0555867896001786,-0.01868301836112514
1782814247647093800,6.33609375,0.07620119614899158,0.03175269035249948,-0.023626740107312798
1782814247667175700,6.35617578125,0.045317397585511204,0.021074863667413592,0.011186251131258904
1782814247687256800,6.3762568359375,0.06468962205350398,-0.018914763024076818,-0.0250363511769101
1782814247707338800,6.3963388671875,0.1357739135801792,-0.035591757058724756,0.006270860430411994
1782814247727421000,6.4164208984375,0.14767185664474963,-0.04039017031639814,0.056228265841491515
1782814247747501800,6.436501708984375,0.20619944893717765,-0.07588058589249849,0.04443100667241961
1782814247767583700,6.456583740234375,0.21440379818081853,-0.19094518118202686,0.09390402610003948
1782814247787664600,6.47666455078125,0.016139233896136283,-0.10670680904984474,0.13719857608843594
1782814247807746600,6.49674658203125,-0.24098493111431596,-0.04672046931646764,0.17666304639466107
1782814247827827700,6.51682763671875,-0.4698199902296066,-0.00015606734454631804,0.07255723188975825
1782814247847909600,6.53690966796875,-0.39279754082560536,-0.01720781297571957,-0.04944311747970059
1782814247867990800,6.55699072265625,-0.0175894327044487,-0.12246858793571591,-0.012489534015860409
1782814247888072700,6.57707275390625,0.22021979098320005,-0.13683138674385845,0.03280132262259722
1782814247908153900,6.59715380859375,0.16908523155152796,-0.10600954750068485,0.07785170330237597
1782814247928235800,6.61723583984375,-0.07730301991105079,0.04924648066274821,0.09194496445413679
1782814247948317000,6.63731689453125,-0.2696925546824932,0.1114612370353192,0.10410097393300384
1782814247968398800,6.65739892578125,-0.09529694176316261,0.0784466369882226,0.09460004554018378
1782814247988479700,6.677479736328125,0.157826170912385,0.014942498392239212,0.11267718869633972
1782814248008562000,6.69756201171875,0.16797405543923377,0.0013362901050597428,0.14071779972314835
1782814248028642600,6.717642578125,0.009561024549603461,0.03471665472462773,0.09208923176303506
1782814248048724700,6.737724853515625,-0.1319178226739168,0.03888385740667581,0.09210490425620227
1782814248068805600,6.7578056640625,-0.13539222078621388,0.0317595584847033,0.10038644692189991
1782814248088887800,6.7778876953125,-0.006036357554793357,-0.02811075365357101,0.08632675924617797
1782814248108968700,6.79796875,0.12359423096477985,-0.09297346725165843,0.010465243380330502
1782814248129050600,6.818050537109375,0.029145430463552474,-0.09989084542468189,-0.05066507875639945
1782814248149132800,6.8381328125,-0.20043430953919886,-0.07203450492359698,-0.08098525208774954
1782814248169213700,6.858213623046875,-0.29920097323954103,-0.013559446536004542,-0.058872167946398254
1782814248189295900,6.8782958984375,-0.10630582703351973,-0.006893851166963577,0.02534775521364063
1782814248209376800,6.898376708984375,0.07182371171712874,0.01893609807305038,0.09158782157953828
1782814248229458700,6.918458740234375,0.18322540058493614,0.06280103182792664,0.047860725392773744
1782814248249539800,6.938539794921875,0.19590368037223815,0.07226173780821263,0.06109170715939253
1782814248269621800,6.958621826171875,0.10513912134170532,0.1496207256902009,0.1023488695686683
1782814248289702700,6.97870263671875,0.03925941272079944,0.1810095511663705,0.13314458798989653
1782814248309784300,6.998784423828125,0.10364742147922515,0.0724876555185765,0.08571834502425044
1782814248329865500,7.018865478515625,0.004297404932975769,0.030671470987051724,0.08055175604131072
1782814248349947400,7.038947509765625,-0.11885492748320102,0.09844546892195939,0.13484054172020404
1782814248370028500,7.059028564453125,-0.10523206032216548,0.0965505220208317,0.11077036869432777
1782814248390110500,7.0791103515625,0.0492781179100275,-0.05052066531702876,0.037288952898047865
1782814248410191600,7.099191650390625,0.024838088658452034,-0.0986722634151578,0.049206988902576264
1782814248430273500,7.1192734375,-0.08175883027613162,-0.06995514136627316,0.039361959779821334
1782814248450354700,7.139354736328125,-0.2048603092879057,-0.021178177911415696,-0.01940225428007543
1782814248470436600,7.1594365234375,-0.103584293115139,0.016122209696099163,0.006789258281327783
1782814248490517500,7.179517578125,0.13154372866451738,-0.06743724026121199,0.03788374045342207
1782814248510599400,7.199599365234375,0.20803017149567604,-0.08477145609557628,-0.028005028256773947
1782814248530680300,7.219680419921875,0.07713876926004887,0.012119184599816799,0.03950074719600379
1782814248550762500,7.239762451171875,0.024153029003739356,0.07125467965751886,0.052355589126609266
1782814248570843400,7.259843505859375,-0.018380290821194648,0.07455306361578405,0.10420184049159288
1782814248590925600,7.279925537109375,-0.06919453225731849,0.07621398256532848,0.0484599333949387
1782814248611006500,7.30000634765625,-0.016847674426436424,0.041652226141467685,0.10144538139030337
1782814248631088400,7.32008837890625,-0.022941899648308752,0.0563260636601597,0.10685396243557334
1782814248651170600,7.340170654296875,-0.0052589434415102,0.06288301102295518,0.12104728642832487
1782814248671251500,7.36025146484375,-0.08245850297808646,0.038122298449650406,0.09997580202808604
1782814248691333600,7.380333740234375,-0.07578034038841724,0.021061858055368064,0.06395730745727196
1782814248711414500,7.40041455078125,-0.08670330094099045,-0.013075754672288893,0.07225991117730736
1782814248731496400,7.420496337890625,-0.11908990528285503,-0.031916210351139306,-0.006968377707898616
1782814248751577300,7.440577392578125,-0.11601356657743453,-0.05845869177468121,-0.08576492411233484
1782814248771659300,7.4606591796875,-0.12358137148320675,-0.10899068220332264,-0.14747355759367345
1782814248791740400,7.480740478515625,-0.09613923780620097,-0.11359503419362008,-0.1447602617806755
1782814248811822300,7.500822265625,-0.10526830067932605,-0.0667089259866625,-0.09139766930229962
1782814248831903500,7.520903564453125,-0.08661562265753746,-0.010699380929768085,-0.03442737118816003
1782814248851985400,7.5409853515625,0.06893442001640797,-0.0743832600068301,-0.03856067160060629
1782814248872066600,7.561066650390625,0.06896364611089228,-0.08625424199923873,-0.007921221453323959
1782814248892148500,7.5811484375,-0.10768588321506976,0.030173458337038755,0.06026431642454117
1782814248912229600,7.601229736328125,-0.07669920879900455,0.09077895288206636,0.09306834246087818
1782814248932311600,7.6213115234375,0.15973171227276325,0.0231015471894294,0.11650869315061718
1782814248952392700,7.641392822265625,0.234793090736866,-0.02605491710230708,0.10413171613113954
1782814248972474600,7.661474609375,0.14347031330168247,0.032626258316636084,0.09805551975630224
1782814248992555300,7.68155517578125,-0.03659399290382862,0.09096461164727807,0.11819080101866275
1782814249012637400,7.701637451171875,-0.11792846028804778,0.0640341538194567,0.08269879627367481
1782814249032718300,7.72171826171875,-0.14315817861258984,0.017592428379133343,0.056271739657036954
1782814249052800500,7.741800537109375,-0.07722937015295028,-0.020149492450803518,0.04002528252676129
1782814249072881400,7.76188134765625,-0.1122726264834404,0.03664367726445198,0.097067020175606
1782814249092963600,7.781963623046875,-0.09316811304092407,0.0849396522693336,0.14061424801712855
1782814249113044500,7.80204443359375,0.021171382844448087,0.01776537379324436,0.16283086559819057
1782814249133126400,7.82212646484375,0.15952596056759358,-0.01951243665628135,0.10846976360175759
1782814249153208600,7.84220849609375,0.24722411776483058,-0.020333178454637526,0.07666293190922588
1782814249173289500,7.86228955078125,0.14029577491879464,-0.043515316599607466,0.059837140521034594
1782814249193371600,7.88237158203125,-0.10733633912503719,0.015580723230540751,0.06153740510027855
1782814249213452500,7.90245263671875,-0.17157237219214438,-0.001089329606667161,0.010820979749131947
1782814249233534500,7.922534423828125,-0.07993979815542697,-0.04598799032345414,0.007545136416237801
1782814249253615400,7.942615478515625,-0.002212415352463722,-0.052848669873178,0.002952858456224203
1782814249273697300,7.962697265625,-0.02826104884445667,-0.07137794071100652,-0.031496724563743916
1782814249293778400,7.9827783203125,-0.14048691357672213,-0.08572115803584456,-0.034659828237164764
1782814249313861000,8.002861083984374,-0.18299451443850992,-0.05412950346395373,-0.03593910919167101
1782814249333942300,8.0229423828125,-0.06897007585167884,-0.09136084442324936,-0.03992006858661771
1782814249354024200,8.043024169921875,0.0802653768479824,-0.134741063401103,-0.054955688622407614
1782814249374105000,8.06310498046875,0.11027063901126384,-0.12438150888495146,-0.04255078241638839
1782814249394187300,8.083187255859375,-0.06662906568348408,-0.04270129680298269,0.04859251026604324
1782814249414268200,8.10326806640625,-0.16999182500243187,0.05853073409758508,0.03155269253468141
1782814249434350300,8.123350341796876,0.006285948401689529,0.025766601680219173,0.04540655543999746
1782814249454431200,8.14343115234375,0.13126140459179877,-0.003229921831935644,0.11063419336033985
1782814249474513400,8.163513427734374,0.12565934680104254,0.07428432967700063,0.14447382778842002
1782814249494594000,8.183593994140624,0.12968436453342436,0.0845575941491872,0.19592541728001087
1782814249514676000,8.203676025390624,0.08005611801147461,0.11734561889879405,0.2619088785363361
1782814249534757000,8.223757080078125,0.0411480029463768,0.12038374448567628,0.1831132089147344
1782814249554839000,8.243839111328125,0.023757892206311224,0.02237410969771445,0.07566049513472244
1782814249574920200,8.263920166015625,-0.17582827607095242,0.022816885029152034,-0.03603498904788866
1782814249595002000,8.284002197265625,-0.20738018315434453,0.0764152772910893,-0.12118358962647616
1782814249615083300,8.304083251953125,-0.06999708081185817,-0.019381357622519135,-0.1273848736857064
1782814249635165200,8.324165283203126,0.03399403953850269,-0.0842983586911112,-0.10029811105132103
1782814249655246300,8.344246337890626,0.0784054281949997,-0.1033473425541073,-0.0716528669285588
1782814249675328300,8.364328369140624,0.09777589909732341,-0.0644487259697169,-0.04093587629934772
1782814249695410200,8.38441015625,0.02600362530648708,0.0015052169311791657,0.0771444683484733
1782814249715491300,8.4044912109375,-0.032115970706939695,-0.004510901553183793,0.07706663560559973
1782814249735573200,8.4245732421875,0.016073767444491384,-0.06752228819616138,0.06891019889060407
1782814249755654100,8.444654052734375,0.05861234796643257,-0.01004201299957931,0.11587994852671399
1782814249775736000,8.464736083984375,-0.014015081349015236,0.04783252221159637,0.16305338577507064
1782814249795817200,8.484817138671875,-0.2009428435832262,0.11936419217959046,0.19229149949075652
1782814249815899100,8.504899169921876,-0.19389058698415756,0.13713292697370053,0.1642032681962475
1782814249835980300,8.524980224609376,-0.043591304445266724,0.08025288269259036,0.135879894705303
1782814249856062200,8.545062255859374,0.017217092260718346,0.09483480414412915,0.1337408185836859
1782814249876143000,8.56514306640625,0.0684101038813591,0.11116261941492557,0.14297838333258406
1782814249896225300,8.585225341796875,0.059575640040636056,0.10622611286081374,0.12848585719754918
1782814249916306200,8.60530615234375,0.046451954573392865,0.021015461630374193,0.06309895532857626
1782814249936388400,8.625388427734375,0.0883259337067604,-0.031256723529100416,-0.0064197856481187044
1782814249956469200,8.64546923828125,0.10230945087373255,-0.0569498215816915,-0.011851491840649396
1782814249976551200,8.66555126953125,0.0035562311768531796,-0.0409866749048233,-0.03509677661601454
1782814249996633300,8.68563330078125,-0.06972410908937454,-0.0438632532544434,-0.03926275545535609
1782814250016714000,8.7057138671875,-0.05781564463078975,-0.04610840183272957,-0.03370055475095287
1782814250036796200,8.725796142578124,-0.040994273689389224,-0.039979616754129525,-0.007237641369644552
1782814250056877000,8.745876953125,-0.16040332792401313,0.004151712851971388,0.02045424755103886
1782814250076959200,8.765959228515625,-0.326042218413949,0.06465710802339017,-0.0002941423746757209
1782814250097040100,8.7860400390625,-0.19592238507270812,0.025324483935907482,-0.01137382785892114
1782814250117122000,8.8061220703125,0.07711772647202014,-0.07250365680530667,-0.022941132463328538
1782814250137203200,8.826203125,0.20737083080410956,-0.09996347226947545,-0.018256408713199196
1782814250157285000,8.84628515625,0.055446577411890026,-0.026391893971711395,0.05198527624318376
1782814250177366300,8.8663662109375,-0.043047699087858195,0.008439253978058696,0.00017919249180704355
1782814250197448200,8.8864482421875,0.07837620210051537,-0.06473609154373407,-0.013932042708061634
1782814250217529300,8.906529296875,0.11091536665558814,-0.07046301782317459,0.005174644425231963
1782814250237611300,8.926611328125,-0.07262041505277156,-0.01057743505053222,0.04522076881062239
1782814250257693200,8.946693115234375,-0.2471311787843704,0.0508416408997029,0.06773014052687212
1782814250277774000,8.966774169921875,-0.17820961824953555,0.06788878342099487,0.0383308631664142
1782814250297856000,8.98685595703125,0.006344985112547874,-0.029340076252818106,0.027365689173620193
1782814250317937200,9.006937255859375,0.06785188547670841,-0.010420417857915162,0.0732359714015387
1782814250338019000,9.02701904296875,0.04416530494093895,0.028084523233771322,0.10939866021601483
1782814250358100200,9.047100341796876,-0.03691138828992843,0.07322429923005401,0.13357156296400352
1782814250378182100,9.06718212890625,-0.07094049914181232,0.045492608021944755,0.06703384709209204
1782814250398263000,9.087262939453124,0.0008487257838249206,-0.008891089398786425,0.02217760074492544
1782814250418345000,9.107344970703124,0.0841384188890457,-0.038836145807430146,0.05729233314273879
1782814250438426000,9.127426025390625,0.06693535515367985,0.01834763066060841,0.09897015038318932
1782814250458508000,9.147508056640625,0.014299158987402916,-0.011530132665485143,0.1216948636168614
1782814250478589200,9.167589111328125,-0.0665320350497961,0.003805091371387243,0.10808732188912108
1782814250498671000,9.187671142578125,-0.04315174398422241,-0.022100626518577336,0.06696805184688419
1782814250518753000,9.2077529296875,0.07645487864911556,-0.08596388075053692,0.02414102803869173
1782814250538834200,9.227834228515626,0.060654082927107805,-0.09395926341861485,0.06338460386954248
1782814250558916000,9.247916015625,-0.05705518165230751,-0.038744010544568296,0.028406813990697263
1782814250578997200,9.267997314453124,-0.09151917679011821,-0.03285889802873134,-0.013404420371074229
1782814250599079200,9.2880791015625,-0.13761924918591975,-0.005687836378067732,-0.03767618038365617
1782814250619160000,9.30816015625,-0.07956979579925537,0.008025193284451962,0.0048660168674774466
1782814250639241000,9.328240966796875,-0.07142156065702437,0.027278905939310788,0.017518577691633255
1782814250659323000,9.348322998046875,-0.02254033311009407,0.03177957835942507,0.038216680468525735
1782814250679405000,9.368405029296875,-0.022577157989144322,0.0961420873504132,0.035692459220532324
1782814250699486000,9.38848583984375,0.12091712071001529,0.026802228338271377,0.059495688405912364
1782814250719568100,9.408568115234376,0.24709260033965108,-0.041296690702065826,-0.01135196308698505
1782814250739649000,9.42864892578125,0.16308160722255705,-0.04559665291830897,-0.02257193382475525
1782814250759731000,9.44873095703125,0.10932722068130969,-0.013085253152996301,-0.028381624750513583
1782814250779812000,9.46881201171875,0.049477439874410625,0.011451806732267141,0.07502769539020955
1782814250799894000,9.48889404296875,-0.10973697052597998,-0.023932664251327514,0.07622446742672473
1782814250819975200,9.50897509765625,-0.26887071690559383,-0.002997793576493859,-0.028163305824715643
1782814250840057000,9.52905712890625,-0.17503858699798583,0.01967405695877969,0.1184557720977813
1782814250860138200,9.54913818359375,-0.15908990723788738,0.10297251789234578,0.21621303955987095
1782814250880220200,9.56922021484375,-0.0659919368237257,0.0659676791653037,0.09551337925912812
1782814250900301000,9.589301025390625,0.18161854991018772,-0.08326331655494869,0.04481609699986875
1782814250920383000,9.609383056640626,0.279077638143301,-0.08051029151976108,-0.013323610219825059
1782814250940465000,9.62946484375,0.09965279888510703,-0.017656725786998867,0.08262468985784799
1782814250960546000,9.649546142578124,-0.19406945068240164,0.08080584040023386,0.078687989729736
1782814250980628000,9.6696279296875,-0.08951426670849323,-0.03613455869853496,0.05356136645348742
1782814251000709000,9.689709228515625,0.017526304340362547,-0.06454480675533414,0.05104521891409531
1782814251020791000,9.709791015625,-0.05396539894342422,-0.0257485545668751,0.06750716369226574
1782814251040873000,9.729873046875,-0.11702478944659232,0.0033470454055815934,0.029808990672510114
1782814251060954000,9.7499541015625,-0.19777298137545585,-0.03479658809304237,0.03613945406936109
1782814251081036000,9.7700361328125,-0.1649538308352232,-0.021074571406468748,0.02620397018417716
1782814251101117200,9.7901171875,-0.05686287395060062,-0.024818068783730267,0.07383994691036641
1782814251121199000,9.81019921875,0.04816927988529205,-0.033047260207682845,0.03351069473465904
1782814251141280300,9.8302802734375,0.12174947988092899,-0.05493709351979196,-0.0015865385390818117
1782814251161362200,9.850362060546875,0.11206687477827071,-0.033904388493672014,-0.004186327507626265
1782814251181443000,9.870443115234375,0.07882453038990497,0.013547975293919443,0.021039390495233238
1782814251201525000,9.89052490234375,0.04154313974380493,0.022622531500831246,0.02671456832112744
1782814251221606100,9.910606201171875,0.09568681786358356,-0.004218640608340501,0.0008562332368455827
1782814251241688000,9.93068798828125,0.1310807873278856,-0.011366904927790165,0.0359660337312147
1782814251261769000,9.95076904296875,0.08185060021281242,-0.0033720337163656946,-0.01476898672254756
1782814251281851100,9.97085107421875,-0.039190439137816425,0.05882153373770416,0.06568659720160067
1782814251301933000,9.99093310546875,-0.10059621721506118,0.10033493593037128,0.08465066099381074
1782814251322013700,10.011013671875,0.019705401945114134,0.011880188212171195,0.004741550237592309
1782814251342095600,10.031095703125,0.0981815572887659,-0.06970218951851129,-0.004870254651177674
1782814251362176800,10.0511767578125,-0.0315016382008791,-0.05086706760190427,0.01165763150267303
1782814251382258700,10.0712587890625,-0.18332769191563128,0.04228796676173806,0.03835429884092882
1782814251402339600,10.091339599609375,-0.12943886533975602,0.015361673652380704,0.012428780271951108
1782814251422421800,10.111421875,-0.07206453473567963,0.014569427296146749,0.03144398972950876
1782814251442502700,10.131502685546875,0.08605857329666614,-0.01465988205857575,-0.03717968383729458
1782814251462584800,10.151584716796876,0.26983050184845925,0.000992591233924031,0.1325132312837988
1782814251482665700,10.171665771484374,0.13832885875999926,0.12453136568441986,0.19047515251748262
1782814251502747600,10.19174755859375,-0.006623802053928375,0.11073811039254068,0.0976529303047806
1782814251522829800,10.211829833984375,0.08519640350937843,-0.009627879240736366,0.039465876812022176
1782814251542910700,10.23191064453125,0.1410065535366535,-0.01974763365164399,0.022565686747059225
1782814251562993000,10.251992919921875,-0.17404314621984956,0.0013631050467491149,0.04302565165283158
1782814251583073500,10.272073486328125,-0.1279968498378992,-0.06779343328773975,0.03761710714017972
1782814251603155700,10.29215576171875,0.22442133432626724,-0.16789156478755174,0.11407359322449191
