time,seconds_elapsed,z,y,x
1782814253124215600,0.055215576171875,-0.012790811248123646,-0.015367577783763409,0.038006506860256195
1782814253144297500,0.07529736328125,-0.0049757142551243305,-0.005296424496918917,-0.007684612646698952
1782814253164378600,0.095378662109375,-0.005907708313316107,0.022423457354307175,-0.02803710289299488
1782814253184460500,0.11546044921875,-0.010166725143790245,0.01027639489620924,-0.01485767774283886
1782814253204541700,0.135541748046875,-0.013253986835479736,-0.01792781800031662,-0.0023810702841728926
1782814253224623600,0.15562353515625,0.0011874890187755227,-0.02840394899249077,0.00005586119368672371
1782814253244704800,0.175704833984375,0.014313548803329468,-0.008500376716256142,0.0018038470298051834
1782814253264786700,0.19578662109375,0.018550900742411613,0.004181510303169489,0.010375951416790485
1782814253284867600,0.21586767578125,0.006019598338752985,-0.020481538027524948,0.006989153567701578
1782814253304949500,0.235949462890625,-0.006359492428600788,-0.03760669380426407,-0.014258359558880329
1782814253325030400,0.256030517578125,-0.01094835065305233,-0.012995203025639057,-0.029841039329767227
1782814253345112300,0.2761123046875,0.004212531261146069,0.014746388420462608,-0.024610769003629684
1782814253365193500,0.296193359375,0.009563987143337727,0.011979032307863235,-0.00022972910664975643
1782814253385275400,0.316275390625,0.0007914088782854378,-0.012477315962314606,0.01816735230386257
1782814253405356300,0.336356201171875,0.0012582867639139295,0.006098571699112654,0.019383853301405907
1782814253425438500,0.3564384765625,0.018432583659887314,0.02177475579082966,0.008195525035262108
1782814253445519400,0.376519287109375,0.03346439078450203,0.027276406064629555,0.0024354879278689623
1782814253465601500,0.3966015625,0.031856875866651535,0.010326027870178223,0.0028556871693581343
1782814253485682200,0.41668212890625,0.018082641065120697,-0.010058360174298286,-0.004845519550144672
1782814253505764400,0.436764404296875,0.022053420543670654,-0.002569376491010189,-0.012581581249833107
1782814253525845200,0.45684521484375,0.047137562185525894,0.024537187069654465,-0.0028522657230496407
1782814253545927200,0.47692724609375,0.044682081788778305,-0.006839700974524021,0.01127354521304369
1782814253566008300,0.49700830078125,0.018748309463262558,-0.07594248652458191,-0.00824873149394989
1782814253586090200,0.51709033203125,0.010671345517039299,-0.0622163824737072,-0.030415667220950127
1782814253606171400,0.53717138671875,0.013273009099066257,0.008367493748664856,-0.02901441790163517
1782814253626253300,0.55725341796875,0.009487197734415531,0.0557602159678936,-0.0027568284422159195
1782814253646335500,0.57733544921875,0.011506091803312302,0.04406195878982544,0.021941466256976128
1782814253666416400,0.59741650390625,-0.0006100842147134244,0.0015898593701422215,0.022681256756186485
1782814253686498300,0.617498291015625,-0.00977956224232912,-0.015133317559957504,0.016213709488511086
1782814253706579500,0.637579345703125,-0.016177084296941757,-0.008983228355646133,0.0026516534853726625
1782814253726661400,0.657661376953125,-0.010482864454388618,0.015099660493433475,-0.005905620753765106
1782814253746742300,0.6777421875,-0.006355003919452429,0.014901280403137207,-0.009546514600515366
1782814253766824200,0.69782421875,-0.013207484036684036,-0.016704116016626358,-0.004776195157319307
1782814253786905300,0.7179052734375,-0.016036301851272583,-0.03273589536547661,-0.005178638268262148
1782814253806987300,0.7379873046875,-0.01659577339887619,-0.037986092269420624,-0.0014699415769428015
1782814253827068400,0.758068359375,-0.014132970944046974,-0.032687850296497345,0.014305266551673412
1782814253847150300,0.778150390625,-0.00859826523810625,-0.016764802858233452,0.02344607189297676
1782814253867231500,0.7982314453125,-0.005112944170832634,-0.02274407260119915,0.027611684054136276
1782814253887313400,0.8183134765625,0.0008240373572334647,-0.027372997254133224,0.04361400753259659
1782814253907394300,0.838394287109375,0.003946773707866669,-0.014840727671980858,0.06813938170671463
1782814253927476500,0.8584765625,0.0022213757038116455,-0.019716929644346237,0.06750587373971939
1782814253947557400,0.878557373046875,0.008829731494188309,-0.01109511498361826,0.04617702588438988
1782814253967639600,0.8986396484375,0.024433346465229988,0.003367878496646881,0.02930891327559948
1782814253987720200,0.91872021484375,0.025765584781765938,-0.013590593822300434,0.030859973281621933
1782814254007802400,0.93880224609375,0.03161263093352318,-0.04400181770324707,0.05346239358186722
1782814254027883300,0.95888330078125,0.045010536909103394,-0.08122309297323227,0.08165472000837326
1782814254047965200,0.978965087890625,0.04060966148972511,-0.11403562873601913,0.06768031418323517
1782814254068046300,0.99904638671875,0.013086097314953804,-0.08518397063016891,0.015519925393164158
1782814254088128300,1.019128173828125,0.024166854098439217,0.003453217912465334,-0.037634674459695816
1782814254108209400,1.03920947265625,0.028613418340682983,0.04796803370118141,-0.05563311278820038
1782814254128291300,1.059291259765625,0.016247862949967384,0.016518648713827133,-0.0539875365793705
1782814254148372500,1.07937255859375,0.011855030432343483,-0.030474282801151276,-0.03241545706987381
1782814254168454400,1.099454345703125,0.02997010387480259,-0.02183835208415985,0.010751334950327873
1782814254188535600,1.11953564453125,0.04296572506427765,0.009389214217662811,0.05820956826210022
1782814254208617500,1.139617431640625,0.042450882494449615,0.026847422122955322,0.0609300471842289
1782814254228698400,1.159698486328125,0.03632378578186035,0.03855172172188759,0.022787010297179222
1782814254248780300,1.1797802734375,0.020847197622060776,0.03185442462563515,-0.01032126322388649
1782814254268861200,1.199861083984375,0.01631355658173561,0.0018376768566668034,-0.01836717128753662
1782814254288943400,1.219943359375,0.01493041031062603,0.0034964936785399914,-0.003008655272424221
1782814254309024800,1.240024658203125,0.0032935040071606636,0.010241810232400894,-0.011359896510839462
1782814254329106700,1.260106689453125,-0.007055999245494604,0.015915801748633385,-0.03805692121386528
1782814254349188900,1.28018896484375,-0.01001899316906929,0.015450255014002323,-0.057611629366874695
1782814254369269500,1.30026953125,0.0018591472180560231,0.0024483194574713707,-0.042578112334012985
1782814254389351700,1.3203515625,0.019162973389029503,0.001258639618754387,-0.00221929419785738
1782814254409432600,1.3404326171875,0.020900597795844078,-0.003466904629021883,0.009826235473155975
1782814254429514800,1.3605146484375,0.01714334636926651,0.006166235078126192,0.004547793883830309
1782814254449595600,1.380595703125,0.02083956077694893,0.007565096952021122,0.004929276183247566
1782814254469677600,1.400677490234375,0.01941385306417942,-0.004504538141191006,0.008198044262826443
1782814254489758700,1.4207587890625,0.01862913742661476,-0.0028364115860313177,0.0006429182831197977
1782814254509840600,1.440840576171875,0.008418474346399307,0.008003965020179749,-0.009366982616484165
1782814254529921800,1.460921875,0.0004286221519578248,0.008413273841142654,-0.009633442386984825
1782814254550003700,1.481003662109375,-0.005904753226786852,-0.005669359117746353,-0.0029589454643428326
1782814254570084900,1.5010849609375,-0.0008299712790176272,-0.011813712306320667,0.0003392258659005165
1782814254590166800,1.521166748046875,0.004289968870580196,0.009002521634101868,0.0005270969122648239
1782814254610247700,1.54124755859375,-0.0005433674086816609,0.01721746288239956,-0.0003615906462073326
1782814254630329600,1.56132958984375,-0.006928129121661186,-0.0077032670378685,-0.008071507327258587
1782814254650410800,1.58141064453125,0.004576053004711866,-0.019642477855086327,-0.0038959025405347347
1782814254670492700,1.60149267578125,0.017273828387260437,0.002113534137606621,0.0030983835458755493
1782814254690573600,1.621573486328125,0.005629830993711948,-0.007280770689249039,-0.0271247997879982
1782814254710655700,1.64165576171875,-0.01250172033905983,-0.043343111872673035,-0.06962446868419647
1782814254730736600,1.661736572265625,-0.006167263723909855,-0.015924710780382156,-0.07283159345388412
1782814254750818800,1.68181884765625,0.0030743475072085857,0.007451067678630352,-0.0270787812769413
1782814254770899700,1.701899658203125,0.013928175903856754,0.01238955557346344,0.03953273221850395
1782814254790982000,1.72198193359375,0.01652320846915245,-0.007567049935460091,0.05945862829685211
1782814254811062800,1.742062744140625,0.003430987475439906,-0.019109640270471573,0.016309337690472603
1782814254831144700,1.762144775390625,-0.01115293800830841,-0.009568915702402592,-0.035178977996110916
1782814254851225600,1.7822255859375,-0.014077626168727875,-0.00975356251001358,-0.05758636072278023
1782814254871307500,1.8023076171875,-0.01125927921384573,0.01624906063079834,-0.04045255854725838
1782814254891388700,1.822388671875,-0.020779648795723915,-0.009024357423186302,-0.022202854976058006
1782814254911470600,1.842470703125,-0.028475575149059296,-0.0052866628393530846,-0.02239948883652687
1782814254931551700,1.8625517578125,-0.022213710471987724,-0.0005415142513811588,-0.014869369566440582
1782814254951633700,1.882633544921875,-0.012534856796264648,-0.0012570135295391083,0.0011099755065515637
1782814254971714800,1.90271484375,-0.005378284957259893,-0.00784327182918787,0.004722589161247015
1782814254991796700,1.922796630859375,-0.00947996973991394,0.00090034119784832,-0.0025196156930178404
1782814255011878000,1.9428779296875,-0.015127498656511307,0.0001507708802819252,-0.0006999252364039421
1782814255031959800,1.962959716796875,-0.013073244132101536,-0.010675529018044472,0.0095499437302351
1782814255052040700,1.983040771484375,-0.01176043413579464,-0.004005201160907745,0.01510465145111084
1782814255072123000,2.003122802734375,-0.015071934089064598,0.001467590220272541,0.005958521738648415
1782814255092203500,2.02320361328125,-0.015554851852357388,0.023613344877958298,-0.009970591403543949
1782814255112285700,2.04328564453125,-0.014375302940607071,0.020944742485880852,-0.019030921161174774
1782814255132366600,2.06336669921875,-0.007930589839816093,0.013802504166960716,-0.0026204108726233244
1782814255152448800,2.08344873046875,-0.01104815024882555,0.0026589911431074142,0.030106320977211
1782814255172529700,2.10352978515625,-0.013896177522838116,0.0005459776148200035,0.03879018872976303
1782814255192611600,2.123611572265625,-0.023217225447297096,0.012817813083529472,0.013352937996387482
1782814255212692700,2.143692626953125,-0.010941439308226109,0.033513277769088745,-0.0075912438333034515
1782814255232774700,2.163774658203125,0.0005681408219970763,0.035991840064525604,0.0013937106123194098
1782814255252855800,2.183855712890625,-0.009088407270610332,-0.0031498444732278585,0.012101579457521439
1782814255272937700,2.203937744140625,-0.018085429444909096,-0.031091777607798576,-0.006613575853407383
1782814255293019000,2.224018798828125,-0.009824899956583977,0.00439479760825634,-0.02109243907034397
1782814255313101000,2.24410107421875,-0.0048303185030817986,0.0059097218327224255,-0.0003929946105927229
1782814255333182000,2.264181884765625,-0.004094031639397144,0.0018657627515494823,0.018002083525061607
1782814255353263900,2.284263916015625,-0.00503959134221077,-0.0021965301129966974,0.008153028786182404
1782814255373345000,2.304344970703125,-0.010624686256051064,0.00004188716411590576,-0.011431111954152584
1782814255393427000,2.324427001953125,-0.004588061012327671,-0.009874685667455196,-0.010851786471903324
1782814255413507800,2.3445078125,0.007957927882671356,-0.008617652580142021,0.011252859607338905
1782814255433590000,2.364590087890625,0.009144872426986694,0.009398560039699078,0.03315925598144531
1782814255453671000,2.3846708984375,0.0018787040608003736,-0.0077066570520401,0.033053260296583176
1782814255473753000,2.404753173828125,-0.00007468594412785023,-0.005520227365195751,0.016069836914539337
1782814255493834000,2.424833984375,0.011392353102564812,0.0023241136223077774,0.010655897669494152
1782814255513916000,2.444916015625,0.014967367984354496,-0.010094375349581242,0.013333853334188461
1782814255533997000,2.4649970703125,0.00448527792468667,-0.004828670993447304,0.012865588068962097
1782814255554079000,2.485078857421875,-0.0044824834913015366,0.002405339851975441,0.005216923542320728
1782814255574160000,2.505159912109375,-0.003857401432469487,0.00254779402166605,0.0019229467725381255
1782814255594241800,2.52524169921875,0.0018661743961274624,-0.006308133713901043,0.009771522134542465
1782814255614323000,2.545322998046875,-0.001019867486320436,-0.010244746692478657,0.0041325148195028305
1782814255634404900,2.56540478515625,-0.007639446295797825,0.004649708513170481,-0.007024767808616161
1782814255654486000,2.585486083984375,-0.004300731234252453,0.01720346510410309,-0.016589004546403885
1782814255674568000,2.60556787109375,0.006160177756100893,0.02256484515964985,-0.021182838827371597
1782814255694649000,2.625649169921875,0.010653730481863022,0.0022609042935073376,-0.013884180225431919
1782814255714731000,2.64573095703125,0.008381864987313747,-0.0027291118167340755,0.006993579212576151
1782814255734812000,2.66581201171875,0.011848158203065395,0.0030510639771819115,0.01593177206814289
1782814255754894000,2.68589404296875,0.014085684902966022,0.017654016613960266,-0.005247793160378933
1782814255774975000,2.70597509765625,0.02449340559542179,0.019882047548890114,-0.026468977332115173
1782814255795057200,2.72605712890625,0.029934534803032875,0.006216641049832106,-0.019384199753403664
1782814255815137800,2.7461376953125,0.01570863649249077,-0.023118728771805763,-0.009967023506760597
1782814255835220000,2.766219970703125,-0.0005442655528895557,-0.04186895862221718,-0.025427062064409256
1782814255855300900,2.78630078125,0.0058075920678675175,-0.005076645873486996,-0.02896226942539215
1782814255875382800,2.8063828125,0.011325456202030182,0.02394936978816986,-0.008509746752679348
1782814255895464000,2.8264638671875,0.007242448627948761,0.0034092850983142853,0.013290628790855408
1782814255915545900,2.8465458984375,0.0001441744389012456,-0.00893454346805811,0.0074162231758236885
1782814255935627000,2.866626953125,-0.009293359704315662,-0.001443721354007721,-0.013717050664126873
1782814255955709000,2.886708984375,-0.01356631051748991,0.009914511814713478,-0.01926439069211483
1782814255975791000,2.906791015625,-0.011235182173550129,0.01377481035888195,-0.00667929882183671
1782814255995872000,2.9268720703125,-0.0020961023401468992,0.01155761070549488,0.003335758578032255
1782814256015954000,2.946953857421875,-0.0001284045574720949,0.0035025118850171566,0.003965944983065128
1782814256036035000,2.96703515625,0.000033206946682184935,-0.0068300822749733925,-0.014391922391951084
1782814256056117000,2.987116943359375,0.0013402900658547878,-0.0006405424792319536,-0.029315665364265442
1782814256076198000,3.007197998046875,0.012081540189683437,0.0036812862381339073,-0.03403443098068237
1782814256096279800,3.02727978515625,0.010332646779716015,-0.009110319428145885,-0.034271903336048126
1782814256116361000,3.04736083984375,0.012421436607837677,0.0076927547343075275,-0.017163129523396492
1782814256136443000,3.06744287109375,0.009988880716264248,-0.0026116196531802416,-0.010071633383631706
1782814256156524000,3.08752392578125,0.0009505281923338771,-0.019964436069130898,-0.013820827007293701
1782814256176606000,3.10760595703125,-0.0073472592048347,-0.018170945346355438,-0.01815083436667919
1782814256196687000,3.12768701171875,-0.017500001937150955,-0.00011623790487647057,-0.01460406742990017
1782814256216769000,3.14776904296875,-0.017269957810640335,0.005249088630080223,-0.017509516328573227
1782814256236850000,3.167849853515625,-0.005835648626089096,0.005203354172408581,-0.013077246956527233
1782814256256932000,3.18793212890625,-0.003108777804300189,0.00416441448032856,-0.0022512520663440228
1782814256277013000,3.208012939453125,-0.0029855503235012293,-0.004999204538762569,0.0019039036706089973
1782814256297095200,3.22809521484375,0.0009072215179912746,-0.004596643149852753,-0.004878054838627577
1782814256317175300,3.24817529296875,0.00769526232033968,0.011263428255915642,-0.01490701362490654
1782814256337257500,3.268257568359375,0.0028002478647977114,0.005056393798440695,-0.028919003903865814
1782814256357338400,3.28833837890625,0.0064516691491007805,-0.011834412813186646,-0.027171790599822998
1782814256377420500,3.308420654296875,0.011368092149496078,-0.010789629071950912,-0.008045321330428123
1782814256397501400,3.32850146484375,-0.0013154011685401201,-0.03472643718123436,-0.011632159352302551
1782814256417583400,3.348583251953125,-0.015106607228517532,-0.04575519263744354,-0.03134111687541008
1782814256437664500,3.36866455078125,-0.017627237364649773,-0.00771525502204895,-0.03691837191581726
1782814256457746400,3.388746337890625,-0.004002152476459742,0.019053271040320396,-0.0266354251652956
1782814256477827600,3.40882763671875,0.00676725385710597,0.02844829484820366,-0.0018432647921144962
1782814256497909500,3.428909423828125,-0.003402167931199074,-0.00943703018128872,0.022163037210702896
1782814256517990400,3.448990478515625,-0.014706754125654697,-0.03454611450433731,0.030270498245954514
1782814256538072300,3.469072265625,-0.01639418490231037,-0.01142415776848793,0.017628267407417297
1782814256558153500,3.489153564453125,-0.008038349449634552,-0.0003245691768825054,-0.010446576401591301
1782814256578235400,3.5092353515625,0.000010050280252471566,0.015576591715216637,-0.019833175465464592
1782814256598316500,3.529316650390625,-0.002689403248950839,0.003626593854278326,-0.019414089620113373
1782814256618398500,3.5493984375,0.0015990979736670852,-0.033786121755838394,-0.010934201069176197
1782814256638479400,3.569479248046875,0.009976225905120373,-0.048005905002355576,-0.004285270348191261
1782814256658561500,3.5895615234375,0.023251043632626534,-0.029128283262252808,0.00285996007733047
1782814256678642400,3.609642333984375,0.032458897680044174,-0.006188684608787298,0.00007405807264149189
1782814256698724600,3.629724609375,0.025890957564115524,-0.00633024238049984,-0.015949055552482605
1782814256718805500,3.649805419921875,0.017752137035131454,-0.010388853028416634,-0.021150685846805573
1782814256738887400,3.669887451171875,0.0018656931351870298,-0.01703999750316143,-0.015570646151900291
1782814256758968300,3.68996826171875,0.0061737000942230225,0.0027262005023658276,0.005213635973632336
1782814256779050200,3.71005029296875,0.005633013788610697,0.012198219075798988,0.0178311038762331
1782814256799131400,3.73013134765625,-0.0031946434173732996,0.003920099698007107,0.011875302530825138
1782814256819213300,3.75021337890625,-0.01801050454378128,0.0012106206268072128,0.0018899235874414444
1782814256839294500,3.77029443359375,-0.01834934949874878,0.005720831919461489,-0.0018097655847668648
1782814256859376400,3.79037646484375,-0.014518211595714092,0.00511306943371892,0.00800696387887001
1782814256879457500,3.81045751953125,-0.0005978555418550968,-0.001481547486037016,0.026037748903036118
1782814256899539500,3.83053955078125,0.011908065527677536,-0.0017403976526111364,0.0424460843205452
1782814256919620600,3.85062060546875,0.001741972053423524,-0.002874985570088029,0.03497534990310669
1782814256939702500,3.87070263671875,0.004409518558532,0.028921563178300858,-0.0003943261690437794
1782814256959783700,3.89078369140625,0.01739988662302494,0.047213487327098846,-0.020210640504956245
1782814256979865600,3.910865478515625,0.01432180404663086,0.01552613079547882,-0.014586045406758785
1782814256999946200,3.9309462890625,-0.0032978453673422337,-0.05564939230680466,-0.007893495261669159
1782814257020028400,3.9510283203125,-0.008200140669941902,-0.04960494115948677,-0.01043341401964426
1782814257040109300,3.971109375,0.003190173301845789,0.008574670180678368,-0.010816078633069992
1782814257060191500,3.99119140625,0.008705133572220802,0.047093864530324936,0.0061764344573020935
1782814257080272400,4.0112724609375,0.005270785186439753,0.013873105868697166,0.021262766793370247
1782814257100354600,4.0313544921875,-0.004332560580223799,-0.010709298774600029,0.030851062387228012
1782814257120435500,4.051435546875,-0.015186007134616375,-0.009895437397062778,0.022076480090618134
1782814257140517400,4.071517333984375,-0.015404700301587582,0.01694304682314396,0.010835682041943073
1782814257160598500,4.0915986328125,-0.016187472268939018,0.02437606081366539,0.005593647249042988
1782814257180680400,4.111680419921875,-0.01623406447470188,0.019297845661640167,0.009289700537919998
1782814257200761600,4.13176171875,-0.01946578361093998,-0.0016787354834377766,0.0056603136472404
1782814257220843500,4.151843505859375,-0.010455485433340073,-0.009882265701889992,0.0019313252996653318
1782814257240924400,4.17192431640625,-0.0033566406928002834,-0.0076864371076226234,0.0008325970266014338
1782814257261006300,4.19200634765625,-0.0009399083210155368,-0.006813216954469681,-0.00021583796478807926
1782814257281087500,4.21208740234375,-0.00163978710770607,-0.008127487264573574,0.009905772283673286
1782814257301169400,4.23216943359375,-0.002234432380646467,0.00913349911570549,0.020058896392583847
1782814257321250600,4.25225048828125,0.00010774057591333985,0.01833876594901085,0.024468116462230682
1782814257341332700,4.272332763671875,0.002603882923722267,0.023869378492236137,0.02441529743373394
1782814257361413600,4.29241357421875,0.0023760448675602674,0.012405894696712494,0.017156433314085007
1782814257381495800,4.312495849609375,-0.0022108973935246468,0.0036273468285799026,0.005017160438001156
1782814257401576700,4.33257666015625,-0.004829051438719034,0.020016971975564957,0.00016141869127750397
1782814257421659000,4.352658935546875,-0.00444349879398942,0.02230636402964592,0.0006478819996118546
1782814257441739800,4.37273974609375,0.004908303264528513,0.026251940056681633,0.00703432597219944
1782814257461821700,4.39282177734375,0.008760921657085419,-0.002178784226998687,0.012906089425086975
1782814257481902800,4.41290283203125,0.010449035093188286,-0.012667957693338394,0.026048466563224792
1782814257501984800,4.43298486328125,0.008946987800300121,-0.0067582083866000175,0.021438565105199814
1782814257522065700,4.453065673828125,0.0011184359900653362,-0.004770209081470966,-0.0020628576166927814
1782814257542147800,4.47314794921875,0.005155586171895266,-0.01114523783326149,-0.01278628595173359
1782814257562228700,4.493228759765625,0.015192593447864056,0.0007109190337359905,-0.004777679685503244
1782814257582310700,4.513310546875,0.0033842534758150578,-0.007798755541443825,0.002002191497012973
1782814257602391800,4.533391845703125,-0.013671154156327248,-0.039072707295417786,-0.007764113135635853
1782814257622473700,4.5534736328125,-0.011183292604982853,-0.007743059657514095,-0.011438267305493355
1782814257642555000,4.573554931640625,-0.005477947648614645,0.02838827855885029,0.001610440551303327
1782814257662636800,4.59363671875,0.0020871523302048445,0.021282967180013657,0.014694320037961006
1782814257682717700,4.6137177734375,0.005950956605374813,0.009968912228941917,0.02687058411538601
1782814257702800000,4.6337998046875,-0.0012161553604528308,-0.02401425689458847,0.01720159314572811
1782814257722880800,4.653880859375,-0.0023868586868047714,-0.014886287041008472,-0.0015511633828282356
1782814257742963000,4.673962890625,0.009372293949127197,0.00017399992793798447,-0.020206348970532417
1782814257763043600,4.694043701171875,0.023000385612249374,0.01495399046689272,-0.013628486543893814
1782814257783125800,4.714125732421875,0.023052914068102837,0.009563799016177654,0.0020887483842670918
1782814257803206700,4.73420654296875,0.0194296445697546,-0.012702865526080132,0.006894601508975029
1782814257823288600,4.75428857421875,0.02914351224899292,-0.008135712705552578,-0.00016102846711874008
1782814257843369700,4.77436962890625,0.032623808830976486,0.001427114475518465,-0.0024980443995445967
1782814257863451600,4.79445166015625,0.02442469634115696,0.0013578981161117554,0.004907320253551006
1782814257883532800,4.81453271484375,0.013383418321609497,-0.0009105310309678316,0.012921929359436035
1782814257903614700,4.83461474609375,0.008716902695596218,0.0012612715363502502,0.009665114805102348
1782814257923695900,4.85469580078125,-0.002054419368505478,0.0023690806701779366,-0.0013302131555974483
1782814257943777800,4.87477783203125,-0.009872721508145332,0.013504063710570335,-0.0026063784025609493
1782814257963859000,4.89485888671875,-0.015824103727936745,0.01075649168342352,-0.009565412998199463
1782814257983940900,4.91494091796875,-0.0189705528318882,0.007116431836038828,-0.016115549951791763
1782814258004021800,4.935021728515625,-0.018951911479234695,0.016349611803889275,-0.005363304167985916
1782814258024103700,4.955103759765625,-0.011766765266656876,0.02353876829147339,0.01691105216741562
1782814258044185600,4.975185546875,-0.005283209960907698,0.02017637901008129,0.021779071539640427
1782814258064266800,4.995266845703125,0.0032574061769992113,0.0042882319539785385,0.006841701455414295
1782814258084348700,5.0153486328125,0.005838125012814999,-0.0015974314883351326,-0.0029637962579727173
1782814258104429800,5.035429931640625,0.0120365209877491,0.0021141129545867443,-0.010195260867476463
1782814258124511700,5.05551171875,0.009931489825248718,0.0143283037468791,-0.009890464134514332
1782814258144592600,5.075592529296875,0.01083333883434534,0.0026234639808535576,-0.013840852305293083
1782814258164674800,5.0956748046875,0.02582087554037571,0.008296042680740356,-0.019587364047765732
1782814258184755700,5.115755615234375,0.01875230111181736,-0.006284666713327169,-0.03394059091806412
1782814258204838000,5.135837890625,0.000516631524078548,-0.03748869523406029,-0.048055633902549744
1782814258224918800,5.155918701171875,-0.005564250983297825,-0.008696762844920158,-0.034262534230947495
1782814258245001000,5.1760009765625,0.0053465054370462894,0.019372565671801567,0.0010471907444298267
1782814258265081600,5.19608154296875,0.010871980339288712,0.013667665421962738,0.038480911403894424
1782814258285163500,5.21616357421875,0.010705988854169846,0.002691231667995453,0.04302914813160896
1782814258305244700,5.23624462890625,-0.003516468917950988,-0.006692786701023579,0.012878786772489548
1782814258325327400,5.256327392578125,-0.011391513049602509,-0.004227712284773588,-0.01937280222773552
1782814258345408500,5.276408447265625,0.0023575113154947758,0.006147481966763735,-0.02649826370179653
1782814258365490400,5.296490478515625,0.0023723256308585405,0.009615782648324966,-0.021791990846395493
1782814258385571600,5.316571533203125,-0.00487326318398118,0.014330771751701832,-0.021885106340050697
1782814258405653500,5.336653564453125,-0.004749920219182968,-0.0037712925113737583,-0.030031627044081688
1782814258425734400,5.356734375,0.0017532655037939548,-0.006388211622834206,-0.01898365281522274
1782814258445816600,5.376816650390625,0.010717074386775494,-0.01226048730313778,-0.004891037940979004
1782814258465897500,5.3968974609375,0.020704027265310287,-0.011605948209762573,-0.008564537391066551
1782814258485979600,5.416979736328125,0.017193147912621498,0.0005813203752040863,-0.008706758730113506
1782814258506060500,5.437060546875,0.010667132213711739,-0.0006285933777689934,-0.003467010799795389
1782814258526142700,5.457142822265625,0.009978605434298515,-0.00997968576848507,0.0035064108669757843
1782814258546223400,5.477223388671875,0.006253780331462622,-0.020766379311680794,-0.0011443807743489742
1782814258566305300,5.49730517578125,-0.0027671547140926123,-0.0018697353079915047,-0.009017790667712688
1782814258586386400,5.517386474609375,-0.014028584584593773,0.0009371391497552395,-0.00450787553563714
1782814258606468400,5.53746826171875,-0.01254117488861084,-0.001743710832670331,0.011217300780117512
1782814258626549500,5.557549560546875,-0.005142900161445141,-0.016492392867803574,0.007707105949521065
1782814258646631400,5.57763134765625,-0.004230106249451637,-0.0072894832119345665,-0.003500161226838827
1782814258666712600,5.597712646484375,-0.010392295196652412,-0.0026087770238518715,-0.016706977039575577
1782814258686794500,5.61779443359375,-0.009635158814489841,0.0017303116619586945,-0.01817650906741619
1782814258706876400,5.63787646484375,-0.008076182566583157,-0.01026773639023304,-0.012680364772677422
1782814258726957600,5.65795751953125,-0.01107171829789877,-0.014755863696336746,-0.0002800058573484421
1782814258747039500,5.67803955078125,-0.004294670186936855,-0.013453824445605278,0.018517794087529182
1782814258767120600,5.69812060546875,-0.0012170092668384314,-0.0015962629113346338,0.011957280337810516
1782814258787202600,5.71820263671875,-0.009993595071136951,-0.029928477481007576,-0.02799241803586483
1782814258807283500,5.738283447265625,-0.009747998788952827,-0.026252904906868935,-0.03529433533549309
1782814258827365400,5.758365478515625,-0.006335944402962923,0.004842864815145731,0.0068734753876924515
1782814258847446500,5.778446533203125,0.0045221541076898575,0.010465070605278015,0.051090508699417114
1782814258867528400,5.798528564453125,0.008117979392409325,-0.0012825943995267153,0.06139877438545227
1782814258887609600,5.818609619140625,-0.0010213919449597597,-0.009698137640953064,0.03078419528901577
1782814258907691500,5.83869140625,-0.012129484675824642,0.002741697244346142,-0.014929091557860374
1782814258927772400,5.8587724609375,-0.009604725055396557,0.005718259606510401,-0.04241863638162613
1782814258947854600,5.8788544921875,0.0006598744075745344,0.016549881547689438,-0.044701121747493744
1782814258967936500,5.8989365234375,0.0014600387075915933,0.023534897714853287,-0.029406582936644554
1782814258988017700,5.919017578125,-0.008182241581380367,-0.006705004721879959,-0.016257047653198242
1782814259008099600,5.939099609375,-0.010244631208479404,-0.04587581753730774,-0.005944308824837208
1782814259028180500,5.959180419921875,0.00432768277823925,-0.041972797363996506,-0.00460708886384964
1782814259048262700,5.9792626953125,0.015545256435871124,-0.013665396720170975,-0.006818747613579035
1782814259068343300,5.99934326171875,0.01362995058298111,0.010011676698923111,0.0005441810935735703
1782814259088425500,6.019425537109375,0.011514497920870781,0.014585369266569614,0.0078261848539114
1782814259108506400,6.03950634765625,0.005602319724857807,0.002349717076867819,0.002508738311007619
1782814259128588500,6.059588623046875,0.0016233900096267462,0.001647111028432846,-0.0044785309582948685
1782814259148669400,6.07966943359375,0.0021908357739448547,0.01597052626311779,0.00838390737771988
1782814259168751400,6.09975146484375,0.004819780122488737,0.028343480080366135,0.034368786960840225
1782814259188832500,6.11983251953125,0.0004561426176223904,0.02938072383403778,0.041462793946266174
1782814259208914400,6.13991455078125,-0.0014256727881729603,0.030135925859212875,0.028297219425439835
1782814259228995600,6.15999560546875,-0.005005558021366596,0.0314464196562767,0.02102087251842022
1782814259249077500,6.180077392578125,0.0005654829437844455,0.026419099420309067,0.02471231110394001
1782814259269159700,6.20015966796875,0.005078742280602455,0.018942542374134064,0.029266582801938057
1782814259289240600,6.220240478515625,-0.002216567285358906,0.019892921671271324,0.01921163499355316
1782814259309322500,6.240322509765625,-0.007597230840474367,0.023131422698497772,-0.005289831664413214
1782814259329403000,6.26040283203125,0.005087633151561022,0.017912983894348145,-0.01705523207783699
1782814259349484800,6.28048486328125,0.010037865489721298,0.01657113991677761,-0.00200644601136446
1782814259369565700,6.300565673828125,-0.00027762248646467924,-0.03191303834319115,-0.004760420881211758
1782814259389647600,6.320647705078125,-0.0016439012251794338,-0.02181960642337799,-0.01757732406258583
1782814259409728800,6.340728759765625,-0.0021958493161946535,0.009520746767520905,-0.024972887709736824
1782814259429810700,6.360810791015625,-0.009497206658124924,0.026754971593618393,-0.018700886517763138
1782814259449891800,6.380891845703125,-0.010740155354142189,0.013288820162415504,-0.009214911609888077
1782814259469973800,6.400973876953125,-0.010667184367775917,-0.0005074194632470608,0.0032918257638812065
1782814259490055000,6.421054931640625,-0.016425471752882004,-0.01333053968846798,0.003796494798734784
1782814259510136800,6.44113671875,-0.02518383599817753,0.0010656379163265228,-0.0007154024206101894
1782814259530218000,6.461218017578125,-0.025035282596945763,0.009836616925895214,-0.011167716234922409
1782814259550300000,6.4812998046875,-0.026514338329434395,0.012483310885727406,-0.010715453885495663
1782814259570380800,6.501380859375,-0.022804617881774902,0.004194976761937141,0.003018410410732031
1782814259590463000,6.521462890625,-0.024352505803108215,0.000030185095965862274,0.0082729272544384
1782814259610545000,6.541544921875,-0.018550103530287743,0.0041405693627893925,0.008033405058085918
1782814259630625800,6.561625732421875,-0.01281773578375578,-0.0035141860134899616,0.009209774434566498
1782814259650707700,6.581707763671875,-0.011531024239957333,-0.0030825792346149683,0.006887651514261961
1782814259670788900,6.601788818359375,-0.010062066838145256,0.0014391443692147732,0.001294848509132862
1782814259690870800,6.621870849609375,-0.012714888900518417,0.013556201010942459,-0.001258451258763671
1782814259710951700,6.64195166015625,-0.015573118813335896,0.0021016732789576054,-0.00213892781175673
1782814259731033900,6.662033935546875,-0.014951626770198345,-0.009089579805731773,0.004152231849730015
1782814259751114800,6.68211474609375,-0.010017765685915947,-0.015122320502996445,0.006080652587115765
1782814259771197000,6.702197021484375,-0.012581821531057358,-0.008173977956175804,0.013366538099944592
1782814259791277800,6.72227783203125,-0.017931943759322166,0.008723577484488487,0.019645674154162407
1782814259811360000,6.742360107421875,-0.01419711485505104,0.019580921158194542,0.016004450619220734
1782814259831441000,6.76244091796875,-0.005237532313913107,0.019489724189043045,0.014810264110565186
1782814259851522800,6.782522705078125,-0.001761699328199029,0.00940006598830223,0.011234401725232601
1782814259871603700,6.802603759765625,-0.01726771518588066,-0.022747555747628212,-0.009030358865857124
1782814259891685600,6.822685546875,-0.01564043201506138,-0.05095111206173897,-0.040852177888154984
1782814259911766800,6.842766845703125,0.010616028681397438,-0.027188673615455627,-0.04160795733332634
1782814259931848700,6.8628486328125,0.016574470326304436,-0.010401361621916294,-0.013654082082211971
1782814259951929900,6.882929931640625,0.006451184395700693,-0.05053035169839859,-0.007666672579944134
1782814259972011800,6.90301171875,0.016003359109163284,-0.03987305611371994,-0.0167344082146883
1782814259992093700,6.92309375,0.02722746692597866,-0.006208980921655893,-0.021254796534776688
1782814260012174800,6.9431748046875,0.03176513686776161,0.026044264435768127,-0.004161511547863483
1782814260032256800,6.9632568359375,0.03376789763569832,0.03520762920379639,0.020078560337424278
1782814260052338000,6.983337890625,0.03038766421377659,0.0047753434628248215,0.01687770150601864
1782814260072419800,7.003419921875,0.02404511719942093,-0.011284608393907547,-0.007050713058561087
1782814260092501000,7.0235009765625,0.02060438133776188,-0.0033900660928338766,-0.01553754135966301
1782814260112583000,7.0435830078125,0.02721591480076313,0.013253731653094292,-0.0018457439728081226
1782814260132663800,7.063663818359375,0.024121370166540146,0.012987206690013409,0.018907863646745682
1782814260152745700,7.083745849609375,0.018343504518270493,-0.03369684889912605,0.00346031179651618
1782814260172827000,7.103826904296875,0.004459797404706478,-0.0490642786026001,-0.03834864869713783
1782814260192908800,7.12390869140625,-0.0037973718717694283,-0.028333939611911774,-0.06830237060785294
1782814260212989700,7.14398974609375,0.0026038791984319687,-0.014765450730919838,-0.05826793983578682
1782814260233071900,7.16407177734375,0.011588864959776402,0.002897067926824093,-0.01111043244600296
1782814260253152800,7.18415283203125,0.009211069904267788,-0.01774642989039421,0.026920272037386894
1782814260273235000,7.20423486328125,-0.011623041704297066,-0.06297537684440613,0.013649530708789825
1782814260293315800,7.22431591796875,-0.016243450343608856,-0.02772217057645321,-0.01768684573471546
1782814260313397800,7.244397705078125,-0.010886273346841335,0.01663253642618656,-0.032492246478796005
1782814260333478700,7.264478759765625,-0.006343465764075518,0.02852790802717209,-0.012513594701886177
1782814260353560600,7.284560546875,-0.006177989766001701,0.023182881996035576,0.01942659728229046
1782814260373642800,7.304642822265625,-0.016508854925632477,0.006130970548838377,0.03061801940202713
1782814260393723400,7.324723388671875,-0.006699199788272381,0.013464849442243576,0.02811538055539131
1782814260413805600,7.3448056640625,0.014451371505856514,0.016293562948703766,0.02720682881772518
1782814260433886500,7.364886474609375,0.015321958810091019,0.006710975430905819,0.029345346614718437
1782814260453968600,7.38496875,-0.0006344090215861797,-0.011054947040975094,0.005561366677284241
1782814260474049500,7.405049560546875,0.006312090437859297,0.006755358539521694,-0.020770663395524025
1782814260494131500,7.42513134765625,0.01753750443458557,0.010434566996991634,-0.012529952451586723
1782814260514212600,7.445212646484375,0.0043775057420134544,-0.035090669989585876,0.014181937091052532
1782814260534294500,7.46529443359375,0.00795233529061079,-0.06786392629146576,0.016074780374765396
1782814260554375700,7.485375732421875,0.01192235667258501,-0.034014832228422165,-0.0030865368898957968
1782814260574457600,7.50545751953125,-0.0035634306259453297,0.017816966399550438,-0.019500218331813812
1782814260594538800,7.525538818359375,-0.007334290072321892,0.03672955557703972,-0.018870940431952477
1782814260614620700,7.54562060546875,-0.001662973198108375,0.018321707844734192,-0.002820871537551284
1782814260634701600,7.56570166015625,-0.0024174596183001995,-0.010228879749774933,0.009545132517814636
1782814260654783500,7.585783447265625,-0.011655178852379322,-0.015166016295552254,-0.003048274666070938
1782814260674864600,7.60586474609375,-0.012174216099083424,0.0008490714244544506,-0.030305609107017517
1782814260694946600,7.625946533203125,-0.009762355126440525,0.02340659871697426,-0.03497132658958435
1782814260715027500,7.64602734375,-0.003152277087792754,0.012141263112425804,-0.009539550170302391
1782814260735109600,7.666109619140625,0.004179568961262703,-0.012824292294681072,0.013102234341204166
1782814260755190500,7.6861904296875,0.01092124916613102,-0.030470235273241997,0.014082626439630985
1782814260775272700,7.706272705078125,0.015700479969382286,-0.02543734200298786,0.010932997800409794
1782814260795353600,7.726353515625,0.01848152093589306,0.0013812882825732231,0.012776638381183147
1782814260815435500,7.746435546875,0.021539490669965744,0.010124538093805313,0.013653198257088661
1782814260835517700,7.766517578125,0.013204110786318779,0.012087345123291016,0.00641192402690649
1782814260855598600,7.7865986328125,-0.0025796331465244293,0.015141093172132969,-0.0049202414229512215
1782814260875680800,7.8066806640625,-0.005952715873718262,0.01180703192949295,-0.006239396519958973
1782814260895761400,7.826761474609375,-0.0032147844322025776,-0.00759680662304163,0.00810779444873333
1782814260915843600,7.846843505859375,-0.005284756887704134,-0.017708543688058853,0.02271324396133423
1782814260935924500,7.866924560546875,-0.0143879484385252,-0.021513063460588455,0.009005126543343067
1782814260956006400,7.88700634765625,-0.02253345400094986,0.000982366967946291,-0.020502610132098198
1782814260976087600,7.907087646484375,-0.018484855070710182,0.02155924029648304,-0.04049338400363922
1782814260996169500,7.92716943359375,-0.020337706431746483,0.014234631322324276,-0.03665393218398094
1782814261016250600,7.947250732421875,-0.03589511662721634,-0.02881348878145218,-0.038638412952423096
1782814261036332500,7.96733251953125,-0.03794686868786812,-0.04662884771823883,-0.03900346904993057
1782814261056413700,7.98741357421875,-0.030723055824637413,-0.04535922408103943,-0.037014205008745193
1782814261076495600,8.00749560546875,-0.03577693551778793,-0.027044396847486496,-0.025217998772859573
1782814261096576800,8.02757666015625,-0.04501946270465851,-0.0023505734279751778,-0.03895694762468338
1782814261116658700,8.04765869140625,-0.01781259849667549,0.0038663940504193306,-0.038469020277261734
1782814261136739600,8.067739501953126,-0.016741536557674408,0.011286798864603043,-0.01221475750207901
1782814261156821500,8.087821533203124,-0.016336824744939804,0.03321230411529541,0.03208431601524353
1782814261176902700,8.107902587890624,-0.0017947314772754908,0.021922701969742775,0.060473013669252396
1782814261196984600,8.127984619140625,0.006609045900404453,0.0169391892850399,0.06202872842550278
1782814261217065500,8.1480654296875,-0.004570371937006712,0.013609172776341438,0.03381120413541794
1782814261237147600,8.168147705078125,-0.01279059611260891,0.021296285092830658,0.0094494903460145
1782814261257228500,8.188228515625,-0.00815068744122982,0.03662152215838432,0.010466023348271847
1782814261277310700,8.208310791015625,0.007961338385939598,0.012282424606382847,0.0346466600894928
1782814261297391600,8.2283916015625,0.007293198723345995,-0.03288233280181885,0.05049659311771393
1782814261317474000,8.24847412109375,-0.005177649669349194,-0.04933565482497215,0.024261467158794403
1782814261337556200,8.26855615234375,-0.009728468954563141,-0.02315446548163891,-0.019628265872597694
1782814261357637000,8.28863720703125,-0.0026583599392324686,0.007421675603836775,-0.0420653373003006
1782814261377719000,8.308718994140625,0.006121600978076458,0.004852134734392166,-0.022348418831825256
1782814261397800200,8.32880029296875,0.006761555094271898,-0.016951516270637512,0.0169839970767498
1782814261417882000,8.348882080078125,0.007353640161454678,-0.024201927706599236,0.041093118488788605
1782814261437963000,8.368962890625,0.013887236826121807,0.0031008454971015453,0.036291494965553284
1782814261458045000,8.389044921875,0.019949166104197502,0.04144669696688652,0.017826899886131287
1782814261478126000,8.4091259765625,0.017577707767486572,0.04277671128511429,0.005122504197061062
1782814261498208000,8.4292080078125,0.01690703257918358,0.014365989714860916,0.00998168159276247
1782814261518289200,8.4492890625,0.026644160971045494,-0.010797470808029175,0.016201935708522797
1782814261538371000,8.46937109375,0.03788847103714943,-0.02478104643523693,0.023449169471859932
1782814261558452200,8.4894521484375,0.0383911095559597,-0.021731708198785782,0.02312414161860943
1782814261578534100,8.5095341796875,0.023885352537035942,-0.009511137381196022,0.011070468463003635
1782814261598615300,8.529615234375,0.015673698857426643,-0.000632737297564745,-0.008495299145579338
1782814261618697200,8.549697265625,0.024290230125188828,0.021197188645601273,-0.006898237392306328
1782814261638777900,8.56977783203125,0.015973558649420738,0.011791538447141647,0.003916777670383453
1782814261658860300,8.5898603515625,0.01035260409116745,-0.020550454035401344,0.010747305117547512
1782814261678941000,8.60994091796875,0.013382735662162304,-0.012659675441682339,0.011571436189115047
1782814261699023000,8.630023193359374,0.015113879926502705,0.0017739767208695412,0.002916188444942236
1782814261719104000,8.65010400390625,0.010482716374099255,0.03225771337747574,0.0039621079340577126
1782814261739186200,8.670186279296875,0.004114922136068344,0.029942208901047707,0.009477274492383003
1782814261759267000,8.69026708984375,-0.00489549245685339,0.005717303603887558,0.010077586397528648
1782814261779349000,8.710348876953125,-0.01464209146797657,-0.005988912656903267,-0.005243491847068071
1782814261799430100,8.73043017578125,-0.0193281639367342,-0.0044490015134215355,-0.027239102870225906
1782814261819512000,8.750511962890625,-0.023583954200148582,0.029321517795324326,-0.025331726297736168
1782814261839593200,8.77059326171875,-0.026495881378650665,0.02519780956208706,-0.0030176006257534027
1782814261859675100,8.790675048828126,-0.02055981010198593,0.004478492774069309,0.010659866034984589
1782814261879756000,8.810756103515626,-0.009770344942808151,-0.0032495136838406324,0.011224932037293911
1782814261899838000,8.830837890625,-0.006157298106700182,0.0002647479996085167,0.010769208893179893
1782814261919919000,8.850919189453125,-0.009357108734548092,-0.0007951748557388783,0.01396084949374199
1782814261940001000,8.8710009765625,-0.010148268193006516,-0.0006550461985170841,0.009224474430084229
1782814261960083000,8.8910830078125,-0.00967912282794714,0.00899170059710741,-0.0014051448088139296
1782814261980164000,8.9111640625,-0.007087106816470623,0.009037798270583153,0.010930530726909637
1782814262000246000,8.93124609375,-0.006506194360554218,0.0009135091677308083,0.03230177238583565
1782814262020327200,8.9513271484375,-0.00829881988465786,0.0036351163871586323,0.03644438087940216
1782814262040409000,8.9714091796875,-0.008253175765275955,0.016023363918066025,0.03762616962194443
1782814262060490200,8.991490234375,-0.004735075868666172,-0.0003196103498339653,0.0431235246360302
1782814262080572200,9.011572265625,-0.004320554435253143,-0.001493711257353425,0.04643843695521355
1782814262100653000,9.031653076171875,0.00036605435889214277,0.008500880561769009,0.03389958292245865
1782814262120735200,9.0517353515625,-0.002172762993723154,0.020971326157450676,0.010591361671686172
1782814262140816000,9.07181591796875,-0.005195197183638811,0.011149952188134193,-0.02316512167453766
1782814262160898000,9.09189794921875,-0.0009548000525683165,-0.003087736666202545,-0.029950140044093132
1782814262180979000,9.11197900390625,0.010558160953223705,0.0072838664054870605,0.005216897465288639
1782814262201061000,9.13206103515625,0.015145176090300083,0.011587366461753845,0.01608407497406006
1782814262221142000,9.15214208984375,0.015931379050016403,-0.014938808977603912,-0.02243979461491108
1782814262241224000,9.172223876953124,0.013771810568869114,-0.01125449500977993,-0.056822918355464935
1782814262261305000,9.19230517578125,0.0036459174007177353,0.006340228486806154,-0.02655491977930069
1782814262281387000,9.212386962890625,0.011437054723501205,0.008466986007988453,0.02603769488632679
1782814262301468200,9.23246826171875,0.02498944103717804,0.0017820373177528381,0.0510898120701313
1782814262321550600,9.252550537109375,0.014382928609848022,-0.010173998773097992,0.026547430083155632
1782814262341631500,9.272631591796875,-0.005849420092999935,0.002052517142146826,-0.01915041171014309
1782814262361713400,9.29271337890625,-0.008875303901731968,0.0035771774128079414,-0.03322308883070946
1782814262381794600,9.312794677734376,0.00014173903036862612,0.0016875001601874828,-0.011218002066016197
1782814262401876500,9.33287646484375,0.0005368107231333852,-0.00798775814473629,0.011281216517090797
1782814262421957400,9.352957275390626,-0.009297440759837627,-0.009748021140694618,0.010226949118077755
1782814262442039600,9.37303955078125,-0.022647172212600708,-0.00017451029270887375,-0.008995357900857925
1782814262462120400,9.393120361328124,-0.0217803455889225,0.004739935044199228,-0.02109197899699211
1782814262482202600,9.41320263671875,-0.00695806834846735,-0.002323516644537449,-0.023046113550662994
1782814262502283500,9.433283447265625,0.0007315429975278676,-0.006544893607497215,-0.0043629733845591545
1782814262522365700,9.45336572265625,-0.004034943878650665,-0.013474198058247566,0.014213994145393372
1782814262542446600,9.473446533203125,-0.0157210361212492,-0.008346276357769966,0.016560805961489677
1782814262562528500,9.493528564453126,-0.02041003853082657,-0.004346402827650309,0.0042918589897453785
1782814262582609400,9.513609375,-0.02112904191017151,-0.008466968312859535,0.0012685777619481087
1782814262602691300,9.53369140625,-0.018750004470348358,-0.007893170230090618,0.018386054784059525
1782814262622772500,9.5537724609375,-0.014923875220119953,-0.007029927335679531,0.02868182584643364
1782814262642854400,9.5738544921875,-0.015090524218976498,0.003229948226362467,0.018800223246216774
1782814262662935600,9.593935546875,-0.018601711839437485,0.007832206785678864,-0.002054366050288081
1782814262683017500,9.614017578125,-0.02342049777507782,-0.004055301658809185,-0.02234017476439476
1782814262703098600,9.6340986328125,-0.017176568508148193,-0.02341223508119583,-0.029711879789829254
1782814262723180500,9.6541806640625,-0.004227451980113983,-0.01529822126030922,-0.02252902090549469
1782814262743262500,9.674262451171876,-0.0005921381525695324,0.0052703688852488995,-0.008721262216567993
1782814262763343600,9.694343505859376,-0.009998015128076077,-0.00808165967464447,-0.020148655399680138
1782814262783425500,9.714425537109374,-0.008001902140676975,-0.02769065462052822,-0.041382741183042526
1782814262803506700,9.734506591796874,-0.00033470048219896853,-0.012745767831802368,-0.025035813450813293
1782814262823588600,9.754588623046875,-0.0026134515646845102,0.0017769061960279942,0.0213007889688015
1782814262843669500,9.77466943359375,-0.002262254012748599,0.009708472527563572,0.047341082245111465
1782814262863751400,9.79475146484375,-0.00433234591037035,-0.005410018842667341,0.03135073184967041
1782814262883832600,9.81483251953125,-0.021297717466950417,-0.01627662032842636,-0.011813468299806118
1782814262903914500,9.83491455078125,-0.028708001598715782,-0.006153919268399477,-0.04167664796113968
1782814262923995400,9.854995361328125,-0.02125181257724762,0.002818442415446043,-0.0239664725959301
1782814262944077600,9.87507763671875,-0.017055444419384003,0.008404761552810669,0.02048245631158352
1782814262964158500,9.895158447265626,-0.02269735001027584,-0.007652768399566412,0.036695510149002075
1782814262984240600,9.91524072265625,-0.02038155496120453,-0.015676990151405334,0.01734975352883339
1782814263004321500,9.935321533203124,-0.010710041970014572,0.013389299623668194,-0.002494417130947113
1782814263024403500,9.955403564453125,-0.00408466812223196,0.02634134143590927,0.0021268788259476423
1782814263044484600,9.975484619140625,0.0017127377213910222,0.013032300397753716,0.02883247844874859
1782814263064566500,9.99556640625,0.008738079108297825,-0.01425466313958168,0.043854132294654846
1782814263084647400,10.0156474609375,0.006846237927675247,-0.012011880055069923,0.019451985135674477
1782814263104729300,10.035729248046875,-0.0027162753976881504,-0.00038911495357751846,-0.017467349767684937
1782814263124810500,10.055810546875,-0.011000579223036766,0.0017439979128539562,-0.03144579008221626
1782814263144892400,10.075892333984376,-0.0082077132537961,0.008576417341828346,-0.0023813415318727493
1782814263164973600,10.0959736328125,0.007709875702857971,0.005956660956144333,0.03465733677148819
1782814263185055500,10.116055419921874,0.018249690532684326,0.005047577433288097,0.046063415706157684
1782814263205136600,10.13613671875,0.01499859057366848,-0.002142663113772869,0.029803164303302765
1782814263225218600,10.156218505859375,0.006970061920583248,-0.004378364887088537,-0.0009306350257247686
1782814263245299500,10.176299560546875,0.00006822682917118073,-0.004676203243434429,-0.024435311555862427
1782814263265381600,10.196381591796875,-0.003479726379737258,0.00010112253949046135,-0.033877573907375336
1782814263285462500,10.216462646484375,-0.0028601204976439476,-0.0077566346153616905,-0.03959236666560173
1782814263305544700,10.236544677734376,-0.005813742522150278,-0.02752915397286415,-0.044855549931526184
1782814263325625300,10.256625244140626,-0.008885256014764309,-0.038137976080179214,-0.033665236085653305
1782814263345707500,10.27670751953125,-0.00371368951164186,-0.004930294118821621,-0.023954788222908974
1782814263365788400,10.296788330078124,-0.00759090855717659,0.03517819568514824,-0.004571861587464809
1782814263385870300,10.316870361328125,-0.001768061425536871,0.013372596353292465,0.009375030174851418
1782814263405951500,10.336951416015625,0.008926252834498882,0.029997382313013077,0.02271910011768341
1782814263426033400,10.357033447265625,0.008400891907513142,0.01910882443189621,0.024199536070227623
1782814263446114600,10.377114501953125,-0.012284149415791035,0.09579499065876007,0.09546778351068497
1782814263466196500,10.397196533203125,0.0027322641108185053,-0.08771681040525436,0.10067404061555862
1782814263486277600,10.417277587890625,0.027753552421927452,-0.19964481890201569,0.041665881872177124
1782814263506359600,10.437359619140626,0.0064653330482542515,-0.018360449001193047,-0.03414316102862358
1782814263526440400,10.4574404296875,-0.016259990632534027,0.08855484426021576,-0.11206680536270142
1782814263546522400,10.4775224609375,0.006629113107919693,0.027982989326119423,-0.1824067384004593
1782814263566603500,10.497603515625,0.011395742185413837,-0.048853710293769836,-0.12221676111221313
