time,seconds_elapsed,z,y,x
1782814212921280500,0.058280517578125,-0.039158422499895096,-0.3720903694629669,0.1796441674232483
1782814212941362400,0.078362548828125,-0.029235372319817543,-0.22555136680603027,0.1458188146352768
1782814212961444400,0.0984443359375,0.07465264946222305,0.011069633066654205,-0.05029420554637909
1782814212981525200,0.118525146484375,0.11155243963003159,0.16044539213180542,-0.17131061851978302
1782814213001607400,0.138607421875,0.07568001002073288,0.13441221415996552,-0.12701325118541718
1782814213021688300,0.158688232421875,0.039426449686288834,0.018122509121894836,-0.009322090074419975
1782814213041770200,0.178770263671875,0.039658259600400925,-0.05870737135410309,0.04226333647966385
1782814213061852200,0.19885205078125,0.060644157230854034,-0.0027252756990492344,0.01081735361367464
1782814213081933300,0.218933349609375,0.0717698186635971,0.09418100118637085,-0.03817407414317131
1782814213102015200,0.23901513671875,0.052637502551078796,0.09209949523210526,-0.06271389126777649
1782814213122097200,0.25909716796875,0.03137482702732086,0.011432611383497715,-0.07907155901193619
1782814213142178300,0.27917822265625,0.04186641424894333,-0.02109428681433201,-0.07882637530565262
1782814213162260200,0.29926025390625,0.06196984276175499,-0.0006104328203946352,-0.06432942301034927
1782814213182341400,0.31934130859375,0.06956137716770172,0.02761353738605976,-0.04966649040579796
1782814213202423300,0.33942333984375,0.06686294078826904,0.023733923211693764,-0.0552990697324276
1782814213222505200,0.359505126953125,0.07085300981998444,0.0006935042329132557,-0.08090377599000931
1782814213242586400,0.37958642578125,0.07376457750797272,-0.04252050817012787,-0.0921686589717865
1782814213262668300,0.399668212890625,0.08364877104759216,-0.07721439003944397,-0.07205205410718918
1782814213282750500,0.41975048828125,0.09113495796918869,-0.05107070505619049,-0.026796866208314896
1782814213302831400,0.439831298828125,0.07853204011917114,-0.020219288766384125,0.017683694139122963
1782814213322913500,0.45991357421875,0.06482524424791336,-0.031276438385248184,0.028072332963347435
1782814213342994400,0.479994384765625,0.04995061457157135,-0.012574790976941586,0.03320308029651642
1782814213363076400,0.500076416015625,0.016381673514842987,0.006959185469895601,0.035982295870780945
1782814213383158500,0.520158447265625,-0.01587332971394062,0.025377783924341202,0.03322368487715721
1782814213403239200,0.5402392578125,-0.04246912896633148,0.07263752818107605,0.044827986508607864
1782814213423321300,0.5603212890625,-0.0525037907063961,0.10842429846525192,0.05015381798148155
1782814213443403300,0.5804033203125,-0.05599797144532204,0.0951901525259018,0.029171913862228394
1782814213463484200,0.600484130859375,-0.062432534992694855,0.06744824349880219,0.013030353002250195
1782814213483566300,0.62056640625,-0.07146628201007843,0.08812931925058365,0.018491610884666443
1782814213503648300,0.640648193359375,-0.05138825625181198,0.08087092638015747,0.0065117403864860535
1782814213523729400,0.6607294921875,-0.022697413340210915,0.013840170577168465,-0.022400161251425743
1782814213543811300,0.680811279296875,0.01430775597691536,0.012991059571504593,-0.030977286398410797
1782814213563892500,0.700892578125,0.05416833981871605,0.07802581787109375,0.008774535730481148
1782814213583974400,0.720974365234375,0.08327552676200867,0.019521821290254593,0.026466643437743187
1782814213604056300,0.741056396484375,0.11584817618131638,-0.006475912407040596,0.0007328413194045424
1782814213624137500,0.761137451171875,0.16370180249214172,0.008327668532729149,-0.0047747427597641945
1782814213644219400,0.781219482421875,0.17942993342876434,0.016943668946623802,0.034026119858026505
1782814213664301300,0.80130126953125,0.17979754507541656,0.02991311252117157,0.05800791084766388
1782814213684382500,0.821382568359375,0.19024726748466492,-0.02348743937909603,0.05300839990377426
1782814213704464400,0.84146435546875,0.18358127772808075,-0.10419074445962906,0.05579027161002159
1782814213724546600,0.861546630859375,0.13842043280601501,-0.13789889216423035,0.06694209575653076
1782814213744627200,0.881627197265625,0.08710549026727676,-0.06264615058898926,0.07460631430149078
1782814213764709000,0.901709228515625,0.054492976516485214,0.018307091668248177,0.06264602392911911
1782814213784790300,0.921790283203125,0.02601187862455845,0.02947268821299076,0.0728568285703659
1782814213804872200,0.9418720703125,-0.0012916469713672996,0.0066490513272583485,0.09041577577590942
1782814213824954400,0.961954345703125,-0.04943192005157471,-0.020282583311200142,0.06573069840669632
1782814213845035300,0.98203515625,-0.08877140283584595,-0.04284972324967384,0.0002445727586746216
1782814213865117200,1.0021171875,-0.12398163229227066,-0.029667481780052185,-0.049406543374061584
1782814213885199400,1.022199462890625,-0.14284595847129822,0.013126452453434467,-0.05794500187039375
1782814213905280300,1.0422802734375,-0.14092200994491577,0.04231536388397217,-0.05328277125954628
1782814213925362400,1.062362548828125,-0.12662841379642487,0.017828654497861862,-0.04219819977879524
1782814213945443300,1.082443359375,-0.11234848201274872,-0.029881032183766365,-0.018913596868515015
1782814213965525500,1.102525390625,-0.09930149465799332,-0.05921497195959091,-0.012878481298685074
1782814213985607400,1.122607421875,-0.07893293350934982,-0.023765116930007935,-0.02501118741929531
1782814214005688300,1.142688232421875,-0.051884327083826065,0.01910923607647419,-0.030435718595981598
1782814214025770500,1.1627705078125,-0.021911386400461197,0.035191088914871216,-0.00014694337733089924
1782814214045852400,1.182852294921875,-0.0009032823145389557,0.03574296832084656,0.04436882957816124
1782814214065933300,1.202933349609375,0.004934291355311871,-0.0036581808235496283,0.06276870518922806
1782814214086015200,1.22301513671875,-0.0031612752936780453,-0.004340785555541515,0.05733616650104523
1782814214106096400,1.243096435546875,-0.007561095990240574,0.017471134662628174,0.02450246922671795
1782814214126178300,1.26317822265625,-0.011281430721282959,0.031289149075746536,-0.008451682515442371
1782814214146260200,1.28326025390625,-0.012059771455824375,0.023792102932929993,-0.009662213735282421
1782814214166341400,1.30334130859375,-0.016468025743961334,0.015657423064112663,0.015192709863185883
1782814214186423300,1.32342333984375,-0.01736888289451599,-0.007453185506165028,0.02966987155377865
1782814214206504400,1.34350439453125,-0.018078705295920372,-0.016715429723262787,0.009789688512682915
1782814214226586400,1.36358642578125,-0.02269880659878254,-0.002445022575557232,-0.0148138627409935
1782814214246668300,1.383668212890625,-0.01535238977521658,0.02676038257777691,-0.005236045457422733
1782814214266749400,1.40374951171875,-0.00010560228838585317,0.04653413966298103,0.026237284764647484
1782814214286831600,1.42383154296875,-0.004942002706229687,0.017917046323418617,0.04313322901725769
1782814214306913500,1.44391357421875,-0.025649501010775566,-0.026047784835100174,0.022466881200671196
1782814214326994700,1.46399462890625,-0.03939993306994438,-0.016391616314649582,-0.015336083248257637
1782814214347076600,1.48407666015625,-0.03151717036962509,0.010043665766716003,-0.03608806058764458
1782814214367157800,1.50415771484375,-0.01899934746325016,0.003626150544732809,-0.0203884094953537
1782814214387239700,1.52423974609375,-0.014117037877440453,-0.002225578296929598,0.01941734366118908
1782814214407321600,1.544321533203125,-0.010834692046046257,-0.0038796677254140377,0.04078282043337822
1782814214427402500,1.564402587890625,-0.01455787941813469,-0.005457439459860325,0.013349040411412716
1782814214447484400,1.584484375,-0.006166246719658375,-0.0036601698957383633,-0.032617803663015366
1782814214467566600,1.604566650390625,0.004285468254238367,-0.01077561266720295,-0.02965427003800869
1782814214487647500,1.6246474609375,0.007104462943971157,-0.0024647919926792383,0.01264073234051466
1782814214507729400,1.6447294921875,0.005805828608572483,-0.020832480862736702,0.023469312116503716
1782814214527810600,1.664810546875,0.0010567536810413003,-0.01556270569562912,-0.0101726483553648
1782814214547892500,1.684892578125,0.003790196729823947,-0.006671547889709473,-0.036610350012779236
1782814214567974700,1.704974609375,0.005272969137877226,-0.0064025153405964375,-0.0156495813280344
1782814214588055600,1.7250556640625,0.01024754997342825,-0.019365061074495316,0.009920889511704445
1782814214608137700,1.7451376953125,0.0115412762388587,-0.02094269171357155,0.011860915459692478
1782814214628218600,1.765218505859375,0.013281602412462234,-0.0014317957684397697,0.007410229183733463
1782814214648300500,1.785300537109375,0.017018992453813553,-0.00011250143870711327,-0.007126586977392435
1782814214668382700,1.8053828125,0.018199989572167397,-0.006495406851172447,-0.019122716039419174
1782814214688463600,1.825463623046875,0.01602974347770214,0.009704815223813057,-0.007701910100877285
1782814214708545800,1.8455458984375,0.010192131623625755,0.03241071477532387,0.013260524719953537
1782814214728627700,1.865627685546875,0.005723524373024702,0.014329065568745136,0.023672927170991898
1782814214748708600,1.88570849609375,0.0013349521905183792,-0.003140063490718603,0.01595582254230976
1782814214768790500,1.90579052734375,-0.002106359228491783,-0.009317195042967796,-0.001777132274582982
1782814214788871400,1.925871337890625,0.00043906483915634453,0.009397566318511963,-0.018178444355726242
1782814214808953600,1.94595361328125,-0.003231405047699809,0.025508873164653778,-0.020662518218159676
1782814214829035500,1.966035400390625,-0.005218123085796833,0.016279421746730804,-0.017342355102300644
1782814214849116700,1.98611669921875,0.008284623734652996,0.014140203595161438,-0.0012966608628630638
1782814214869198600,2.006198486328125,0.011334805749356747,-0.0018424470908939838,0.01598491333425045
1782814214889279500,2.026279541015625,0.0014704437926411629,-0.02267652563750744,0.018654614686965942
1782814214909361700,2.046361572265625,-0.0032284376211464405,-0.018332377076148987,-0.010622579604387283
1782814214929443600,2.066443603515625,-0.007188011426478624,-0.016758358106017113,-0.039589203894138336
1782814214949524700,2.086524658203125,0.006140385754406452,-0.009501218795776367,-0.020607013255357742
1782814214969606700,2.106606689453125,-0.004243710543960333,-0.008731894195079803,0.035499997437000275
1782814214989687800,2.126687744140625,-0.005319272633641958,-0.019588422030210495,0.051161810755729675
1782814215009769700,2.146769775390625,-0.019907942041754723,-0.0067304037511348724,0.01945798099040985
1782814215029851600,2.1668515625,-0.03151245042681694,0.02056640200316906,-0.012871861457824707
1782814215049932500,2.1869326171875,-0.03510630130767822,0.018661823123693466,-0.01691185124218464
1782814215070014500,2.207014404296875,-0.03462167829275131,0.009820902720093727,0.010217255912721157
1782814215090096400,2.227096435546875,-0.03684011846780777,-0.009161568246781826,0.02863684855401516
1782814215110177500,2.247177490234375,-0.03749852627515793,0.00017427559942007065,0.02188536897301674
1782814215130259500,2.267259521484375,-0.029624510556459427,0.011101331561803818,0.0038034911267459393
1782814215150340600,2.287340576171875,-0.016707785427570343,0.023928456008434296,-0.00027963053435087204
1782814215170422500,2.307422607421875,-0.016519805416464806,-0.0019395200069993734,-0.00014408794231712818
1782814215190504400,2.32750439453125,-0.01933581940829754,-0.008039666339755058,0.002010718919336796
1782814215210585600,2.347585693359375,-0.02555176243185997,0.012860466726124287,-0.015374507755041122
1782814215230667500,2.36766748046875,-0.010893040336668491,0.06500238925218582,-0.0274361502379179
1782814215250748700,2.387748779296875,-0.00173952744808048,0.034874606877565384,-0.0066539933905005455
1782814215270831600,2.40783154296875,0.0038948969449847937,0.02421770989894867,0.018856531009078026
1782814215290913500,2.42791357421875,-0.0046790107153356075,0.0037568220868706703,0.011265878565609455
1782814215310994700,2.44799462890625,-0.003396039130166173,0.014113944955170155,-0.006851227954030037
1782814215331076600,2.46807666015625,-0.002844561357051134,0.027572371065616608,-0.004681148566305637
1782814215351158500,2.488158447265625,-0.002522763330489397,0.011331199668347836,0.009224039502441883
1782814215371239700,2.50823974609375,0.0025337552651762962,0.0004932070150971413,0.017274081707000732
1782814215391321600,2.528321533203125,0.0022798164281994104,-0.0031012524850666523,0.0029305992648005486
1782814215411402500,2.548402587890625,0.0031398271676152945,0.008090095594525337,-0.004679209552705288
1782814215431484400,2.568484375,0.014052827842533588,-0.0028091745916754007,0.004210012964904308
1782814215451566300,2.58856640625,0.01742507331073284,-0.003603436518460512,0.021690817549824715
1782814215471647500,2.6086474609375,0.0012315581552684307,-0.040116503834724426,0.016221817582845688
1782814215491729400,2.6287294921875,-0.004511256702244282,-0.034915994852781296,-0.008892280980944633
1782814215511810600,2.648810546875,-0.0009109042584896088,-0.008212489075958729,-0.04036562517285347
1782814215531892500,2.668892578125,0.004157015588134527,0.019590167328715324,-0.023687217384576797
1782814215551974700,2.688974609375,0.0036566834896802902,0.01491946168243885,0.01006106473505497
1782814215572055600,2.7090556640625,0.006844562944024801,-0.00757151935249567,0.03076971136033535
1782814215592137500,2.729137451171875,0.0025223924312740564,-0.025618253275752068,0.025815589353442192
1782814215612218600,2.749218505859375,0.0018410289194434881,-0.02107863686978817,0.0028156936168670654
1782814215632300500,2.769300537109375,0.0015831714263185859,-0.004737525247037411,-0.015578549355268478
1782814215652382700,2.7893828125,0.0025249291211366653,0.01686733402311802,-0.012255741283297539
1782814215672463600,2.809463623046875,0.00452002976089716,0.0011098440736532211,-0.0018260842189192772
1782814215692545500,2.829545654296875,0.0019639660604298115,-0.021389367058873177,0.01646565832197666
1782814215712626400,2.84962646484375,0.002952936803922057,-0.026758387684822083,0.02965272031724453
1782814215732708400,2.869708251953125,-0.0028894932474941015,-0.02241194061934948,0.023355526849627495
1782814215752790500,2.88979052734375,-0.00829406175762415,-0.007027249783277512,0.0020296708680689335
1782814215772871400,2.909871337890625,-0.008361299522221088,0.014334755018353462,-0.006314315367490053
1782814215792953600,2.92995361328125,-0.009456302970647812,-0.0021486568730324507,0.0006057838909327984
1782814215813034500,2.950034423828125,-0.010357250459492207,0.001302878838032484,0.020532427355647087
1782814215833116400,2.970116455078125,-0.012031212449073792,-0.006581471301615238,0.029175784438848495
1782814215853198600,2.990198486328125,-0.008651191368699074,0.0009451890364289284,0.0363578163087368
1782814215873279500,3.010279541015625,-0.007631606422364712,-0.008813688531517982,0.0307841245085001
1782814215893361700,3.030361572265625,-0.004228467121720314,0.0018532294780015945,0.016832171007990837
1782814215913443600,3.050443603515625,-0.0026681465096771717,0.020503275096416473,-0.005656062625348568
1782814215933524700,3.070524658203125,0.005881310440599918,0.016820542514324188,-0.011973372660577297
1782814215953606700,3.090606689453125,0.013253740034997463,-0.010256350040435791,0.012471250258386135
1782814215973687600,3.1106875,0.010295195505023003,-0.016369875520467758,0.03643615171313286
1782814215993769700,3.130769775390625,0.005855921655893326,-0.009536612778902054,0.015262484550476074
1782814216013851600,3.1508515625,0.011706113815307617,0.018156416714191437,-0.01822405681014061
1782814216033932500,3.1709326171875,0.02287207543849945,0.023465093225240707,-0.009607438929378986
1782814216054014500,3.191014404296875,0.008474912494421005,-0.030013417825102806,0.012222839519381523
1782814216074095400,3.211095458984375,-0.012822601944208145,-0.06013229861855507,0.011586015112698078
1782814216094177500,3.231177490234375,-0.006581814028322697,0.001696405466645956,-0.0017471557948738337
1782814216114259500,3.251259521484375,0.0016190481837838888,0.05259505659341812,-0.006245941389352083
1782814216134340600,3.271340576171875,-0.0027378834784030914,0.019948700442910194,0.014318188652396202
1782814216154422500,3.291422607421875,-0.004725666716694832,0.0037809940986335278,0.03385255113244057
1782814216174503700,3.311503662109375,-0.010612343437969685,0.0046949200332164764,0.027971256524324417
1782814216194585600,3.331585693359375,-0.013823024928569794,0.014066841453313828,0.005126555450260639
1782814216214667500,3.35166748046875,-0.007525092922151089,0.01815091446042061,-0.003460782812908292
1782814216234748700,3.371748779296875,-0.0084678390994668,0.008203377947211266,0.009117444977164268
1782814216254830600,3.39183056640625,-0.009518393315374851,-0.0006545181386172771,0.025008317083120346
1782814216274909700,3.41190966796875,-0.0032582648564130068,-0.0007988435681909323,0.009485160000622272
1782814216294991600,3.43199169921875,0.002687939442694187,0.0016171582974493504,-0.013200588524341583
1782814216315073800,3.45207373046875,0.004593798890709877,0.009503861889243126,-0.004907627590000629
1782814216335154700,3.47215478515625,0.0009743474656715989,0.0026396261528134346,0.021166712045669556
1782814216355236900,3.49223681640625,0.005983969196677208,-0.016802310943603516,0.02184728905558586
1782814216375317800,3.51231787109375,0.011639648117125034,-0.017256593331694603,0.008684173226356506
1782814216395400000,3.53239990234375,0.00837897602468729,-0.007647357881069183,0.0010940409265458584
1782814216415481900,3.55248193359375,0.0018102758331224322,-0.0031567171681672335,0.005371151491999626
1782814216435562800,3.572562744140625,-0.005445646122097969,0.00283654872328043,0.017992516979575157
1782814216455645000,3.59264501953125,-0.008269903250038624,-0.0004891359712928534,0.01143418438732624
1782814216475725800,3.612725830078125,-0.0030072175431996584,0.016303863376379013,0.006144731771200895
1782814216495808000,3.63280810546875,-0.006569956429302692,0.017273757606744766,0.0018243722151964903
1782814216515890000,3.652889892578125,-0.009519394487142563,-0.004150139167904854,0.00013817660510540009
1782814216535970800,3.672970703125,-0.00580214150249958,-0.005585680715739727,0.005061147268861532
1782814216556053000,3.693052978515625,0.004851656500250101,0.007966117933392525,0.0033979536965489388
1782814216576133600,3.713133544921875,0.003613121807575226,0.015949226915836334,0.009152654558420181
1782814216596215800,3.7332158203125,-0.00019064587831962854,-0.0009215620812028646,0.004662267863750458
1782814216616298000,3.753298095703125,0.004218014422804117,-0.023173294961452484,0.0007621240802109241
1782814216636379000,3.77337890625,0.01403552945703268,-0.01907878927886486,0.002272148383781314
1782814216656460800,3.793460693359375,0.00117090146522969,-0.036930251866579056,-0.002239425666630268
1782814216676542700,3.813542724609375,-0.006766890175640583,-0.040638018399477005,-0.007985418662428856
1782814216696623900,3.833623779296875,0.002544598188251257,-0.015307007357478142,0.010163001716136932
1782814216716705800,3.853705810546875,0.013352872803807259,-0.017797846347093582,0.04186088591814041
1782814216736787000,3.873786865234375,0.019713757559657097,-0.019916068762540817,0.07955509424209595
1782814216756868900,3.893868896484375,0.03487338125705719,-0.03447652980685234,0.0949358344078064
1782814216776950800,3.91395068359375,0.011424439027905464,-0.04604436829686165,0.06691954284906387
1782814216797032000,3.934031982421875,0.010732841677963734,-0.044824570417404175,0.001916282344609499
1782814216817113900,3.95411376953125,0.018731683492660522,-0.03945033997297287,-0.024127215147018433
1782814216837195000,3.974195068359375,0.015450086444616318,0.016847677528858185,-0.005601140670478344
1782814216857277000,3.99427685546875,0.0066581047140061855,0.014072737656533718,0.012375365011394024
1782814216877358800,4.01435888671875,0.0036511034704744816,-0.018328869715332985,0.012326201424002647
1782814216897440000,4.03443994140625,0.007564694620668888,-0.016299860551953316,-0.0023918517399579287
1782814216917522000,4.05452197265625,0.003949909936636686,0.016564132645726204,-0.015717949718236923
1782814216937602800,4.074602783203125,-0.003419665154069662,0.019531290978193283,-0.011439947411417961
1782814216957684700,4.094684814453125,-0.002667005406692624,0.0119458744302392,-0.0006010187789797783
1782814216977766700,4.1147666015625,-0.0017269471427425742,0.02342739887535572,0.0036216783337295055
1782814216997847800,4.134847900390625,0.004140250384807587,0.03396749123930931,0.005130240693688393
1782814217017929700,4.1549296875,0.00019699675613082945,0.01962967962026596,0.011805479414761066
1782814217038011000,4.175010986328125,-0.0016213085036724806,-0.005101641174405813,0.005923614837229252
1782814217058092800,4.1950927734375,0.0017312560230493546,0.007288413587957621,-0.004505807533860207
1782814217078174700,4.2151748046875,0.005932583007961512,0.026349855586886406,-0.01433083787560463
1782814217098256000,4.235255859375,0.005980075802654028,0.011349901556968689,-0.009029601700603962
1782814217118337800,4.255337890625,0.008677744306623936,-0.003585211932659149,-0.0059652868658304214
1782814217138419000,4.2754189453125,0.011909617111086845,0.0005392353050410748,-0.004011022858321667
1782814217158500900,4.2955009765625,0.005091454833745956,-0.001209884649142623,-0.005198470316827297
1782814217178582800,4.315582763671875,-0.003751038573682308,-0.00988939218223095,-0.0228179432451725
1782814217198664000,4.335663818359375,-0.000489845231641084,0.0022071106359362602,-0.020548850297927856
1782814217218745900,4.355745849609375,0.00008521950803697109,0.009829645976424217,0.009913668036460876
1782814217238826800,4.37582666015625,-0.010437157936394215,-0.029139084741473198,0.022636739537119865
1782814217258908700,4.39590869140625,-0.01438829954713583,-0.053762540221214294,0.0074129486456513405
1782814217278992000,4.415991943359375,-0.01288575679063797,-0.04200493171811104,-0.004877733066678047
1782814217299073000,4.436072998046875,-0.015560762956738472,-0.00287439557723701,0.010999655351042747
1782814217319155000,4.456155029296875,-0.010442622937262058,0.01656510680913925,0.024438215419650078
1782814217339236000,4.476236083984375,0.007422228343784809,0.024138011038303375,0.019277876242995262
1782814217359318000,4.496318115234375,0.009440639056265354,0.008163385093212128,0.008656199090182781
1782814217379400000,4.51639990234375,0.007904945872724056,-0.00555101502686739,0.008660731837153435
1782814217399480800,4.536480712890625,0.011798703111708164,-0.005540770944207907,0.011542599648237228
1782814217419562800,4.556562744140625,0.017358025535941124,-0.002424943260848522,0.01196048129349947
1782814217439644000,4.576643798828125,0.015911409631371498,-0.0054594469256699085,-0.003998926840722561
1782814217459725800,4.596725830078125,0.02180033177137375,-0.006137309595942497,-0.018783576786518097
1782814217479807700,4.616807861328125,0.02756924368441105,-0.011615769006311893,-0.0171520933508873
1782814217499889000,4.636888916015625,0.020323175936937332,-0.019927406683564186,-0.011611009016633034
1782814217519970800,4.656970703125,0.014184108003973961,-0.01821698248386383,-0.013040388934314251
1782814217540052000,4.677052001953125,0.014221304096281528,-0.011680368334054947,-0.01801333576440811
1782814217560134000,4.6971337890625,0.01780671812593937,-0.009975412860512733,-0.022551361471414566
1782814217580215800,4.7172158203125,0.01755712926387787,-0.0009857092518359423,-0.0124503867700696
1782814217600297000,4.737296875,0.016194390133023262,-0.005203357432037592,-0.0038060317747294903
1782814217620379000,4.75737890625,0.013402864336967468,-0.005672606639564037,0.0047086263075470924
1782814217640460000,4.7774599609375,0.009968578815460205,0.0002164505422115326,0.0039043878205120564
1782814217660542000,4.7975419921875,0.014686977490782738,0.01029646210372448,-0.006059921812266111
1782814217680624000,4.8176240234375,0.014364480972290039,0.019886139780282974,-0.008126949891448021
1782814217700704800,4.837704833984375,0.012747257016599178,0.014670979231595993,-0.0024313281755894423
1782814217720786700,4.85778662109375,0.01145155355334282,0.009631079621613026,0.007805232424288988
1782814217740867800,4.877867919921875,0.010637653060257435,-0.015293151140213013,0.011678713373839855
1782814217760949800,4.89794970703125,0.013088738545775414,-0.02891746535897255,0.01278416533023119
1782814217781032000,4.918031982421875,0.01909429393708706,-0.008019019849598408,0.013015707954764366
1782814217801112800,4.93811279296875,0.002645506989210844,-0.017242852598428726,0.003312658751383424
1782814217821195000,4.958195068359375,-0.0038832323625683784,-0.04853632301092148,-0.0033228732645511627
1782814217841276000,4.97827587890625,-0.00010395320714451373,-0.031316228210926056,-0.000682466896250844
1782814217861357800,4.99835791015625,0.003168209223076701,-0.002520843641832471,0.005755669437348843
1782814217881440000,5.01843994140625,0.0020230370573699474,0.01579461246728897,0.010239781811833382
1782814217901521000,5.03852099609375,0.0030929427593946457,0.027884403243660927,0.024511314928531647
1782814217921603000,5.05860302734375,0.0021083983592689037,0.02070334181189537,0.03240443766117096
1782814217941684000,5.07868408203125,-0.005433585494756699,-0.010210596956312656,0.022433245554566383
1782814217961766000,5.098765869140625,-0.006615356542170048,-0.013077232986688614,-0.0020486991852521896
1782814217981848000,5.11884814453125,-0.0058992584235966206,0.009465210139751434,-0.013457192108035088
1782814218001929000,5.138928955078125,-0.009190468117594719,0.02324320748448372,-0.01290521863847971
1782814218022011100,5.15901123046875,-0.015440564602613449,-0.013160393573343754,-0.010874385014176369
1782814218042091800,5.179091796875,-0.017255675047636032,-0.036033812910318375,-0.013894075527787209
1782814218062174000,5.199174072265625,-0.015215831808745861,-0.019226515665650368,-0.020641081035137177
1782814218082256000,5.219255859375,-0.013236495666205883,0.016274886205792427,-0.008565145544707775
1782814218102336800,5.239336669921875,-0.012262564152479172,0.01761755533516407,0.0018961350433528423
1782814218122419000,5.2594189453125,-0.007175432052463293,0.0015369616448879242,0.005811236798763275
1782814218142499800,5.279499755859375,-0.007824165746569633,0.012269403785467148,0.009369071573019028
1782814218162582000,5.29958203125,-0.0074771796353161335,0.01518264226615429,0.011980675160884857
1782814218182663000,5.319662841796875,-0.006086668930947781,0.009419882670044899,0.0001959421206265688
1782814218202745000,5.3397451171875,-0.004565065260976553,0.002764900680631399,-0.015144167467951775
1782814218222826000,5.359825927734375,-0.0048891338519752026,-0.009898191317915916,-0.009253434836864471
1782814218242908000,5.379907958984375,-0.0022659837268292904,-0.005343164317309856,0.011533545330166817
1782814218262990000,5.399989990234375,0.0024187956005334854,-0.010480765253305435,0.02166645973920822
1782814218283070500,5.420070556640625,0.007808868773281574,-0.005959046073257923,0.012512442655861378
1782814218303152600,5.440152587890625,0.004258329980075359,0.006731625646352768,-0.00706050219014287
1782814218323233500,5.460233642578125,-0.00013984297402203083,0.012021622620522976,-0.014303223229944706
1782814218343315700,5.480315673828125,0.006340529769659042,0.00889064185321331,0.0029920958913862705
1782814218363397600,5.500397705078125,-0.002071167342364788,0.009653007611632347,0.0211945828050375
1782814218383478500,5.520478515625,-0.02048979140818119,-0.0033691939897835255,-0.011672953143715858
1782814218403560700,5.540560791015625,-0.02123831771314144,-0.00949070043861866,-0.05830974876880646
1782814218423641600,5.5606416015625,-0.01020550075918436,-0.001151020871475339,-0.06110290810465813
1782814218443723800,5.580723876953125,-0.01086864061653614,0.004391301888972521,-0.024615131318569183
1782814218463805700,5.6008056640625,-0.010877721011638641,0.007353012450039387,0.0024219185579568148
1782814218483886600,5.620886474609375,-0.003220256883651018,0.007327924948185682,0.0008755945600569248
1782814218503968800,5.64096875,0.0029039725195616484,-0.018697291612625122,0.0026712575927376747
1782814218524049700,5.661049560546875,-0.0022499794140458107,-0.021598495543003082,0.004744318313896656
1782814218544131800,5.6811318359375,-0.006117358338087797,-0.00212967861443758,-0.013313722796738148
1782814218564213800,5.7012138671875,-0.001563390949741006,0.021580204367637634,-0.02205696702003479
1782814218584294700,5.721294677734375,0.0023756143637001514,0.01323684025555849,-0.011693448759615421
1782814218604376800,5.741376953125,0.004973186645656824,-0.017838120460510254,-0.005177058279514313
1782814218624457500,5.76145751953125,0.0011584232561290264,-0.01787128672003746,-0.0083184614777565
1782814218644539600,5.78153955078125,-0.0000969652901403606,0.0020838500931859016,-0.010961679741740227
1782814218664621600,5.80162158203125,-0.006085261236876249,-0.004788667429238558,-0.0019402720499783754
1782814218684702700,5.82170263671875,-0.0010630338219925761,0.0036412756890058517,-0.0005271122790873051
1782814218704784600,5.84178466796875,-0.007363844662904739,0.004677272401750088,-0.010258123278617859
1782814218724865800,5.86186572265625,-0.012845911085605621,-0.004033252596855164,-0.012259017676115036
1782814218744947700,5.88194775390625,-0.014903000555932522,-0.017799975350499153,-0.009082721546292305
1782814218765029600,5.902029541015625,-0.01784406788647175,-0.022053221240639687,-0.015353554859757423
1782814218785110800,5.92211083984375,-0.025446847081184387,-0.0011626847553998232,-0.021458469331264496
1782814218805192700,5.942192626953125,-0.02351643703877926,0.011577158235013485,-0.02151838317513466
1782814218825274600,5.962274658203125,-0.01473172102123499,-0.003312406362965703,-0.013924527913331985
1782814218845355800,5.982355712890625,-0.012394517660140991,-0.022028665989637375,-0.006037192419171333
1782814218865437700,6.002437744140625,-0.003917435184121132,0.0016353121027350426,0.02491862326860428
1782814218885518800,6.022518798828125,0.007531874813139439,0.016181152313947678,0.05240270495414734
1782814218905600800,6.042600830078125,0.022018874064087868,0.01585433818399906,0.050928059965372086
1782814218925682700,6.0626826171875,0.017094727605581284,0.01985989138484001,0.02354331687092781
1782814218945763600,6.082763671875,0.004361660685390234,-0.017373178154230118,-0.005531315226107836
1782814218965845500,6.102845458984375,0.005014629103243351,-0.030372120440006256,-0.027882855385541916
1782814218985926700,6.1229267578125,0.013404651544988155,-0.004745319485664368,-0.038040418177843094
1782814219006008600,6.143008544921875,0.008227504789829254,0.005954969208687544,-0.033977147191762924
1782814219026090500,6.163090576171875,0.007211965974420309,0.019360922276973724,-0.016943398863077164
1782814219046171600,6.183171630859375,0.014638113789260387,-0.002996528521180153,-0.010723228566348553
1782814219066253600,6.203253662109375,0.014527453109622002,-0.0204095970839262,-0.02050578035414219
1782814219086334700,6.223334716796875,0.012133968994021416,-0.01779457926750183,-0.03324161842465401
1782814219106416600,6.243416748046875,0.018335558474063873,0.0031132595613598824,-0.03273553401231766
1782814219126498800,6.263498779296875,0.027129430323839188,0.023764584213495255,-0.015719084069132805
1782814219146579700,6.283579833984375,0.028597630560398102,0.00012476695701479912,-0.010760543867945671
1782814219166661600,6.30366162109375,0.026803119108080864,-0.01787620410323143,-0.01280941255390644
1782814219186742800,6.32374267578125,0.02751995250582695,-0.012439556419849396,-0.02352021262049675
1782814219206824700,6.34382470703125,0.025495771318674088,-0.01211906224489212,-0.029255039989948273
1782814219226907000,6.363906982421875,0.03253527730703354,-0.014054639264941216,-0.021484095603227615
1782814219246987500,6.383987548828125,0.029167383909225464,-0.00485079875215888,-0.0018441379070281982
1782814219267069700,6.404069580078125,0.021533912047743797,0.0053236656822264194,0.014353269711136818
1782814219287150000,6.424150146484375,0.016166895627975464,0.023369653150439262,0.021700602024793625
1782814219307232300,6.444232177734375,0.013952058739960194,0.005935376510024071,0.019504478201270103
1782814219327314200,6.464314208984375,0.0040304772555828094,0.002363882027566433,0.020096467807888985
1782814219347395000,6.48439501953125,-0.00397545425221324,0.03738795593380928,0.018754824995994568
1782814219367477200,6.504477294921875,-0.005739126354455948,0.05848969146609306,0.012546084821224213
1782814219387558000,6.524557861328125,-0.005306426435709,0.031616222113370895,0.020785583183169365
1782814219407640000,6.54464013671875,-0.0010697806719690561,0.009167486801743507,0.04104267805814743
1782814219427722000,6.564721923828125,-0.009384334087371826,0.015022994950413704,0.03533460199832916
1782814219447803100,6.58480322265625,-0.015461135655641556,0.013166505843400955,0.0030560228042304516
1782814219467885000,6.604885009765625,-0.0021662802901118994,0.03060944937169552,-0.020450685173273087
1782814219487966000,6.624966064453125,0.008204932324588299,0.016829844564199448,-0.006013290490955114
1782814219508048100,6.645048095703125,-0.0028822137974202633,-0.029987718909978867,0.01087890937924385
1782814219528130000,6.665130126953125,-0.0032446449622511864,-0.06278855353593826,-0.014594599604606628
1782814219548211200,6.685211181640625,0.005321844015270472,-0.016685442999005318,-0.04576537013053894
1782814219568293000,6.705293212890625,0.009242409840226173,0.030278082937002182,-0.03887094184756279
1782814219588375000,6.725375,0.02057667262852192,0.032368581742048264,0.005088522098958492
1782814219608456200,6.745456298828125,0.02877991832792759,-0.008505383506417274,0.029279928654432297
1782814219628538000,6.7655380859375,0.027886515483260155,-0.02728036791086197,0.016675669699907303
1782814219648619300,6.785619384765625,0.024945473298430443,-0.004647865891456604,-0.017478758469223976
1782814219668701200,6.805701171875,0.02396266534924507,0.02932552993297577,-0.023467550054192543
1782814219688783000,6.825783203125,0.024815788492560387,0.043949320912361145,-0.0046159131452441216
1782814219708864000,6.845864013671875,0.020125381648540497,0.004704196471720934,0.005130670964717865
1782814219728946200,6.8659462890625,0.02310531958937645,-0.02257854864001274,0.003887542989104986
1782814219749027000,6.886027099609375,0.016123561188578606,-0.021774521097540855,-0.012994162738323212
1782814219769109000,6.90610888671875,0.009029700420796871,-0.0140259750187397,-0.02700044959783554
1782814219789190100,6.926190185546875,0.011273819021880627,-0.001460204366594553,-0.023505162447690964
1782814219809272000,6.94627197265625,0.021902646869421005,-0.022094029933214188,-0.004098435863852501
1782814219829354000,6.96635400390625,0.01977062225341797,-0.017164500430226326,0.019877880811691284
1782814219849435100,6.98643505859375,0.0023823229130357504,-0.024517852813005447,0.024746788665652275
1782814219869517000,7.00651708984375,-0.013501353561878204,-0.015321833081543446,0.002384552964940667
1782814219889599000,7.026598876953125,-0.023592829704284668,-0.003871066262945533,-0.025266163051128387
1782814219909680000,7.04668017578125,-0.01776104047894478,0.009029019623994827,-0.027897633612155914
1782814219929762000,7.066761962890625,-0.014281760901212692,-0.006331284996122122,-0.007338791154325008
1782814219949843200,7.08684326171875,-0.00797453336417675,-0.004926689900457859,0.029208889231085777
1782814219969925000,7.106925048828125,-0.00804012268781662,-0.012537871487438679,0.030230380594730377
1782814219990007000,7.127007080078125,-0.017473381012678146,-0.01872788369655609,-0.013394845649600029
1782814220010088200,7.147088134765625,-0.01040708925575018,0.0008936566300690174,-0.054066453129053116
1782814220030170000,7.167170166015625,0.004600063897669315,0.043567463755607605,-0.038169022649526596
1782814220050251000,7.1872509765625,0.003438748186454177,0.04714393988251686,-0.005011311732232571
1782814220070333000,7.2073330078125,-0.023298906162381172,-0.04872627183794975,-0.03567994758486748
1782814220090415000,7.2274150390625,-0.02126527950167656,-0.014951289631426334,-0.09259960055351257
1782814220110496000,7.24749609375,-0.003763732733204961,0.07321386784315109,-0.12024912983179092
1782814220130578000,7.267577880859375,-0.002358280820772052,0.10700273513793945,-0.11167361587285995
1782814220150659000,7.2876591796875,-0.017223527655005455,0.09103691577911377,-0.10653622448444366
1782814220170741000,7.307740966796875,-0.01718999445438385,0.07183864712715149,-0.11985465884208679
1782814220190822100,7.327822265625,-0.012148036621510983,0.055844202637672424,-0.11626234650611877
1782814220210904000,7.347904052734375,0.0001973140169866383,0.034576013684272766,-0.09319024533033371
1782814220230986200,7.367986328125,0.003677608445286751,0.0014645326882600784,-0.07050187140703201
1782814220251067100,7.388067138671875,0.0015902227023616433,0.015361440367996693,-0.06367352604866028
1782814220271149000,7.408149169921875,0.0057662371546030045,0.02630726248025894,-0.07564438879489899
1782814220291231200,7.428231201171875,0.024995654821395874,0.028985831886529922,-0.07061156630516052
1782814220311312100,7.44831201171875,0.06829283386468887,0.023393435403704643,-0.07274653017520905
1782814220331394300,7.468394287109375,0.06427551805973053,0.02907746471464634,-0.07169053703546524
1782814220351475200,7.48847509765625,0.01279738824814558,-0.012928379699587822,-0.0469803623855114
1782814220371557000,7.50855712890625,-0.0024966769851744175,-0.0006006511393934488,-0.019002849236130714
1782814220391638300,7.52863818359375,0.017051368951797485,-0.004968350287526846,-0.019789837300777435
1782814220411720200,7.54872021484375,0.03149735927581787,-0.00013041729107499123,-0.014784673228859901
1782814220431802400,7.56880224609375,0.014513200148940086,0.0005999812856316566,0.020547565072774887
1782814220451883000,7.588883056640625,0.004869385622441769,-0.005984160117805004,0.04864593967795372
1782814220471965200,7.608965087890625,0.003645029617473483,-0.01900402642786503,0.03992775082588196
1782814220492046000,7.629046142578125,0.004444472026079893,0.003220345824956894,0.01152158621698618
1782814220512128000,7.6491279296875,-0.007951287552714348,0.022324850782752037,-0.008308484219014645
1782814220532210200,7.669210205078125,-0.022157588973641396,0.010125487111508846,-0.004613825585693121
1782814220552291000,7.689291015625,-0.018486537039279938,0.002982436679303646,0.0224676001816988
1782814220572373200,7.709373291015625,-0.000015346304280683398,0.005833590403199196,0.0402834378182888
1782814220592454100,7.7294541015625,-0.0020973929204046726,0.01223599724471569,0.03701478987932205
1782814220612536000,7.7495361328125,-0.019580068066716194,-0.02336392179131508,-0.0037350633647292852
1782814220632618200,7.7696181640625,-0.01919918693602085,-0.021594375371932983,-0.03794875741004944
1782814220652699100,7.78969921875,-0.006329916883260012,0.026649266481399536,-0.024321185424923897
1782814220672781300,7.80978125,0.006822675000876188,0.03532075881958008,0.020239442586898804
1782814220692862200,7.8298623046875,0.017734622582793236,0.003578691743314266,0.04994511976838112
1782814220712944400,7.8499443359375,0.016131436452269554,-0.03632533922791481,0.037554048001766205
1782814220733026300,7.8700263671875,0.0036877675447613,-0.029938343912363052,-0.0052409484051167965
1782814220753107000,7.89010693359375,0.003579034237191081,0.014439824968576431,-0.03647387772798538
1782814220773189000,7.910189208984375,0.010473006404936314,0.03570021316409111,-0.022205539047718048
1782814220793270000,7.93027001953125,0.013815882615745068,0.014068102464079857,0.005597502458840609
1782814220813352200,7.950352294921875,0.011243129149079323,-0.0017617184203118086,0.03250158950686455
1782814220833434000,7.97043408203125,0.010691056959331036,-0.005446921568363905,0.03362179547548294
1782814220853515300,7.990515380859375,0.012037360109388828,0.0004020463675260544,0.016496166586875916
1782814220873597200,8.01059716796875,0.007177394814789295,-0.0021312579046934843,0.00023438455536961555
1782814220893678000,8.030677978515625,0.0045119766145944595,0.009925661608576775,-0.00046899355947971344
1782814220913760300,8.05076025390625,0.007958728820085526,0.02167271263897419,0.016443969681859016
1782814220933842200,8.07084228515625,-0.0009843942243605852,-0.0037003131583333015,0.02703837677836418
1782814220953923300,8.09092333984375,-0.007134266197681427,-0.0109054334461689,0.021353259682655334
1782814220974005200,8.111005126953126,-0.007955598644912243,0.004395776428282261,0.01190523523837328
1782814220994086100,8.131086181640624,-0.008029698394238949,0.01857306994497776,0.005081362556666136
1782814221014168300,8.151168212890624,-0.005956477951258421,0.018016938120126724,0.003582938574254513
1782814221034250200,8.171250244140625,-0.001779677695594728,0.01403522863984108,0.012046588584780693
1782814221054331100,8.1913310546875,-0.0011208869982510805,0.013860924169421196,0.027097344398498535
1782814221074413000,8.2114130859375,-0.008549293503165245,-0.003854377195239067,0.026929551735520363
1782814221094494200,8.231494140625,0.004102091770619154,-0.005625858902931213,0.016439789906144142
1782814221114576100,8.251576171875,0.02489866502583027,0.012114114128053188,0.013731416314840317
1782814221134658000,8.271657958984376,0.00360186118632555,-0.008285939693450928,0.014298316091299057
1782814221154739200,8.2917392578125,-0.02187141589820385,-0.04318106546998024,0.00132955692242831
1782814221174821000,8.311821044921874,-0.01774517446756363,-0.015224229544401169,-0.01695062592625618
1782814221194902300,8.33190234375,-0.0015543492045253515,0.005668900907039642,-0.005895234644412994
1782814221214984200,8.351984130859375,0.0010235656518489122,-0.0059741646982729435,0.0339854434132576
1782814221235066000,8.372066162109375,-0.010895158164203167,-0.03770483285188675,0.043949276208877563
1782814221255147300,8.392147216796875,-0.022251954302191734,-0.022977454587817192,0.011799477972090244
1782814221275229200,8.412229248046875,-0.023972446098923683,0.005580571945756674,-0.03436777740716934
1782814221295310800,8.432310791015626,-0.019815871492028236,-0.000050451140850782394,-0.041235487908124924
1782814221315393000,8.45239306640625,-0.013133429922163486,-0.00511154904961586,-0.0017519057728350163
1782814221335475000,8.472474853515624,-0.005552590824663639,-0.02153172343969345,0.028270181268453598
1782814221355556000,8.49255615234375,-0.0022638533264398575,-0.02885568141937256,0.019956856966018677
1782814221375638000,8.512637939453125,-0.002205390017479658,-0.024626322090625763,-0.013947349973022938
1782814221395719200,8.53271923828125,-0.005132001359015703,-0.00430884538218379,-0.02946963906288147
1782814221415801000,8.552801025390625,-0.0029685129411518574,-0.007731584832072258,-0.018688954412937164
1782814221435883000,8.572883056640626,0.007069283630698919,-0.009830208495259285,0.01177139114588499
1782814221455964000,8.5929638671875,0.011657199822366238,-0.01861514337360859,0.026385970413684845
1782814221476046000,8.613046142578124,0.002244701376184821,-0.020721472799777985,0.013184464536607265
1782814221496127000,8.633126953125,0.005606053862720728,-0.0029513793997466564,0.0024708083365112543
1782814221516209000,8.653208984375,0.0008197585120797157,0.010123711079359055,-0.001828312873840332
1782814221536290800,8.673290771484375,0.0046392385847866535,0.023477261886000633,0.0010154416086152196
1782814221556372000,8.6933720703125,-0.000013735669199377298,0.017002256587147713,-0.0010321957524865866
1782814221576454000,8.713453857421875,-0.0012682618107646704,0.01083795353770256,0.005259547382593155
1782814221596535000,8.73353515625,-0.0022494338918477297,-0.009479079395532608,0.004746033810079098
1782814221616617000,8.753616943359376,-0.005817904137074947,-0.03015287220478058,-0.002944443840533495
1782814221636699000,8.773698974609376,0.0018002197612076998,-0.0073169837705791,-0.012504121288657188
1782814221656780000,8.793780029296874,0.00984528660774231,0.01999778114259243,-0.011273647658526897
1782814221676862000,8.813862060546874,-0.004743179772049189,-0.007254301570355892,-0.019219666719436646
1782814221696943000,8.833943115234375,-0.01744772680103779,-0.0321340411901474,-0.040669772773981094
1782814221717025000,8.85402490234375,-0.014905459247529507,-0.007268203888088465,-0.05366135388612747
1782814221737107000,8.87410693359375,-0.006854331586509943,0.027255959808826447,-0.04056096076965332
1782814221757188000,8.89418798828125,0.0021066605113446712,0.035495612770318985,-0.009681728668510914
1782814221777270000,8.91427001953125,0.005733088124543428,0.02279294654726982,0.020319655537605286
1782814221797351000,8.934350830078126,0.001600026385858655,0.003911382518708706,0.03227923810482025
1782814221817432800,8.954432861328126,0.003325222060084343,-0.010737068951129913,0.016479235142469406
1782814221837514000,8.974513916015624,0.009876434691250324,-0.0008117160759866238,-0.0036991266533732414
1782814221857596000,8.994595947265625,0.012275002896785736,0.02443026565015316,-0.0037891054525971413
1782814221877677800,9.014677734375,0.0026560069527477026,0.010969452559947968,0.003022293094545603
1782814221897759000,9.034759033203125,-0.0006924590561538935,-0.0010822045151144266,0.004795404616743326
1782814221917841000,9.0548408203125,0.005339725408703089,0.0040994370356202126,0.002447254490107298
1782814221937922000,9.074922119140625,0.0054826862178742886,0.00451421644538641,0.007131816819310188
1782814221958004000,9.09500390625,0.0026669015642255545,0.006034622900187969,0.018590174615383148
1782814221978086000,9.1150859375,0.0051785786636173725,0.010239550843834877,0.021463055163621902
1782814221998167000,9.1351669921875,0.000041036459151655436,0.011023878119885921,0.019865071401000023
1782814222018249000,9.1552490234375,-0.006447362247854471,0.009083854034543037,0.019090203568339348
1782814222038330000,9.175330078125,-0.008917164988815784,0.00437155831605196,0.022133780643343925
1782814222058412000,9.195412109375,-0.01637231558561325,-0.0027433247305452824,0.024040482938289642
1782814222078494000,9.215493896484375,-0.02488754503428936,-0.01079802867025137,0.020899727940559387
1782814222098574800,9.235574951171875,-0.02582493983209133,-0.008814000524580479,0.026276739314198494
1782814222118656800,9.25565673828125,-0.01232365146279335,0.007890500128269196,0.035102035850286484
1782814222138738000,9.275738037109376,-0.006157774478197098,0.010988031513988972,0.03022848442196846
1782814222158819800,9.29581982421875,-0.01372943352907896,0.002153190318495035,0.009035347029566765
1782814222178902000,9.315902099609374,-0.012809349223971367,0.00030125491321086884,0.0032700481824576855
1782814222198983000,9.33598291015625,-0.0014727161033079028,0.01359107531607151,0.023686932399868965
1782814222219064800,9.35606494140625,-0.007218929473310709,-0.0004135735798627138,0.0313107892870903
1782814222239146000,9.37614599609375,-0.02075941674411297,-0.03165055438876152,-0.00098302005790174
1782814222259228000,9.396227783203125,-0.01594371162354946,-0.012032225728034973,-0.02588173747062683
1782814222279309000,9.41630908203125,-0.00531976530328393,0.007830020040273666,-0.004326245281845331
1782814222299390200,9.43639013671875,-0.0023413130547851324,0.008228277787566185,0.03295823186635971
1782814222319471000,9.45647119140625,-0.003966423682868481,-0.0016941900830715895,0.037541937083005905
1782814222339553000,9.476552978515626,-0.008766619488596916,0.001748824492096901,0.021160036325454712
1782814222359635200,9.49663525390625,-0.0073223109357059,0.013391045853495598,0.010956309735774994
1782814222379716000,9.516716064453124,-0.009388822130858898,0.011715136468410492,0.0027488567866384983
1782814222399798300,9.53679833984375,-0.005124810617417097,0.006069493480026722,0.008918494917452335
1782814222419879200,9.556879150390625,-0.001979705411940813,-0.0077193258330225945,0.015475515276193619
1782814222439961000,9.576961181640625,-0.0016865296056494117,-0.02173018828034401,0.01604774221777916
1782814222460043300,9.597043212890625,-0.00013577092613559216,-0.016118111088871956,0.0013545490801334381
1782814222480124200,9.617124267578125,-0.005183081142604351,-0.004009551368653774,-0.0013591605238616467
1782814222500206300,9.637206298828126,-0.004048080649226904,-0.003182613290846348,-0.001331018516793847
1782814222520287200,9.657287353515626,0.003922772128134966,-0.009089947678148746,0.0010698623955249786
1782814222540369200,9.677369140625,0.01057344675064087,-0.005088442005217075,0.002320738509297371
1782814222560451300,9.697451416015625,0.007650400046259165,0.0023750406689941883,0.008135571144521236
1782814222580532200,9.7175322265625,-0.0005361587973311543,0.005308965221047401,0.009870277717709541
1782814222600614400,9.737614501953125,0.003435274586081505,0.004484804812818766,0.002604488516226411
1782814222620695000,9.757695068359375,0.005016506649553776,0.0067403437569737434,-0.0038987668231129646
1782814222640777200,9.777777099609375,0.006421362049877644,0.005051339976489544,-0.006989012006670237
1782814222660858000,9.797858154296875,0.00043598422780632973,-0.012473911046981812,-0.01853976584970951
1782814222680940000,9.81793994140625,0.0011336321476846933,-0.010260229930281639,-0.028362102806568146
1782814222701022200,9.838022216796874,-0.004266233183443546,-0.01961303874850273,-0.043088216334581375
1782814222721103000,9.85810302734375,-0.00975758209824562,-0.029688458889722824,-0.05344309285283089
1782814222741185300,9.878185302734375,0.005719542969018221,-0.0001303195022046566,-0.029662005603313446
1782814222761266200,9.89826611328125,0.007574219256639481,-0.010754592716693878,-0.005041144788265228
1782814222781348400,9.918348388671875,-0.01889183185994625,-0.04764846712350845,-0.01560825016349554
1782814222801430300,9.93843017578125,-0.027249008417129517,-0.047373853623867035,-0.04805678874254227
1782814222821511200,9.95851123046875,-0.018702886998653412,0.02075457200407982,-0.05361924320459366
1782814222841593300,9.97859326171875,-0.009454614482820034,0.04161188006401062,-0.02576039917767048
1782814222861674200,9.99867431640625,-0.015316206961870193,-0.005406956188380718,0.005937044974416494
1782814222881756400,10.01875634765625,-0.01955338567495346,-0.03984547406435013,0.016239192336797714
1782814222901838300,10.03883837890625,-0.015007521025836468,-0.023551002144813538,0.003912745509296656
1782814222921919200,10.058919189453125,-0.01618131436407566,0.0053558372892439365,-0.019007904455065727
1782814222942001200,10.079001220703125,-0.02066504955291748,0.01517200842499733,-0.014919771812856197
1782814222962082000,10.09908203125,-0.013789721764624119,0.016115406528115273,0.004043184220790863
1782814222982164200,10.119164306640625,-0.0008080786210484803,0.002996186725795269,0.015848767012357712
1782814223002245000,10.1392451171875,0.0007216266822069883,-0.016850203275680542,0.025969648733735085
1782814223022327300,10.159327392578126,-0.0056912763975560665,-0.03601253405213356,0.006624673027545214
1782814223042409200,10.1794091796875,-0.0034957663156092167,-0.01657305844128132,-0.01885751634836197
1782814223062490000,10.199489990234374,0.008870241232216358,0.03255195543169975,-0.025243505835533142
1782814223082572300,10.219572265625,0.011722248047590256,0.014537954702973366,-0.01783427782356739
1782814223102653200,10.239653076171875,0.011998430825769901,-0.010921696200966835,0.009263502433896065
1782814223122735400,10.2597353515625,0.006915749050676823,-0.05233915150165558,0.014062963426113129
1782814223142816300,10.279816162109375,0.0018309627193957567,-0.028916817158460617,-0.0019672526977956295
1782814223162898200,10.299898193359375,0.0017766726668924093,0.02527422271668911,-0.031115196645259857
1782814223182980400,10.31998046875,-0.002847211668267846,0.04265950620174408,-0.041091084480285645
1782814223203061000,10.34006103515625,-0.0007875850424170494,0.028237193822860718,-0.0005561562720686197
1782814223223143200,10.36014306640625,-0.006677926052361727,-0.012188553810119629,0.011113369837403297
1782814223243224000,10.38022412109375,0.006645919755101204,-0.06010427325963974,-0.01629061996936798
1782814223263306200,10.40030615234375,0.021906403824687004,0.013699883595108986,-0.00011369260028004646
1782814223283387600,10.4203876953125,-0.0038002883084118366,-0.03461936488747597,0.005162639543414116
1782814223303469600,10.440469482421875,-0.005807566922158003,-0.03817383944988251,0.00283209141343832
1782814223323551700,10.4605517578125,0.007165996357798576,-0.030439026653766632,-0.015874452888965607
