time,seconds_elapsed,z,y,x
1782814135978739000,0.077739013671875,-0.15071838473379612,0.2364830165851861,0.1401296245716512
1782814135998821000,0.097821044921875,0.07566577409803867,0.20937376812435685,0.2890201545574702
1782814136018903000,0.117903076171875,0.2523164724677801,0.0778876879312098,0.21175158490529283
1782814136038985000,0.13798486328125,0.2177384955614805,0.010277136929705739,0.17141268811840563
1782814136059066000,0.158066162109375,0.17696517114639282,-0.020725319577381014,0.1404829863202758
1782814136079148000,0.17814794921875,0.07080898171663284,-0.026509967393428084,0.10544033277798444
1782814136099230000,0.19822998046875,-0.0999678561836481,0.050663946245238185,0.04005679190987721
1782814136119312100,0.21831201171875,-0.1766173806220293,0.11206497508212923,0.04937337671173736
1782814136139394000,0.23839404296875,-0.1036105966001749,0.12380473191030322,0.062103624148294324
1782814136159476000,0.25847607421875,-0.0661047495484352,0.11704853564836085,0.1061789675171487
1782814136179558100,0.27855810546875,0.13109656941890716,0.0766927059929818,0.12706510367942972
1782814136199639600,0.2986396484375,0.19642741198539732,-0.01896831984221935,0.0995208156690467
1782814136219721500,0.318721435546875,0.12314473363161087,-0.05160867974944412,0.022371616346528754
1782814136239803600,0.3388037109375,0.07166705985069274,-0.05866495493650436,-0.03865114462934434
1782814136259885600,0.358885498046875,0.062140522092580794,-0.011339578529447317,0.011724586658505723
1782814136279967500,0.378967529296875,0.09203238700926303,-0.10263627167530358,-0.08991910291602835
1782814136300049700,0.399049560546875,-0.046507484152913094,-0.08583134041205048,-0.12395736518874764
1782814136320131600,0.419131591796875,-0.13670564147233963,-0.04630692007951438,-0.0767745664570015
1782814136340213500,0.439213623046875,-0.14323592002391813,-0.023308687134087083,0.005964860937872436
1782814136360294700,0.459294677734375,-0.147438047888875,-0.016423457664996383,-0.014872781598806614
1782814136380376600,0.47937646484375,-0.08420739247202873,-0.053707186398655175,-0.056948542940057814
1782814136400458500,0.49945849609375,-0.08454758421182632,-0.004845321139320731,0.04938592566605657
1782814136420540700,0.519540771484375,-0.10685410856604576,0.06249883401095867,0.0693061668050941
1782814136440622600,0.53962255859375,-0.18768179547190664,0.06389087289124727,0.02124011896541342
1782814136460704500,0.55970458984375,-0.1827694735109806,0.07243402563519775,-0.013637016700685489
1782814136480786700,0.57978662109375,-0.1646697531968355,-0.0021081512603908776,-0.08759651432051323
1782814136500868600,0.59986865234375,-0.10013269135653972,-0.006433613244071603,-0.11333607273017987
1782814136520950500,0.619950439453125,-0.07214344519078732,0.04219400486797094,-0.019735075564170253
1782814136541032400,0.640032470703125,-0.02675181332528591,0.07320369483344256,-0.005502031482383609
1782814136561114600,0.660114501953125,-0.025641806256771087,0.0076790101952850815,-0.01598964195814915
1782814136581196500,0.680196533203125,0.08876549416780471,-0.0382444635245949,-0.04453895142576657
1782814136601278500,0.700278564453125,0.28073066604733465,-0.10385171187967061,-0.06396177356983535
1782814136621360600,0.720360595703125,0.2624666950821876,-0.12167480720952152,-0.09513075488340109
1782814136641442600,0.740442626953125,-0.013569675669074058,-0.02680836581811309,-0.13011865516430698
1782814136661524500,0.7605244140625,-0.21036884357631205,0.026770444960519668,-0.0668146970492322
1782814136681606700,0.780606689453125,-0.12879706030488014,-0.00857720114402473,-0.06594077289206907
1782814136701688600,0.8006884765625,0.05091594824492931,-0.0734436410691589,-0.0197050092194695
1782814136721769500,0.82076953125,0.05739829600155353,0.015669935883954166,0.08496627541477791
1782814136741851600,0.8408515625,-0.02113689605295658,0.1305884737662971,0.19876608406603335
1782814136761933600,0.86093359375,-0.08079612272381782,0.16695925237350165,0.17582034849282352
1782814136782015500,0.881015380859375,-0.013133622339367866,0.1320865303043276,0.17054655454205347
1782814136802097700,0.90109765625,0.03025660657584667,0.11101619668155908,0.1829206454847008
1782814136822179600,0.9211796875,0.06472410884499549,0.07778466594815253,0.19638163661491126
1782814136842261500,0.941261474609375,0.06380114878118037,0.009884557415544986,0.128688366632862
1782814136862343400,0.961343505859375,0.03926233533024788,-0.027758871475979684,0.12943486501807347
1782814136882425600,0.981425537109375,0.03358078256249428,-0.06825929723381996,0.1162410095246043
1782814136902507500,1.001507568359375,0.03702653910219669,-0.08525799750350416,0.058040438963146875
1782814136922589400,1.02158935546875,0.08209843749403953,-0.09609664077349006,0.01618477637118194
1782814136942671600,1.041671630859375,0.04281856650710106,-0.055517231495305894,0.002043228231440298
1782814136962753500,1.06175341796875,0.0287128842651844,-0.009259338189288974,0.01639532754905522
1782814136982835500,1.08183544921875,0.0034989480316638946,-0.008400529402866959,0.015827071807580067
1782814137002917600,1.101917724609375,-0.04953881467282772,0.008418576516211033,0.02990019892018754
1782814137022999600,1.12199951171875,-0.15516834987998007,0.03269903129190206,0.037061847877595575
1782814137043081500,1.14208154296875,-0.09241057267189025,-0.03503339252360165,0.011567921092337927
1782814137063162600,1.16216259765625,-0.10419219588041305,-0.08146766530983149,-0.015594820254552177
1782814137083244500,1.18224462890625,-0.1939449475198984,0.004386544521152973,0.05910062010714318
1782814137103326500,1.202326416015625,0.018640987583994864,-0.04635280504785478,0.12447707821391522
1782814137123408600,1.22240869140625,0.19710078120231628,-0.12009871699921786,0.14654151917425914
1782814137143490600,1.242490478515625,0.0808534058690071,-0.07310023445896804,0.1510174042129889
1782814137163572500,1.262572509765625,-0.22457155645191668,0.020874591854959726,0.10289186300472355
1782814137183654700,1.282654541015625,-0.34270869105458257,0.1398528534568846,0.09137092742584645
1782814137203736600,1.302736572265625,-0.1311298871666193,0.09748882578425108,0.11938869643318466
1782814137223818500,1.322818603515625,0.06015314766764641,0.01586808880455792,0.11888419011030345
1782814137243900400,1.342900390625,0.09966799645423889,-0.017062778481841085,0.0804911666941829
1782814137263982600,1.362982666015625,0.09887304668426514,0.007745353429764509,0.059145911420439366
1782814137284064500,1.383064453125,0.060981415185332295,0.009273732040822505,0.007755527763906866
1782814137304146400,1.403146484375,-0.009662731358408927,0.028820728553831575,-0.014966103030112572
1782814137324228600,1.423228515625,-0.037250410985946655,0.024617358579859135,0.045332211562152946
1782814137344309500,1.4433095703125,-0.05718260742425918,0.01511369024068117,0.04910513139672112
1782814137364391700,1.4633916015625,-0.06737550013661384,-0.04253631549961865,0.07715806761556304
1782814137384473600,1.4834736328125,-0.1283674367159605,-0.017023469384759665,0.07699906852841377
1782814137404555500,1.503555419921875,-0.11636077257990836,-0.005044716168940067,0.0977991155761294
1782814137424637400,1.523637451171875,-0.11728548620939254,0.004883241996914148,0.10380294996765442
1782814137444719600,1.5437197265625,-0.13093874850869178,-0.015111132957413792,0.08639122105082496
1782814137464801500,1.563801513671875,0.00632686493396759,-0.007070376777648925,0.09916841290164738
1782814137484883500,1.583883544921875,0.08694529300332068,0.022130729395896196,0.11196544196410103
1782814137504965600,1.603965576171875,0.048079848036170006,0.036751667683571576,0.03680712876443285
1782814137525047600,1.624047607421875,0.05866787754595279,0.054014498782157895,-0.059327428300073363
1782814137545129500,1.64412939453125,0.10203881723880767,0.022414733969047664,-0.14099856202644295
1782814137565211600,1.664211669921875,0.08981997165679931,-0.022291545980796218,-0.1888263989297673
1782814137585293600,1.68429345703125,0.02582300804257393,0.004968947518989444,-0.1341975311089307
1782814137605375500,1.70437548828125,-0.08927461273372173,0.029283962151408195,-0.08809046271676198
1782814137625456600,1.72445654296875,-0.12040741762220859,-0.03250855022110045,-0.07229016018509864
1782814137645538600,1.74453857421875,-0.12021335635483264,-0.04879793317764997,-0.05351059068089816
1782814137665620500,1.764620361328125,-0.07985562700331211,-0.03148417560942471,-0.033421144154528154
1782814137685702700,1.78470263671875,0.007414660170674324,-0.0828456025995314,0.0137578095191624
1782814137705784600,1.80478466796875,0.09954173972606659,-0.05389226064197719,0.11258568362114019
1782814137725866500,1.824866455078125,0.03631459144055843,0.06077646719776093,0.20213004407379775
1782814137745948700,1.84494873046875,-0.0817249280065298,0.13337569333203136,0.16829108549915253
1782814137766030600,1.865030517578125,-0.15811200211644172,0.13162198153249918,0.11040148058300837
1782814137786112500,1.885112548828125,-0.019686697244644166,0.09952676135264336,0.1261518430257216
1782814137806194400,1.9051943359375,0.09805822317004204,0.04198503829240799,0.11247172011896035
1782814137826276600,1.925276611328125,0.16824468907415865,-0.018702435447648165,0.06270259925501886
1782814137846358500,1.945358642578125,0.10889175187349319,-0.04045717113800346,0.015274513675447087
1782814137866440400,1.9654404296875,0.010746434941887855,-0.014713438876718282,-0.048484492447460066
1782814137886521600,1.985521484375,-0.07371522455215454,0.011757877006754278,-0.02075442922414513
1782814137906603500,2.005603515625,-0.09906067821085453,-0.0006127250708639621,-0.04604666627470869
1782814137926685700,2.025685791015625,-0.0608417144536972,0.008284574873000383,-0.006280377177428454
1782814137946767600,2.045767578125,0.05414718525111675,0.003082476185262203,-0.028609163595805873
1782814137966849500,2.065849609375,0.14508651632666586,-0.008563318749144674,-0.009700198983208974
1782814137986931500,2.085931396484375,0.11018646785914897,-0.035193770717084405,-0.0005193545488524251
1782814138007013600,2.106013671875,-0.01818155337870121,-0.02932254059612751,0.07041569894957356
1782814138027095600,2.126095458984375,-0.08947861087322234,0.01184497076831758,0.0765591062085703
1782814138047177500,2.146177490234375,-0.046322190713882445,-0.006914163302630186,0.035082181835081425
1782814138067259600,2.166259765625,0.02494680972993374,-0.04681530799306929,0.04866877210633829
1782814138087341600,2.186341552734375,0.016312836897373197,-0.027580007777735588,0.0848523210457526
1782814138107423500,2.206423583984375,-0.08013795107603072,-0.01789221504330635,0.0037935379309114066
1782814138127504600,2.226504638671875,-0.04408580996394157,-0.049937750862538814,-0.010746736335987224
1782814138147586600,2.246586669921875,-0.07268588150441646,-0.0034515286933630702,0.001745505660190247
1782814138167668500,2.26666845703125,-0.013541034096479415,-0.02020049198567867,0.007353458902193233
1782814138187750700,2.286750732421875,0.05440379036068916,-0.015666136491671204,-0.015240499524702317
1782814138207832600,2.30683251953125,-0.04045592902898788,-0.0734287357609719,-0.15224146611522882
1782814138227914500,2.32691455078125,-0.14593641115427017,0.008029869459569454,-0.12373091775542125
1782814138247996700,2.34699658203125,-0.09548691137731075,0.06714987468719483,-0.037248835516790854
1782814138268078600,2.36707861328125,0.02956862431168556,0.019933730808272956,-0.04508163890114519
1782814138288160500,2.387160400390625,0.09376490989029407,-0.037472675434499975,-0.08833314889883621
1782814138308242400,2.407242431640625,0.0702133539110422,-0.007579641474038362,-0.023632019070629028
1782814138328324600,2.42732470703125,-0.0056529111951589585,0.06013889994658529,0.024786098176310768
1782814138348406500,2.447406494140625,-0.09504092117547988,0.019631094599887728,0.0022640359418466685
1782814138368488400,2.467488525390625,-0.11484978349506854,-0.013503770826011896,-0.007770122544839978
1782814138388569600,2.487569580078125,0.050279988428950304,-0.10142762653790413,0.00639459184135776
1782814138408651500,2.507651611328125,0.018674889853596686,-0.11261245289705693,-0.04756893480538856
1782814138428733700,2.527733642578125,-0.0054500820994377135,-0.11431355772651731,-0.030702359315659847
1782814138448815600,2.547815673828125,-0.13631284276247024,-0.021880334831401706,-0.034462054342473854
1782814138468897500,2.5678974609375,-0.18294073842465877,0.0022946868084371087,-0.06202090516774915
1782814138488979500,2.5879794921875,-0.11320201628804206,-0.014607859610393643,-0.036950651721237224
1782814138509061600,2.6080615234375,0.05381517681777477,-0.03082826898396015,0.006329993039392866
1782814138529143600,2.6281435546875,0.11520867993533611,-0.05927439207173883,-0.03188094267493579
1782814138549225500,2.6482255859375,-0.06655132427215575,-0.0021933453258126973,-0.039937809739285145
1782814138569307600,2.6683076171875,-0.11857494149804114,-0.0028940409410744905,-0.045957937678485175
1782814138589389600,2.6883896484375,-0.06968786873221397,0.008477686292305588,-0.004645565350097604
1782814138609470700,2.708470703125,0.014143091642856598,-0.07304536246657371,0.04200061945402995
1782814138629552600,2.728552734375,0.04838379941880703,-0.09886040639840066,0.06320678591749165
1782814138649634600,2.748634521484375,-0.04541618178486824,-0.043031332474946976,0.04696465333588421
1782814138669716500,2.768716552734375,-0.19146306757628917,0.04076959808804095,0.059900341950356956
1782814138689798700,2.788798583984375,-0.16486264542043208,0.09846483120955526,0.09004214477380737
1782814138709880600,2.808880615234375,-0.01028349360525608,0.10577391211390495,0.1110173474590294
1782814138729962500,2.82896240234375,0.08861118038892746,0.01389306240454316,0.08535770415146834
1782814138750044700,2.849044677734375,0.12357961791753769,-0.017590894009172915,0.021169711477169766
1782814138770126600,2.869126708984375,0.11975859832465648,-0.025559242539852856,0.015354111400432883
1782814138790208500,2.88920849609375,-0.0034048400074243542,-0.00872720407396555,0.0172318057726603
1782814138810290700,2.909290771484375,0.025835283002257344,-0.05815817445814609,0.006927853901265189
1782814138830372600,2.92937255859375,0.01702244647145271,-0.041754736667871474,0.09598092370564118
1782814138850453500,2.94945361328125,-0.02529752286374569,0.03841141758933663,0.14704346821387299
1782814138870535700,2.96953564453125,-0.0961339771091938,0.023121493998914954,0.15838493730630726
1782814138890617600,2.98961767578125,-0.08787409828603267,0.016672756250947714,0.14417967628058975
1782814138910699500,3.009699462890625,-0.1346983933031559,0.08170183939188719,0.1634363024117425
1782814138930781700,3.02978173828125,-0.16695990996062754,0.14979688597470522,0.1710925162533298
1782814138950863600,3.049863525390625,-0.0796294170320034,0.17462956780567765,0.11704472712292335
1782814138970945500,3.069945556640625,0.061598670300841325,0.0924567499011755,0.08240759477475658
1782814138991027700,3.09002783203125,0.18844518105983732,0.038750732546299696,0.08385459697898477
1782814139011109600,3.110109619140625,0.24191373639702796,0.019513678765296937,0.07135035858433693
1782814139031191600,3.130191650390625,0.12182780581414698,-0.011642214737832545,0.02438147659790702
1782814139051273500,3.1502734375,-0.11076806713938712,-0.009238076205551624,-0.03511428487324156
1782814139071355600,3.170355712890625,-0.15371990463733673,-0.02303483862876892,-0.013416960192238911
1782814139091436300,3.190436279296875,-0.05596095667481422,-0.049559857460856435,0.06925181540250777
1782814139111518500,3.2105185546875,-0.024213234758377073,-0.01868614189997315,0.14611107360143213
1782814139131600400,3.230600341796875,-0.048778351694345475,0.038407764327526094,0.1478902486357838
1782814139151682300,3.250682373046875,0.0020025719940662385,0.060100102306157345,0.15332506010085342
1782814139171764700,3.2707646484375,0.014199790266156196,0.0779005474127829,0.2030572419213131
1782814139191846700,3.2908466796875,-0.049695466539263725,0.07965805860459804,0.16404917361307889
1782814139211928300,3.31092822265625,0.02617839735150337,0.06227510825768113,0.12793521017800086
1782814139232010200,3.33101025390625,0.09852057998478413,0.017491671418398618,0.03193854091395624
1782814139252092400,3.351092529296875,0.0478968926846981,-0.0007093173131346702,-0.0006947499316651373
1782814139272174300,3.37117431640625,-0.06258709681630134,0.060007601717114445,-0.030423295779107136
1782814139292256300,3.39125634765625,-0.10517068552374839,0.04855550272390246,-0.06412382313059642
1782814139312338400,3.41133837890625,-0.03941664910912514,0.01601458460316062,-0.10420750304739922
1782814139332420400,3.43142041015625,0.013179799568653106,0.00804462863728404,-0.08247710721385665
1782814139352501500,3.45150146484375,0.02825637266933918,0.019621230792999267,-0.009660548534477129
1782814139372583400,3.47158349609375,0.04810264438986778,0.024441198295354842,0.013912114164885133
1782814139392665300,3.491665283203125,0.022881693893671035,0.014524053784459829,0.0025687910420820114
1782814139412747300,3.511747314453125,-0.04087620026767254,-0.03647358139455318,-0.03042444655657746
1782814139432829400,3.531829345703125,-0.16017127273380755,0.029231939703226087,0.004592003965377807
1782814139452911400,3.551911376953125,-0.18351707700788975,0.057607847099006175,0.052072927127173166
1782814139472993300,3.5719931640625,-0.1625835945725441,0.03303060133382678,0.013150258380337617
1782814139493075500,3.592075439453125,-0.00442541522681713,-0.06146934483274817,-0.014097138175857253
1782814139513157400,3.612157470703125,0.016871639823913574,0.011593407160043716,0.05459012497933581
1782814139533239300,3.6322392578125,-0.02523731710910797,0.07881561643108725,0.07450358018456027
1782814139553321500,3.652321533203125,-0.10921206986904143,0.12627440995946526,0.004884904231037945
1782814139573403400,3.6724033203125,-0.05008066646456718,0.07160407761707901,-0.031348940990353
1782814139593485300,3.6924853515625,0.06055588324964046,0.01618584951683879,0.0009319744873326271
1782814139613566500,3.71256640625,0.0807487764507532,-0.025781653118878603,-0.01055148319194559
1782814139633648400,3.7326484375,0.11527239282131195,0.003006488339602947,-0.004009199108742177
1782814139653730300,3.752730224609375,0.05356383240520954,0.037341450270265336,0.03180791853792034
1782814139673812500,3.7728125,-0.09685761520862579,0.04573430782333016,-0.008130087564187123
1782814139693894400,3.792894287109375,-0.08138415174484252,0.01742445140108466,-0.027683828911813906
1782814139713976300,3.812976318359375,-0.011889175236225128,-0.0023885756369680165,0.005139755774941295
1782814139734058500,3.83305859375,-0.030818916633725164,0.012905512671917677,0.02022374956368003
1782814139754140400,3.853140380859375,-0.057983402413129805,0.02495835403725505,-0.01593166469321586
1782814139774222300,3.873222412109375,-0.03470131102502346,0.02033259393274784,-0.010238129226723685
1782814139794304300,3.89330419921875,-0.026981530427932738,-0.0009520400278270245,0.00007814783670473843
1782814139814386400,3.913386474609375,-0.026031682357192037,-0.04329597476050257,0.01722891512925271
1782814139834468400,3.93346826171875,-0.032061025649309155,-0.05245192564055323,0.007948648316366597
1782814139854550300,3.95355029296875,-0.056850598990917205,-0.030357363536581396,0.010709687694651073
1782814139874631400,3.97363134765625,-0.11365852788388728,0.05183386680744588,0.07424589279617648
1782814139894713300,3.99371337890625,-0.140345459279418,0.09866298413015902,0.08400860023060813
1782814139914795500,4.01379541015625,-0.03498188153207302,0.03280877527669072,0.060203174521564505
1782814139934877400,4.03387744140625,0.12159516610205173,0.0019500380892306566,0.058119591446849514
1782814139954959400,4.05395947265625,0.14783786086142062,0.0212281545329839,0.0572134226876311
1782814139975041300,4.074041259765625,0.054442368805408474,0.013464607859402894,0.026482517697499132
1782814139995123500,4.09412353515625,0.01106733745932579,0.0005531038381159305,0.004167440144065768
1782814140015205400,4.114205322265625,-0.1225637188732624,-0.002471358549594879,0.010962182884686625
1782814140035287300,4.134287353515625,-0.1108124908030033,-0.053801805879548185,-0.01618335159907583
1782814140055369500,4.154369384765625,-0.12121405782997607,-0.06105016957260668,0.00669704310336383
1782814140075451400,4.174451416015625,-0.18582535395026206,0.00913929200619459,0.09385010395571589
1782814140095533300,4.194533203125,-0.11559387986063957,0.01177139407545328,0.09739522921666502
1782814140115614500,4.214614501953125,-0.02842939114868641,-0.07859693217910826,0.04757691261586733
1782814140135696400,4.2346962890625,-0.012493570870161055,-0.03825841898471117,0.05878676381842233
1782814140155778300,4.2547783203125,-0.012817395997047424,0.03365691653862595,0.10292016665060072
1782814140175860500,4.274860595703125,-0.1220101766437292,0.10441000334955751,0.07806583924340084
1782814140195942400,4.2949423828125,-0.1230126316845417,0.13894574854932726,-0.007188190475283772
1782814140216024300,4.3150244140625,0.039922845065593716,0.03671440441310406,-0.04089865412807558
1782814140236106500,4.3351064453125,0.1530675782084465,-0.02368731118813157,-0.07401389697147533
1782814140256188400,4.3551884765625,0.15211188491880892,-0.020430501349270342,-0.09322845579287968
1782814140276270300,4.375270263671875,0.04871697689592838,-0.004585281963646412,-0.06883912468207999
1782814140296352500,4.3953525390625,-0.06820844382941722,0.00008212532550096511,-0.06735053465871606
1782814140316434400,4.415434326171875,-0.06520517036020755,-0.0012266191855072974,-0.028290425635990685
1782814140336516400,4.435516357421875,-0.11636135710179805,0.04927636434435844,0.049476298230094834
1782814140356598300,4.455598388671875,-0.12662673052847384,0.05346797081530094,0.09356026329682209
1782814140376679400,4.475679443359375,-0.08665829275548458,0.06769055743515491,0.07870537925595417
1782814140396761300,4.49576123046875,-0.003113748106360435,0.033561639470607044,0.03197307565450901
1782814140416843500,4.515843505859375,0.03232873667478561,0.016733400397002697,0.003466577848733868
1782814140436925400,4.535925537109375,0.018004443246126173,0.02470657123327255,0.059380446262098846
1782814140457007400,4.55600732421875,-0.024863223099708554,0.019391221429407596,0.09289874891447834
1782814140477089300,4.57608935546875,-0.090133859911561,0.02419073066562414,0.04907506961859762
1782814140497171500,4.59617138671875,-0.10775134966671467,0.024080109898000954,0.060527470005908975
1782814140517253400,4.61625341796875,-0.07716565726697444,0.022746669337153434,0.0623898846106138
1782814140537335300,4.636335205078125,0.003738602006435394,0.04801262801885604,0.04613423952688463
1782814140557417500,4.65641748046875,0.04701543367505073,0.07728972203806042,0.07754970641480759
1782814140577499400,4.67649951171875,0.08788578872382641,0.05097556947767734,0.08570828942111693
1782814140597581300,4.696581298828125,0.0610205781519413,-0.013916735541075467,0.05497168534256052
1782814140617662500,4.716662353515625,-0.056204702302813526,0.020156652843952176,0.03990016287632752
1782814140637744400,4.736744384765625,-0.07174129413068295,-0.015093378105014562,0.038995482821296897
1782814140657826300,4.756826416015625,0.060171267846226686,-0.09036679188460112,0.05725927568993065
1782814140677908500,4.776908447265625,0.03297229527533054,-0.04160802167356014,0.12291218525106086
1782814140697990400,4.796990478515625,-0.06564823795258999,0.025539514926075934,0.16447700710371135
1782814140718072300,4.817072265625,0.004722936868667602,-0.060961979832500214,0.1300240174171049
1782814140738154500,4.837154541015625,-0.0075362407237291335,-0.08201397408097982,0.09617156917322427
1782814140758236400,4.857236328125,-0.07317512632608414,0.005581453394144773,0.12116480272761546
1782814140778318300,4.877318359375,-0.03438800729215145,0.07522066067904233,0.12226562184267677
1782814140798400500,4.897400390625,-0.06411971321105957,0.08421221477761864,0.08484845772138797
1782814140818482400,4.917482421875,-0.0861953514188528,0.03906462080106139,0.03208729260172695
1782814140838564400,4.937564453125,0.08154957143962382,-0.08988441519513726,-0.11200794766526669
1782814140858645500,4.9576455078125,0.19325462716817854,-0.13679331975579262,-0.1737181337828748
1782814140878727400,4.9777275390625,0.10680559324920177,-0.05991466273665428,-0.14798039287095888
1782814140898809300,4.997809326171875,0.027017770785093306,0.036759412598609924,-0.08444673591954634
1782814140918891500,5.0178916015625,0.04012801224887371,0.03954641296863556,-0.053410564372525546
1782814140938973400,5.037973388671875,0.05012158299684524,0.03287774885967373,-0.012453494588099419
1782814140959055400,5.058055419921875,0.025561142235994337,0.03227335322573781,0.002801695615658536
1782814140979137500,5.078137451171875,0.039358781442046166,-0.0037269115686416623,-0.008514282842492685
1782814140999219500,5.098219482421875,0.012009586745500563,-0.028471038333326575,-0.0028427674115635453
1782814141019301400,5.11830126953125,-0.03149170132875442,-0.009745733466744422,0.04873294165004045
1782814141039383300,5.13838330078125,-0.11379939765930175,-0.02821311804950237,0.05560314251335803
1782814141059465500,5.158465576171875,-0.09173194275796413,-0.08305340013131499,0.04533444918501191
1782814141079546400,5.17854638671875,-0.03423661612272262,-0.031073768177628514,0.04950134133980609
1782814141099628500,5.198628662109375,-0.09047580521702765,0.07340659699440003,0.13551950042769312
1782814141119710500,5.21871044921875,-0.18662848702669144,0.16954963419288396,0.14847528198212384
1782814141139792400,5.23879248046875,-0.04318097007870674,0.1270819269500673,0.135541292134393
1782814141159874600,5.25887451171875,0.10157879851162432,0.062021133496612306,0.0753858748778468
1782814141179956500,5.27895654296875,0.09266717778146266,0.04576455683112144,0.0637304216325283
1782814141200039200,5.2990390625,0.008828034099936485,0.06998027580752969,-0.0014995406756410374
1782814141220121000,5.31912109375,0.008727496334910392,0.049059945114701985,-0.024808337407582436
1782814141240202200,5.3392021484375,-0.0013549217402935027,-0.006479132886230945,-0.041988828551536427
1782814141260284200,5.3592841796875,0.0033019641548395155,-0.0259321675054729,-0.05651685525821522
1782814141280366000,5.379365966796875,-0.022498832055926322,0.03828939864486456,-0.007026263641286641
1782814141300448300,5.3994482421875,0.08165595442354678,-0.022308131789416073,0.015616927055083215
1782814141320530200,5.4195302734375,0.0422545028835535,-0.0912571648530662,0.03658443049103953
1782814141340612000,5.439612060546875,-0.08594576057195663,-0.04732698384225368,0.09863954845564439
1782814141360694300,5.4596943359375,-0.18252105170786379,0.046858489547669885,0.1965310915555805
1782814141380776200,5.479776123046875,-0.167061616769433,0.03273395647481084,0.22443963716793805
1782814141400858000,5.499858154296875,-0.11910744093954563,0.02239931720420718,0.20576788911949842
1782814141420940300,5.519940185546875,0.025371757143735883,-0.02243921082317829,0.21776134671410544
1782814141441022200,5.540022216796875,0.13051204752922058,-0.07480988792106509,0.1843085561791435
1782814141461102800,5.560102783203125,0.10886837099790572,-0.11869228426739573,0.10400063709737732
1782814141481185000,5.58018505859375,-0.01759410887956619,-0.05750555576831102,0.05575749282485339
1782814141501267200,5.60026708984375,-0.1834533641219139,0.017717589128762482,0.05666873048483394
1782814141521349000,5.62034912109375,-0.17206161701381206,0.029130525155365464,0.07210253779166377
1782814141541431300,5.640431396484375,-0.1732189703553915,0.05274973954334855,0.05073566434115637
1782814141561513200,5.66051318359375,-0.0821305861979723,0.0264189281091094,0.010017613777262157
1782814141581595100,5.68059521484375,-0.007985738056898117,0.021066315034776927,-0.07127100973781197
1782814141601677000,5.700677001953125,0.04329728993475437,0.016436024885624647,-0.09039224598626605
1782814141621759200,5.72075927734375,0.045914778956770895,-0.017114216408133504,-0.09020746400388889
1782814141641841200,5.740841064453125,0.008279168045520782,-0.019523323376476765,-0.12986322823166846
1782814141661923000,5.760923095703125,0.00935059666931629,-0.03782207339406013,-0.07089012522802222
1782814141682005200,5.781005126953125,-0.033173955327272416,0.022456015827506778,-0.03290987929729745
1782814141702087200,5.801087158203125,-0.08194412371516227,0.03853431331664323,0.015172906189697095
1782814141722169000,5.821169189453125,-0.16313421419262886,0.059848611763119695,0.062223656631656916
1782814141742250000,5.84125,-0.060387540945410725,0.0754364953868091,0.1194795439212583
1782814141762332000,5.861331787109375,0.0033732758253812787,0.08288125843480229,0.13476590558141469
1782814141782414000,5.8814140625,-0.027097850283980367,0.03694426764622331,0.0909443177779205
1782814141802496300,5.901496337890625,-0.027968203377723693,0.008427344344556331,0.027910801501525563
1782814141822578200,5.921578125,0.05348316838443279,-0.014013620044291018,-0.011158246596192474
1782814141842660000,5.94166015625,0.10705986027121543,-0.053311903470754624,-0.005050919864152092
1782814141862742300,5.9617421875,-0.03448094627261162,0.027398148404806852,0.009855047051626023
1782814141882824200,5.98182421875,-0.11212532696723937,0.06818272486627101,-0.008002745132270502
1782814141902906000,6.001906005859375,0.024668577310442922,-0.03332549262717366,-0.009084334390476578
1782814141922988300,6.02198828125,0.05026420633792877,-0.007702975592762232,0.0787180012755096
1782814141943070200,6.0420703125,-0.04822071781158447,0.09603387773558497,0.12098648701864294
1782814141963152100,6.062152099609375,-0.13094342468380926,0.13417290812432764,0.11337247748412191
1782814141983233000,6.08223291015625,-0.0779296273767948,0.10385492675006389,0.07298123858864419
1782814142003315000,6.10231494140625,0.003487257593870163,0.03931815717071294,0.04692420259448699
1782814142023396900,6.12239697265625,0.04841594812273979,-0.040215398271381854,-0.005149557933036703
1782814142043479000,6.14247900390625,0.11890461184382438,-0.060766603390872476,-0.04277299206601456
1782814142063561000,6.16256103515625,0.08893675908148288,-0.04388429604247212,-0.020318129299266727
1782814142083643000,6.182642822265625,-0.11003624573349952,0.014745587580651044,-0.03129539787194226
1782814142103725300,6.202725341796875,-0.08495733405649661,-0.01013078726157546,-0.0161243594123458
1782814142123807200,6.22280712890625,0.04624503382444382,0.0003958674497902393,0.09203267927020788
1782814142143889200,6.24288916015625,-0.0106049806445837,0.03831789408698678,0.14595317962598053
1782814142163971000,6.26297119140625,-0.04413607884645462,0.00847878227084875,0.07932576704346575
1782814142184053200,6.28305322265625,-0.05573474670350551,0.005137216757982969,0.10431637024935335
1782814142204135200,6.30313525390625,0.0320242007702589,-0.031431641704589126,0.13621930099381133
1782814142224217000,6.323217041015625,-0.043482583373785015,0.005561725780367851,0.10862592227784916
1782814142244298000,6.343298095703125,-0.07948036395013332,-0.037843700703978536,0.05980429769735783
1782814142264380000,6.3633798828125,-0.03913198694884777,-0.016959025846421717,0.07236036217736545
1782814142284462000,6.383462158203125,-0.0022989245921373365,-0.026833792520314453,0.046368774368544106
1782814142304544000,6.4035439453125,-0.02407002689540386,0.003896715177595615,0.019696072427765464
1782814142324626000,6.4236259765625,-0.007084405303001404,0.0012654898911714553,0.04047150105745531
1782814142344707800,6.443707763671875,0.015620762979984283,-0.011782646121829747,0.020543542402843014
1782814142364790000,6.4637900390625,0.04010521589517593,-0.04549801484942436,-0.011403042536962312
1782814142384872000,6.483871826171875,0.03102525286078453,-0.054207975527644156,-0.021794003688241356
1782814142404954000,6.5039541015625,-0.002088496711850166,-0.0295101721227169,-0.006891869272431358
1782814142425036300,6.524036376953125,0.016144494593143464,-0.031148148588091132,0.03352997254057554
1782814142445118200,6.5441181640625,-0.12211363701820373,0.03766016083061695,0.07630974369053728
1782814142465200000,6.5642001953125,-0.12700140905976295,0.06843903771489858,0.07123234909470193
1782814142485281000,6.584281005859375,0.04473696734905243,-0.011016630185395478,0.05891063222668599
1782814142505363000,6.604363037109375,0.13039163601994513,-0.013373276314139365,0.10102454389603809
1782814142525444900,6.62444482421875,0.021385902377963065,0.05103489844948053,0.09731549677764996
1782814142545527000,6.644527099609375,-0.12053250530660152,0.11955533083751797,0.07011526383142917
1782814142565609000,6.66460888671875,-0.13174421967267988,0.05871157055720687,-0.046630302248406225
1782814142585691000,6.68469091796875,-0.060631871095299716,-0.015293576852232217,-0.13844375384394078
1782814142605773000,6.70477294921875,0.0724661012738943,-0.028805384854227303,-0.06430110679310747
1782814142625855000,6.72485498046875,0.10261106416881084,-0.04603577498793602,-0.07389461797336117
1782814142645937000,6.74493701171875,0.026346739655733108,-0.03951134165525436,-0.06958286942120176
1782814142666019000,6.76501904296875,-0.11925532497763633,0.04698562305867671,-0.05296904028325807
1782814142686101000,6.78510107421875,-0.19794658437669277,0.08575915195867419,0.03057653869561618
1782814142706183200,6.80518310546875,-0.09149111973941326,0.011421119333058595,0.06992450419941451
1782814142726264000,6.82526416015625,-0.04335983377695083,-0.024118834473192692,0.023683470696653237
1782814142746346000,6.845345947265625,-0.0199029703438282,-0.0515470857553184,-0.004293248776844121
1782814142766428000,6.865427978515625,0.07189034721255302,-0.07327201082929968,-0.017689896262594266
1782814142786510000,6.885510009765625,0.09222761732041836,-0.05927709548547864,0.03627229351865826
1782814142806592000,6.905592041015625,0.016080781707167625,-0.05641819892302155,0.015279925069503951
1782814142826674000,6.925673828125,-0.005181202030181884,-0.02445274260267615,0.02415910255149938
1782814142846756000,6.945756103515625,-0.038757308417558665,-0.03678016312569379,0.011026916400680783
1782814142866838000,6.965838134765625,-0.10001812506616115,-0.04520736133977771,0.03773852786303032
1782814142886920000,6.985919921875,-0.1460568226635456,-0.020305413664877415,0.0814499561232049
1782814142907001900,7.006001953125,-0.11554945619702338,0.004874328038096428,0.10762165887244045
1782814142927084000,7.026083984375,-0.04543664005100727,-0.0019805062927305698,0.13124243502984753
1782814142947166000,7.046166015625,-0.0849842220634222,0.03744169577434659,0.13730485860765912
1782814142967247000,7.0662470703125,-0.04807692542672157,0.027842677301913497,0.10965546625498682
1782814142987329000,7.0863291015625,-0.13095219251215456,0.04755523964017629,0.07973464923845604
1782814143007411000,7.106410888671875,0.03197802354097366,-0.015248714797198772,0.07805910810851492
1782814143027493000,7.1264931640625,0.14302198501229285,-0.03588131458982825,0.12403204699330962
1782814143047575000,7.146574951171875,0.1716466064721346,-0.015292992330342531,0.09784467175090684
1782814143067657000,7.166656982421875,0.13151859422326087,-0.04071034218147397,0.08468297409452498
1782814143087739000,7.18673876953125,0.14287994619309902,-0.020677607978135348,0.08296583144571631
1782814143107821000,7.206821044921875,0.08515957863032818,0.03340045755952596,0.11404556357325055
1782814143127903000,7.226903076171875,-0.0724187550008297,0.0932993382051587,0.14130763710876926
1782814143147985000,7.24698486328125,-0.06114858844578266,0.04868059040829539,0.0743453345826594
1782814143168067000,7.267067138671875,-0.04109831858575344,0.023804069435596466,0.030393439496960488
1782814143188148000,7.28714794921875,-0.02433715339899063,0.03286562003046274,0.0434198979676934
1782814143208229400,7.3072294921875,0.03899170169532299,0.02254310958907008,0.0012656268884893506
1782814143228311300,7.327311279296875,-0.022325813576579093,0.015451105501502752,-0.034870584911014885
1782814143248393200,7.347393310546875,-0.10405658680200576,0.081711484003067,-0.05571494145791512
1782814143268475400,7.367475341796875,0.00038519992530345915,0.04414090115204453,-0.0516842429034179
1782814143288557300,7.387557373046875,0.03215396462976932,0.01091989181265235,-0.060254297354025765
1782814143308639200,7.40763916015625,0.04111234711110592,0.048209319634735584,0.014047978971619158
1782814143328721400,7.427721435546875,0.021868717458844184,0.0715546855174005,0.019012460378045215
1782814143348803300,7.44780322265625,0.008829787665605545,0.07358882169350982,-0.00026782518990803506
1782814143368885200,7.46788525390625,-0.0311965177744627,0.028963498025387523,-0.007365647096908651
1782814143388967200,7.48796728515625,-0.11601298205554485,0.020974252837151288,0.009309871933283283
1782814143409049300,7.50804931640625,-0.12430150245130062,-0.057401364741474385,-0.024251762970746493
1782814143429130200,7.528130126953125,-0.13497019598186016,-0.008300503094494342,0.01624856232239399
1782814143449212400,7.54821240234375,-0.09850655145943164,0.006700520551949739,0.07977000367962755
1782814143469294300,7.56829443359375,-0.11154080507755279,0.05015782335400581,0.12085355395451187
1782814143489376300,7.588376220703125,-0.08485738081336021,0.04243365884274244,0.09873917290521785
1782814143509458200,7.608458251953125,-0.06337444780170917,0.02996098463013768,0.05782776432684622
1782814143529540400,7.628540283203125,0.024225509718060492,0.02235840067192912,0.0001286633143899962
1782814143549622300,7.648622314453125,0.11164718806147575,0.0010576923593878745,-0.039079512409516605
1782814143569704200,7.6687041015625,0.11872808623313903,-0.004611877709627152,-0.04694500792049803
1782814143589786400,7.688786376953125,0.05484101273417472,-0.02852642178237438,-0.07439207350094802
1782814143609868300,7.708868408203125,-0.035195232021808624,-0.039960985118895766,-0.061314423699094914
1782814143629950200,7.7289501953125,-0.15800854174196718,0.022703999239206313,0.021606837952532803
1782814143650032400,7.749032470703125,-0.09302022900283335,-0.022992753052711486,0.06370221845135092
1782814143670113300,7.76911328125,0.024541736060380934,-0.04178542406708002,0.11026822785846889
1782814143690195200,7.7891953125,-0.03598141396343708,0.011595306856185197,0.16963725767740978
1782814143710277400,7.80927734375,-0.09305003961920738,0.089950173907727,0.1973923662937246
1782814143730359300,7.829359375,-0.15985621543526649,0.1064851291231811,0.1409211128760595
1782814143750441200,7.849441162109375,-0.06609890432953834,0.03426262734681368,0.07902923178230412
1782814143770523400,7.8695234375,0.11618483149111271,-0.057503217680752276,0.03791106000189902
1782814143790605300,7.889605224609375,0.08132920668721198,-0.04896788291707635,-0.014596918091271071
1782814143810687200,7.909687255859375,-0.053263388153910636,0.00024359949752688405,-0.03390331534801516
1782814143830769400,7.929769287109375,-0.20910627629458903,0.13181611586511136,-0.0018558501498890107
1782814143850851300,7.949851318359375,-0.14112696504592895,0.09325111514925956,0.03633123661468271
1782814143870933200,7.969933349609375,0.011361936491727828,0.0017502046681940554,0.02046761848926544
1782814143891014400,7.990014404296875,0.10890987205207348,-0.028130700463056563,0.062094792387867345
1782814143911096300,8.010096435546876,0.09991700277924537,0.0028740941315889357,0.0680057745639002
1782814143931178200,8.03017822265625,0.060652329361438745,-0.0012009002223610876,0.05470006076036952
1782814143951260400,8.050260498046875,0.027460838377475736,-0.009556056113541126,0.07684118368611671
1782814143971342300,8.07034228515625,-0.04814648353159427,-0.00022679449319839477,0.08714355552177876
1782814143991424300,8.09042431640625,-0.06897825915813445,-0.021094079824537038,0.10688945387406273
1782814144011506400,8.11050634765625,-0.12446575310230254,0.03701587157770991,0.0999706965947058
1782814144031588400,8.13058837890625,-0.13497779476642607,0.04306085083037615,0.07360110578634775
1782814144051670300,8.150670166015624,-0.10057985060214995,-0.005320902761816978,-0.0039284620227292176
1782814144071752200,8.170752197265625,0.004198620733618736,-0.016964871065318583,-0.04740094869418535
1782814144091834400,8.19083447265625,0.06342062503099441,-0.010457242736965418,-0.07737248668437824
1782814144111916300,8.210916259765625,0.05558686266541481,0.015344868648052215,-0.0695885182772763
1782814144131997400,8.23099755859375,0.032092005309462546,0.017003011118620633,-0.059295183698018075
1782814144152079400,8.251079345703126,0.03259177152514457,0.019241145434230566,-0.01827426859687548
1782814144172161300,8.271161376953126,0.017809212934970856,-0.04698723049387336,-0.03592254164936021
1782814144192243500,8.291243408203124,0.008218377768993377,-0.006828530845791101,0.03849394020705949
1782814144212326400,8.311326416015625,-0.1367635091394186,0.09887246216237544,0.1281245313381776
1782814144232408300,8.331408203125,-0.16151801116764544,0.02034764537140727,0.08127804275555536
1782814144252490200,8.351490234375,-0.04133446542918682,-0.06494242777079344,0.06455111776511184
1782814144272572200,8.371572265625,-0.032549101427197455,-0.00808905230090022,0.10870037575354799
1782814144292654300,8.391654296875,-0.11469839232563972,0.047707069201022384,0.07711680402341298
1782814144312736300,8.411736328125,-0.10159399608075619,0.0769061295479536,0.06376249727122485
1782814144332818200,8.431818115234375,0.00843698895573616,0.05371741553172469,0.03536957480856217
1782814144352900400,8.451900390625,0.16544307565689087,-0.019386691384762525,0.008665742510580457
1782814144372981200,8.471981201171875,0.21957272525131702,-0.06233268366381526,-0.042399838771531355
1782814144393063400,8.4920634765625,0.12358137148320675,-0.014187223045527934,-0.04183084324453957
1782814144413145300,8.512145263671876,-0.06595803455412387,0.029589374838769434,0.011409935785341076
1782814144433227300,8.532227294921874,-0.18060031277835367,0.0858490221992135,0.03291354397555114
1782814144453309200,8.55230908203125,-0.08011106306910515,0.05374401127770543,0.06651130735559854
1782814144473391400,8.572391357421875,0.03353460533320904,-0.039817046603560446,0.04290119415610097
1782814144493473300,8.592473388671875,-0.011356091272830963,-0.0005120411753654479,0.024978307696606496
1782814144513555200,8.61255517578125,-0.07852467066049576,0.06546835134103894,0.04465465479388367
1782814144533637400,8.632637451171876,-0.0981727894604206,0.06549056317284703,0.03657064856085926
1782814144553719300,8.65271923828125,-0.00045651159584522244,0.015057868400216102,0.012533183644630479
1782814144573801200,8.67280126953125,0.039143092864751816,0.016929361360520125,0.03522375029681716
1782814144593882400,8.69288232421875,0.04884790979921817,-0.0010506780967116354,0.043741353040980174
1782814144613964300,8.71296435546875,-0.021755320212244987,0.0280539819650352,0.03946893641878851
1782814144634046200,8.733046142578125,-0.005821253499388695,0.021684154672175646,0.039911268792231565
1782814144654128400,8.75312841796875,-0.014960837766528129,0.028179069649428127,0.06133591857827268
1782814144674210300,8.773210205078126,-0.029102175843715668,0.02898790181428194,0.07438545196391641
1782814144694292200,8.793292236328124,0.0021229835033416745,0.04010053972005844,0.07856960578076541
1782814144714374400,8.81337451171875,0.0473392588019371,0.047224546381086106,0.07604914282585959
1782814144734456300,8.833456298828125,0.09760463418364525,-0.022625088784098624,0.029450923066015818
1782814144754538200,8.853538330078125,0.04087620026767254,-0.022787731999903915,-0.025569015015196053
1782814144774620400,8.873620361328125,-0.11865852812826633,0.05203238505423069,0.04747409156220965
1782814144794702300,8.893702392578126,-0.1738724658280611,0.003691255733370781,-0.03527457173517905
1782814144814784300,8.9137841796875,-0.08558218795657158,-0.09320099239721893,-0.08241238968088291
1782814144834865400,8.933865478515624,-0.0405249026119709,0.009827858792245387,0.06268595408089458
1782814144854947300,8.953947265625,-0.04010112424194812,0.0762640322521329,0.08756230152365752
1782814144875029200,8.974029296875,-0.06032616614699363,0.07688567128181457,0.008205842514405958
1782814144895111400,8.994111328125,-0.10463993964791297,0.07511603126078843,-0.04325639166878536
1782814144915193300,9.014193359375,-0.03351823872029781,0.022633710481971502,-0.0503435460512992
1782814144935275300,9.034275146484376,0.08937807310819626,-0.06352072440460324,-0.028499236947926693
1782814144955357400,9.054357421875,0.1054009871482849,-0.07528875747919082,0.004705013052909635
1782814144975439400,9.074439453125,-0.0581231031447649,-0.022014994061738253,0.026792711591254917
1782814144995521300,9.094521240234375,-0.13018588431477546,-0.006959317618608474,0.06685044421604834
1782814145015603200,9.114603271484375,-0.04097966064214706,-0.032386312080919744,0.104168614075426
1782814145035685400,9.134685302734376,-0.04223346009552478,-0.05540215374827385,0.13787652101577258
1782814145055766300,9.154766357421876,-0.09152209939956664,-0.03931771877929568,0.10629482158231549
1782814145075848400,9.174848388671874,-0.06668634882867336,-0.0016221943743526934,0.08515886624427511
1782814145095930400,9.194930419921874,0.029456396108865735,0.014373685528337954,0.09292654110370203
1782814145116012300,9.21501220703125,0.09649345807135104,-0.02359685642570257,0.08068648833688348
1782814145136094200,9.23509423828125,0.052016602963209146,-0.020935089870542288,0.03589211454505566
1782814145156176400,9.25517626953125,-0.03280687558054924,0.047616614438593385,0.006948251660255482
1782814145176258300,9.27525830078125,-0.08804887033104895,0.06979688206464052,-0.02854543701009825
1782814145196340200,9.29534033203125,-0.14990648382902144,0.05406491379514336,-0.06371492266929708
1782814145216421600,9.315421630859374,-0.11913725155591964,0.053444005417823785,-0.08990895598134957
1782814145236502500,9.33550244140625,-0.07026011566221714,0.021802958746254444,-0.09605363274882547
1782814145256584700,9.355584716796875,0.023993454527854917,0.007668050409853458,-0.05763352952953428
1782814145276666600,9.37566650390625,0.05524316379427909,0.017658406287431715,0.007932278278522427
1782814145296748500,9.39574853515625,0.019795418316125867,0.006249123522639274,0.034486403332441115
1782814145316830700,9.415830810546876,0.14115736018419264,-0.05253083609566092,0.0036298740850877944
1782814145336912600,9.43591259765625,0.11658347541987896,0.00023775427863001821,0.0783389570963569
1782814145356994600,9.45599462890625,0.04535422246456146,0.051172699484974146,0.06269776324969716
1782814145377076700,9.47607666015625,-0.0009264671951532363,-0.0049009237840771675,0.03895778115941211
1782814145397158700,9.49615869140625,-0.06920680721700191,0.02914893759489059,0.060218751116609195
1782814145417240600,9.516240478515625,-0.1258481473714113,0.06236147136688232,0.056522472148248924
1782814145437322500,9.536322509765625,-0.18088088328540325,0.09820508429482579,0.045704191246279516
1782814145457403600,9.556403564453126,-0.10955635326206684,0.04540975204408169,-0.046559670997876675
1782814145477485600,9.576485595703126,0.03388356490135193,-0.025616964076459407,-0.1105677405280061
1782814145497567700,9.596567626953124,0.13456687587797642,-0.07773059767335652,-0.08865266317678615
1782814145517649700,9.616649658203125,0.07267711367607116,-0.0353401934504509,-0.06061928104178514
1782814145537731600,9.636731689453125,-0.012094342419505119,-0.014255758237093687,-0.010853504054044606
1782814145557813800,9.656813720703125,-0.08384498890042305,0.00873524124994874,0.0004181226640823297
1782814145577895700,9.676895751953126,-0.060435471740365024,0.02322217789441347,0.09720558839607983
1782814145597977600,9.6969775390625,-0.03877484407424926,-0.0055607028670608995,0.12000955001157708
1782814145618059500,9.7170595703125,-0.05608429079353809,-0.021650398533046244,0.08273282640744001
1782814145638141700,9.7371416015625,-0.031234511697292328,-0.0540894637145102,0.07529689055329654
1782814145658223600,9.7572236328125,0.046782209441065786,-0.04586363329142332,0.0786566995423287
1782814145678305500,9.777305419921875,0.07471943315863609,-0.03586348667219281,0.06573623589645139
1782814145698387700,9.7973876953125,0.07258183660805224,-0.002030775175243616,0.07680003882497549
1782814145718469600,9.8174697265625,0.004069441395998001,0.004922551093995571,0.07410060714054852
1782814145738551600,9.837551513671874,-0.05662789615094661,0.03034823038205504,0.06777160504842177
1782814145758633700,9.8576337890625,-0.07271686116456985,0.0587745527908206,0.04800618001176044
1782814145778714600,9.877714599609375,-0.1293465108811855,0.07558204133734106,0.026447286553913724
1782814145798796500,9.897796630859375,-0.09207564162909984,0.038376492406427855,0.04629272715738043
1782814145818878700,9.917878662109375,-0.04117664451897144,0.008555500768870114,0.03532992321818601
1782814145838960600,9.937960693359376,-0.041699207088351245,-0.036895606198906895,0.043096963323373344
1782814145859042600,9.95804248046875,0.023182722666859626,-0.06587634762004017,0.027376975469326135
1782814145879124700,9.978124755859374,0.11156769308447838,-0.057956514406204224,0.07456452115813736
1782814145899206700,9.99820654296875,0.07493804434537887,-0.014774667544662952,0.11873134676930494
1782814145919288600,10.01828857421875,0.044747488743066784,0.008204641504585742,0.08958373348182067
1782814145939370800,10.038370849609375,0.07735562688112259,-0.02967135403379798,0.056080400069709865
1782814145959452700,10.05845263671875,-0.04830781157314777,-0.02355769345909357,0.06621210064673796
1782814145979534600,10.07853466796875,-0.13474807766377925,0.02505626145377755,0.11376228051930665
1782814145999616500,10.098616455078124,-0.25457097339630125,0.09319178617745637,0.08584757916079834
1782814146019698700,10.11869873046875,-0.1833750381886959,0.08318126429468393,0.04684573509737383
1782814146039779600,10.138779541015625,0.07634089688062667,-0.0322517259158194,0.011795820697234012
1782814146059861800,10.15886181640625,0.27617314887344835,-0.09115575030520558,-0.014270791409444063
1782814146079943700,10.178943603515625,0.1032183824121952,-0.023218086241185664,0.04413547605825588
1782814146100025600,10.199025634765626,0.017535072168707845,0.015069120446592569,0.05486030195653438
1782814146120107800,10.219107666015624,-0.05609656575322151,0.012947890508919953,-0.017350408917339518
1782814146140189700,10.239189697265624,-0.0007914426386356353,0.03322466260120272,0.05834287880870979
1782814146160271600,10.259271728515625,0.1595458343118429,0.03570858837142586,0.13535748739955014
1782814146180353500,10.279353515625,0.1921715081065893,-0.09859203778579831,0.10445912145460023
1782814146200435700,10.299435791015625,-0.36740532541573045,-0.06988324517384172,-0.08387581329694949
1782814146220517600,10.319517578125,-0.4230366117447614,-0.0694295100569725,-0.037944457664713264
1782814146240599600,10.339599609375,-0.18551906448006628,-0.07843509268090128,0.05202784130985383
