time,seconds_elapsed,z,y,x
1782814597337861600,0.066861572265625,0.015245303511619568,0.0006974698044359684,0.07986591011285782
1782814597357943600,0.086943603515625,0.04053666815161705,0.036007028073072433,0.017611131072044373
1782814597378025500,0.107025390625,0.051207125186920166,0.06426218152046204,-0.038305506110191345
1782814597398106400,0.1271064453125,0.05549945682287216,0.054296672344207764,-0.05604739859700203
1782814597418188300,0.147188232421875,0.0751928761601448,0.051505111157894135,-0.03248409181833267
1782814597438270200,0.167270263671875,0.09499526023864746,0.05616872012615204,0.008075610734522343
1782814597458352400,0.187352294921875,0.09590810537338257,0.04766308516263962,0.02622952125966549
1782814597478433300,0.207433349609375,0.07683069258928299,0.05342186242341995,0.028024140745401382
1782814597498515500,0.227515380859375,0.051763489842414856,0.05934102460741997,0.014932341873645782
1782814597518597400,0.247597412109375,0.03718806430697441,0.04445761442184448,0.013558018021285534
1782814597538679300,0.26767919921875,0.026926908642053604,0.06298833340406418,0.04927615448832512
1782814597558760400,0.287760498046875,0.01815454103052616,0.09278815984725952,0.06706231832504272
1782814597578842400,0.30784228515625,0.00975046306848526,0.09699029475450516,0.051676832139492035
1782814597598924300,0.32792431640625,-0.003095146268606186,0.05612102895975113,0.008128836750984192
1782814597619006500,0.34800634765625,-0.0007528664427809417,0.03506173565983772,-0.006291539408266544
1782814597639087400,0.36808740234375,0.002231560181826353,0.06085092946887016,0.001951622893102467
1782814597659169800,0.388169677734375,0.008962019346654415,0.06435338407754898,0.0005260210018604994
1782814597679251700,0.408251708984375,0.012570160441100597,0.024988781660795212,-0.006455225870013237
1782814597699333600,0.428333740234375,0.008804714307188988,0.008080285042524338,-0.009612839668989182
1782814597719414800,0.448414794921875,0.0013927565887570381,0.007961643859744072,-0.011593698523938656
1782814597739496700,0.46849658203125,-0.006245780270546675,0.002106841653585434,-0.021204732358455658
1782814597759578600,0.48857861328125,-0.012833202257752419,-0.009610828012228012,-0.0239837896078825
1782814597779660800,0.508660888671875,-0.009851345792412758,0.00206878874450922,-0.01768849976360798
1782814597799741700,0.52874169921875,-0.008315090090036392,-0.0009280152153223753,-0.0007520182989537716
1782814597819823600,0.54882373046875,-0.010610259138047695,0.008521923795342445,0.020809153094887733
1782814597839905800,0.56890576171875,-0.010947595350444317,-0.007648936472833157,0.002576594240963459
1782814597859987700,0.58898779296875,0.006566594820469618,0.0524863675236702,-0.02471376210451126
1782814597880068600,0.609068603515625,0.013256632722914219,0.0539177842438221,-0.03873270004987717
1782814597900150500,0.629150634765625,0.010263447649776936,0.019827259704470634,-0.023964542895555496
1782814597920232400,0.649232421875,0.009906375780701637,-0.01767490804195404,0.001241878722794354
1782814597940314600,0.669314697265625,0.0023726485669612885,-0.026347730308771133,0.03265339136123657
1782814597960395500,0.6893955078125,-0.0007981087546795607,-0.03386121988296509,0.03294464200735092
1782814597980477700,0.709477783203125,0.0043349252082407475,-0.014108089730143547,0.006266294978559017
1782814598000559600,0.7295595703125,-0.004233470652252436,0.021225066855549812,-0.015759777277708054
1782814598020641500,0.7496416015625,0.0024173040874302387,0.04192565754055977,-0.007448113057762384
1782814598040722700,0.76972265625,-0.013429660350084305,-0.0041376459412276745,0.005565822124481201
1782814598060804600,0.7898046875,-0.019420146942138672,-0.015373514965176582,0.011307078413665295
1782814598080886500,0.809886474609375,-0.01482344139367342,0.02044816128909588,-0.001180956605821848
1782814598100968700,0.82996875,-0.0031703957356512547,0.05870867893099785,-0.0034127822145819664
1782814598121049600,0.850049560546875,0.0030584721826016903,0.05495220422744751,0.008191494271159172
1782814598141131500,0.870131591796875,-0.005212833173573017,0.01664421334862709,0.023640722036361694
1782814598161213700,0.890213623046875,-0.010741406120359898,-0.012738751247525215,0.023558344691991806
1782814598181294600,0.910294677734375,-0.0002434927737340331,-0.008004803210496902,0.010889783501625061
1782814598201376800,0.930376708984375,0.003141207853332162,-0.009081223048269749,-0.011164591647684574
1782814598221458700,0.950458740234375,-0.0011003798572346568,0.019142523407936096,-0.032386861741542816
1782814598241540600,0.97054052734375,0.009281598031520844,0.03478643670678139,-0.05066366121172905
1782814598261621800,0.990621826171875,0.013412663713097572,0.011031648144125938,-0.042856182903051376
1782814598281703700,1.01070361328125,0.024605900049209595,-0.009771821089088917,-0.00890418328344822
1782814598301785600,1.03078564453125,0.040002018213272095,-0.02897823229432106,0.01152127981185913
1782814598321867800,1.05086767578125,0.053660839796066284,-0.02922244369983673,0.008534012362360954
1782814598341948700,1.07094873046875,0.05231751129031181,-0.011517049744725227,-0.010480363853275776
1782814598362030800,1.09103076171875,0.04481198266148567,0.010891251266002655,-0.01995256170630455
1782814598382112800,1.11111279296875,0.04256667196750641,-0.004847408272325993,-0.028510982170701027
1782814598402194700,1.131194580078125,0.03800547495484352,-0.0004665979649871588,-0.020352568477392197
1782814598422275600,1.151275634765625,0.03194397687911987,-0.017894282937049866,-0.008506212383508682
1782814598442357500,1.171357421875,0.02859940007328987,-0.010296700522303581,-0.007399437949061394
1782814598462439400,1.191439453125,0.020490018650889397,0.005475316662341356,0.003543975530192256
1782814598482521600,1.211521484375,0.019621677696704865,0.006759533658623695,-0.0023103670682758093
1782814598502602500,1.2316025390625,0.009263667277991772,0.017736226320266724,-0.016618043184280396
1782814598522684700,1.2516845703125,0.004056121688336134,0.03459066152572632,-0.03464560955762863
1782814598542766600,1.2717666015625,0.00455605611205101,0.03296872600913048,-0.0453559085726738
1782814598562848500,1.2918486328125,-0.00009601294004824013,0.02374902367591858,-0.045591551810503006
1782814598582929700,1.3119296875,-0.0017984526930376887,-0.003084150841459632,-0.04836036637425423
1782814598603011600,1.332011474609375,0.011659892275929451,-0.0007820031605660915,-0.04003642871975899
1782814598623093500,1.352093505859375,0.018717030063271523,-0.016385279595851898,-0.04625880718231201
1782814598643175700,1.37217578125,0.012983364053070545,-0.05174979567527771,-0.0860738679766655
1782814598663256600,1.392256591796875,0.025781361386179924,-0.05137556791305542,-0.1228695958852768
1782814598683338800,1.4123388671875,0.044604286551475525,-0.03575373813509941,-0.1218448132276535
1782814598703420700,1.432420654296875,0.06812021136283875,-0.012550346553325653,-0.0695796087384224
1782814598723501600,1.45250146484375,0.09068597108125687,-0.015570723451673985,-0.00864026602357626
1782814598743583700,1.472583740234375,0.09764347970485687,-0.02859189733862877,0.014466023072600365
1782814598763665700,1.492665771484375,0.09126026183366776,-0.03565296158194542,0.0032414153683930635
1782814598783747600,1.51274755859375,0.08698029816150665,-0.032729875296354294,-0.022268738597631454
1782814598803828500,1.532828369140625,0.07977209985256195,-0.010511951521039009,-0.026394568383693695
1782814598823910400,1.552910400390625,0.06907016038894653,0.01129479892551899,-0.0029009832069277763
1782814598843992600,1.57299267578125,0.04347241297364235,-0.010885949246585369,0.016164429485797882
1782814598864074500,1.593074462890625,0.024357546120882034,-0.018081732094287872,0.012539226561784744
1782814598884155400,1.6131552734375,0.01740853115916252,0.0006032618694007397,-0.008584725670516491
1782814598904237600,1.633237548828125,0.013373811729252338,0.01621061936020851,-0.007258664816617966
1782814598924319500,1.653319580078125,0.008372780866920948,0.010216683149337769,0.0230599083006382
1782814598944401400,1.6734013671875,0.007655740715563297,-0.013790509663522243,0.052203692495822906
1782814598964482600,1.693482666015625,0.004241627641022205,-0.02615918591618538,0.05594804510474205
1782814598984564500,1.713564453125,-0.010804819874465466,-0.031036097556352615,0.02676672860980034
1782814599004646700,1.733646728515625,-0.02909023128449917,-0.040095068514347076,-0.004485649522393942
1782814599024727600,1.7537275390625,-0.028429413214325905,-0.03568999096751213,0.006664086598902941
1782814599044809500,1.7738095703125,-0.011940096504986286,-0.010013182647526264,0.03271554037928581
1782814599064891600,1.7938916015625,-0.014438377693295479,-0.022691063582897186,0.03829478845000267
1782814599084973600,1.8139736328125,-0.014498860575258732,-0.044004615396261215,0.02033921144902706
1782814599105054700,1.8340546875,-0.025276821106672287,-0.032272107899188995,0.012896912172436714
1782814599125136600,1.85413671875,-0.028960861265659332,0.021405205130577087,0.00902647990733385
1782814599145218600,1.874218505859375,-0.017258459702134132,0.0534658282995224,-0.00845898874104023
1782814599165300500,1.894300537109375,-0.013399004936218262,0.03228188678622246,-0.034701693803071976
1782814599185381600,1.914381591796875,-0.015335151925683022,0.018233973532915115,-0.02566852979362011
1782814599205463600,1.934463623046875,-0.019777512177824974,0.008076781406998634,0.0017228212673217058
1782814599225545700,1.954545654296875,-0.027593594044446945,-0.011502590030431747,-0.003801797516644001
1782814599245627600,1.974627685546875,-0.02530735917389393,-0.019866807386279106,-0.043745800852775574
1782814599265708500,1.99470849609375,-0.013139228336513042,0.004053753335028887,-0.07279466837644577
1782814599285790700,2.014790771484375,-0.013235635124146938,0.02703923173248768,-0.05600796267390251
1782814599305872600,2.03487255859375,-0.007737983483821154,0.02954733557999134,-0.008520192466676235
1782814599325954600,2.05495458984375,0.010703223757445812,-0.02034658193588257,0.008304338902235031
1782814599346035500,2.075035400390625,0.018075238913297653,-0.07945424318313599,-0.007871712557971478
1782814599366117400,2.095117431640625,0.003862657817080617,-0.1283227503299713,-0.040172722190618515
1782814599386199600,2.115199462890625,-0.0071665276773273945,-0.07405044883489609,-0.0560201033949852
1782814599406281500,2.135281494140625,0.002568864496424794,0.0042255171574652195,-0.0669783502817154
1782814599426362600,2.155362548828125,0.02077130414545536,0.004642035346478224,-0.054521143436431885
1782814599446444500,2.175444580078125,0.011062217876315117,-0.03690958023071289,-0.0032223546877503395
1782814599466526500,2.1955263671875,-0.0035802859347313643,-0.022644683718681335,0.049137137830257416
1782814599486607600,2.215607666015625,-0.001095319865271449,0.008812920190393925,0.051142118871212006
1782814599506689500,2.235689453125,0.005219094455242157,0.03694763779640198,0.022418100386857986
1782814599526771500,2.255771484375,0.0012339429231360555,0.02674080990254879,-0.000126612838357687
1782814599546853600,2.275853515625,-0.001964219380170107,0.0019242414273321629,-0.005667656660079956
1782814599566934500,2.2959345703125,0.002523000119253993,-0.018447235226631165,-0.0014383397065103054
1782814599587016700,2.3160166015625,-0.0016762437298893929,-0.03810419514775276,0.00034830300137400627
1782814599607098600,2.3360986328125,-0.006068713963031769,-0.021216774359345436,0.004085613880306482
1782814599627180500,2.3561806640625,-0.007827761583030224,0.005884163547307253,0.0023746900260448456
1782814599647261700,2.37626171875,-0.005008744541555643,0.01776605099439621,-0.006173136178404093
1782814599667344100,2.39634423828125,-0.007476785685867071,-0.007784076035022736,-0.010209472849965096
1782814599687426000,2.416426025390625,-0.02220616675913334,-0.04548732563853264,-0.006589595228433609
1782814599707508000,2.436508056640625,-0.028262581676244736,-0.03294733911752701,0.006465137004852295
1782814599727589000,2.456589111328125,-0.030915148556232452,0.00905708409845829,0.02343982271850109
1782814599747671000,2.476671142578125,-0.03424374759197235,0.027653876692056656,0.036037519574165344
1782814599767753200,2.496753173828125,-0.046841204166412354,0.008849147707223892,0.026012809947133064
1782814599787835100,2.516835205078125,-0.03946028649806976,0.02601143717765808,0.02418605238199234
1782814599807916300,2.536916259765625,-0.03567415848374367,0.056356798857450485,0.036209627985954285
1782814599827998200,2.556998291015625,-0.049143481999635696,0.0011979863047599792,0.03927582502365112
1782814599848080100,2.577080078125,-0.04973316192626953,-0.03068406507372856,0.03259152173995972
1782814599868161300,2.597161376953125,-0.034706126898527145,0.010586105287075043,0.030768780037760735
1782814599888243200,2.6172431640625,-0.03425721079111099,0.05060841143131256,0.03400036692619324
1782814599908325000,2.6373251953125,-0.024736348539590836,0.04954982548952103,0.027414675801992416
1782814599928407300,2.6574072265625,-0.007158775348216295,0.0297897607088089,0.02129218727350235
1782814599948488200,2.67748828125,-0.01007798407226801,-0.0011466224677860737,0.022496916353702545
1782814599968570000,2.697570068359375,-0.02158156782388687,-0.02094458043575287,0.004267544485628605
1782814599988652300,2.71765234375,-0.01954551972448826,-0.027907662093639374,-0.042357444763183594
1782814600008734200,2.737734130859375,-0.007540939375758171,-0.013863975182175636,-0.07553209364414215
1782814600028815000,2.757815185546875,0.0007832443807274103,-0.017445769160985947,-0.07883915305137634
1782814600048897300,2.777897216796875,0.0010484656086191535,-0.03056601993739605,-0.05189366638660431
1782814600068979200,2.797979248046875,0.015750743448734283,-0.025448212400078773,-0.022314179688692093
1782814600089061400,2.818061279296875,0.028812306001782417,-0.018431907519698143,-0.0030692345462739468
1782814600109142000,2.83814208984375,0.04076622799038887,-0.013122254982590675,0.0015393170760944486
1782814600129224000,2.858223876953125,0.043298836797475815,-0.020531900227069855,0.0017170833889394999
1782814600149306000,2.87830615234375,0.03858039528131485,-0.01948176696896553,0.011783130466938019
1782814600169387000,2.898386962890625,0.023048395290970802,-0.00710504874587059,0.021125921979546547
1782814600189469200,2.91846923828125,0.014385310001671314,0.0028245174326002598,0.020006801933050156
1782814600209551000,2.938551025390625,0.00777188315987587,-0.0004569424781948328,0.001945412834174931
1782814600229633000,2.958633056640625,0.010287712328135967,-0.0005159042775630951,-0.01568651758134365
1782814600249714200,2.978714111328125,0.009046293795108795,0.0032362723723053932,-0.013858160935342312
1782814600269796000,2.998796142578125,0.01331513375043869,-0.0012130520772188902,-0.0019255648367106915
1782814600289878000,3.0188779296875,0.026568828150629997,-0.020101631060242653,-0.0014552020002156496
1782814600309960200,3.038960205078125,0.04106858745217323,-0.02619967795908451,0.00259611988440156
1782814600330041000,3.059041015625,0.042364656925201416,-0.035494137555360794,0.003028556704521179
1782814600350123300,3.079123291015625,0.0274653360247612,-0.07185329496860504,-0.02388925850391388
1782814600370205200,3.099205078125,0.016278285533189774,-0.09224829077720642,-0.053318724036216736
1782814600390287000,3.119287109375,0.0087615130469203,-0.03839597851037979,-0.0650440901517868
1782814600410368300,3.1393681640625,0.009294115006923676,0.013359972275793552,-0.048419151455163956
1782814600430450200,3.1594501953125,0.009730282239615917,-0.012569738551974297,-0.03341778367757797
1782814600450532000,3.179531982421875,0.01861000247299671,-0.03490205109119415,-0.011214161291718483
1782814600470614300,3.1996142578125,0.017140734940767288,0.004859743174165487,0.02087399922311306
1782814600490695200,3.219695068359375,0.016489800065755844,0.03915005549788475,0.03548593074083328
1782814600510777300,3.23977734375,0.015650518238544464,0.04706794396042824,0.035563789308071136
1782814600530859300,3.259859375,0.013094387017190456,0.02682294137775898,0.03212713822722435
1782814600550940200,3.279940185546875,0.006777724716812372,0.004497781861573458,0.025792518630623817
1782814600571022000,3.30002197265625,0.007528234273195267,-0.004440841265022755,0.006313915830105543
1782814600591104000,3.32010400390625,0.011267104186117649,-0.012688811868429184,-0.00845470279455185
1782814600611186200,3.340186279296875,0.018350550904870033,-0.009864983148872852,-0.02153625898063183
1782814600631267000,3.36026708984375,0.013687384314835072,-0.02134932205080986,-0.02906578965485096
1782814600651349000,3.380348876953125,-0.0006305959541350603,-0.03872734680771828,-0.0366876944899559
1782814600671430100,3.40043017578125,0.013092700392007828,-0.029275154694914818,-0.026344040408730507
1782814600691512000,3.420511962890625,0.029727930203080177,-0.033815912902355194,-0.012735153548419476
1782814600711593200,3.44059326171875,0.01443848479539156,-0.025592772290110588,0.01230274885892868
1782814600731675100,3.460675048828125,-0.004682538565248251,-0.014992700889706612,0.007890205830335617
1782814600751757000,3.480757080078125,-0.01455662027001381,0.008295617997646332,-0.011969168670475483
1782814600771839200,3.500839111328125,-0.020507188513875008,0.012627246789634228,-0.023495342582464218
1782814600791920000,3.520920166015625,-0.0224937591701746,0.015234177932143211,-0.012542631477117538
1782814600812002300,3.541002197265625,-0.03093867190182209,0.01493757963180542,0.013064884580671787
1782814600832084200,3.561084228515625,-0.03947286307811737,0.0430418886244297,0.03551527485251427
1782814600852165000,3.5811650390625,-0.04557008296251297,0.027620617300271988,0.028527729213237762
1782814600872247300,3.601247314453125,-0.07862425595521927,-0.022486520931124687,0.003917931579053402
1782814600892329200,3.6213291015625,-0.11500336229801178,-0.01578567363321781,-0.023680007085204124
1782814600912411100,3.6414111328125,-0.1124325543642044,0.028088685125112534,-0.048807766288518906
1782814600932492300,3.6614921875,-0.08346576243638992,0.05048750340938568,-0.041458964347839355
1782814600952574200,3.68157421875,-0.0666755735874176,0.00772780179977417,-0.0011879540979862213
1782814600972656000,3.70165625,-0.04807945713400841,-0.04083288088440895,0.03666660562157631
1782814600992738300,3.72173828125,-0.02494102716445923,-0.021293681114912033,0.045975662767887115
1782814601012819000,3.74181884765625,-0.007902685552835464,0.0007700654678046703,0.020917687565088272
1782814601032901000,3.761901123046875,-0.011533194221556187,-0.01855776645243168,-0.012527499347925186
1782814601052983000,3.781983154296875,-0.001070106984116137,0.002258231397718191,-0.02395579218864441
1782814601073064200,3.802064208984375,0.018249085173010826,0.02008812502026558,-0.007098719477653503
1782814601093146000,3.82214599609375,0.04273028299212456,0.005220701918005943,0.032726336270570755
1782814601113228000,3.84222802734375,0.057567283511161804,-0.028147198259830475,0.05542374402284622
1782814601133310000,3.86231005859375,0.055238526314496994,-0.0391324982047081,0.041089486330747604
1782814601153391000,3.88239111328125,0.04063182696700096,-0.028933145105838776,-0.0009805054869502783
1782814601173473000,3.90247314453125,0.03371243178844452,-0.0018875820096582174,-0.025552500039339066
1782814601193555200,3.92255517578125,0.031094394624233246,0.008030779659748077,-0.015568140894174576
1782814601213637000,3.94263720703125,0.022990159690380096,-0.012085042893886566,0.011977129615843296
1782814601233718300,3.96271826171875,-0.009738371707499027,-0.04878203198313713,0.040375031530857086
1782814601253800200,3.98280029296875,-0.03702858090400696,-0.011646379716694355,0.0365707091987133
1782814601273882000,4.002882080078125,-0.03868628293275833,0.007124416530132294,-0.003533496055752039
1782814601293964000,4.022964111328125,-0.03133293613791466,0.04381481930613518,-0.013769817538559437
1782814601314045200,4.043045166015625,-0.033694274723529816,0.04210953786969185,0.010211827233433723
1782814601334127000,4.063127197265625,-0.045690957456827164,0.03228089213371277,0.04243238642811775
1782814601354209300,4.083209228515625,-0.031100591644644737,0.028665553778409958,0.040764253586530685
1782814601374290200,4.103290283203125,-0.022128669545054436,0.010057693347334862,0.0147031769156456
1782814601394372400,4.123372314453125,-0.01447104662656784,-0.0026013879105448723,-0.01796397939324379
1782814601414454300,4.143454345703125,-0.006714914459735155,-0.0042254021391272545,-0.040901556611061096
1782814601434536200,4.1635361328125,-0.002515641041100025,-0.00037091970443725586,-0.04054424539208412
1782814601454617300,4.183617431640625,-0.0029887682758271694,0.003374587744474411,-0.021444246172904968
1782814601474699300,4.20369921875,0.0012358349049463868,0.0024877660907804966,-0.0064666057005524635
1782814601494781200,4.22378125,0.020474392920732498,0.0005306550301611423,-0.01596042327582836
1782814601514863400,4.24386328125,0.03365079313516617,-0.007986348122358322,-0.026714691892266273
1782814601534944000,4.263944091796875,0.029283182695508003,-0.00474484683945775,-0.015179137699306011
1782814601555026200,4.284026123046875,0.018452459946274757,0.00739777646958828,0.007929257117211819
1782814601575108000,4.304108154296875,-0.00004053048905916512,0.000316874124109745,0.011625011451542377
1782814601595189000,4.32418896484375,-0.000497439585160464,0.0038315672427415848,0.00123812525998801
1782814601615271200,4.344271240234375,0.003225866472348571,0.015909692272543907,0.004385497886687517
1782814601635353000,4.36435302734375,-0.013200568966567516,-0.011205567046999931,0.018210727721452713
1782814601655436000,4.38443603515625,-0.03485150635242462,-0.050039324909448624,0.009547041729092598
1782814601675517200,4.40451708984375,-0.037914469838142395,-0.014091378077864647,-0.02044268138706684
1782814601695599000,4.42459912109375,-0.039300788193941116,0.038972146809101105,-0.02251054160296917
1782814601715681000,4.444680908203125,-0.03865485265851021,0.0531984381377697,0.00548291252925992
1782814601735763200,4.46476318359375,-0.03221527114510536,0.01477392390370369,0.042951397597789764
1782814601755844000,4.484843994140625,-0.02652886137366295,-0.019209779798984528,0.06134071946144104
1782814601775926000,4.504926025390625,-0.025904912501573563,-0.01643574796617031,0.045914262533187866
1782814601796008200,4.52500830078125,-0.028044316917657852,0.006763639859855175,0.006728363689035177
1782814601816088800,4.5450888671875,-0.022205043584108353,0.031917471438646317,-0.014295149594545364
1782814601836171000,4.5651708984375,-0.019291454926133156,0.030818238854408264,-0.006245236843824387
1782814601856253000,4.5852529296875,-0.02410156838595867,-0.012092893943190575,0.006559738889336586
1782814601876334800,4.6053349609375,-0.018037522211670876,-0.04227910563349724,0.00015441258437931538
1782814601896416000,4.625416015625,-0.009048582054674625,-0.0110788494348526,-0.012634365819394588
1782814601916498000,4.645497802734375,-0.017832515761256218,0.01336958073079586,-0.02196406200528145
1782814601936579800,4.665579833984375,-0.023165052756667137,0.008571600541472435,-0.029324032366275787
1782814601956662000,4.685662109375,-0.015046347863972187,-0.006953900679945946,-0.03312530741095543
1782814601976743000,4.705742919921875,-0.00701904809102416,-0.007877218537032604,-0.026714546605944633
1782814601996825000,4.7258251953125,-0.00009334880451206118,-0.01568617671728134,-0.020089473575353622
1782814602016907000,4.745906982421875,-0.00007461736095137894,-0.02319333329796791,-0.024189084768295288
1782814602036988000,4.76598779296875,0.0006613333243876696,-0.019719287753105164,-0.028321875259280205
1782814602057070000,4.786070068359375,0.011841579340398312,-0.004565713461488485,-0.03305526822805405
1782814602077152000,4.806152099609375,0.028051497414708138,-0.012340616434812546,-0.0399806946516037
1782814602097234000,4.82623388671875,0.037839800119400024,-0.014684779569506645,-0.03347548842430115
1782814602117315000,4.846315185546875,0.04096641018986702,-0.026461346074938774,-0.019306808710098267
1782814602137397000,4.86639697265625,0.04351561889052391,-0.02678535506129265,-0.007637173868715763
1782814602157479200,4.886479248046875,0.053500961512327194,-0.002047488000243902,-0.005001649260520935
1782814602177561000,4.90656103515625,0.06364109367132187,0.019264772534370422,-0.007751265540719032
1782814602197642000,4.92664208984375,0.060027189552783966,0.021251847967505455,-0.0012321993708610535
1782814602217724200,4.94672412109375,0.05980720743536949,-0.0019069141708314419,0.009542854502797127
1782814602237806000,4.96680615234375,0.0704004317522049,0.005935554392635822,0.028332242742180824
1782814602257887200,4.98688720703125,0.07087723165750504,0.0037252474576234818,0.03523858264088631
1782814602277969200,5.00696923828125,0.04870070144534111,-0.030521001666784286,0.016965314745903015
1782814602298051000,5.027051025390625,0.03457183390855789,-0.02866504341363907,-0.01354412641376257
1782814602318133000,5.047133056640625,0.03947507217526436,0.010250250808894634,-0.024685751646757126
1782814602338214000,5.0672138671875,0.049546580761671066,0.026260098442435265,-0.005388243123888969
1782814602358295800,5.0872958984375,0.050299134105443954,0.00443627405911684,0.029919642955064774
1782814602378378000,5.1073779296875,0.04118449240922928,-0.017969869077205658,0.04524899274110794
1782814602398460000,5.1274599609375,0.034219734370708466,-0.01081752497702837,0.021402830258011818
1782814602418541000,5.147541015625,0.033771201968193054,-0.0022087860852479935,-0.016842948272824287
1782814602438623000,5.167623046875,0.02678540349006653,0.00535927340388298,-0.026603128761053085
1782814602458705000,5.187704833984375,0.023131726309657097,-0.00868484377861023,-0.011314589530229568
1782814602478786000,5.2077861328125,0.03470860421657562,-0.003397278720512986,0.010312121361494064
1782814602498868000,5.227867919921875,0.04174334555864334,-0.012072881683707237,0.018290504813194275
1782814602518950000,5.247949951171875,0.031928617507219315,-0.010350672528147697,0.025282522663474083
1782814602539032000,5.268031982421875,0.025492675602436066,0.019451558589935303,0.028567787259817123
1782814602559113000,5.288113037109375,0.029695527628064156,0.03189992532134056,0.023830460384488106
1782814602579195100,5.308195068359375,0.024548526853322983,0.022154737263917923,0.022491130977869034
1782814602599277000,5.328277099609375,0.005513581447303295,0.001114077866077423,0.029580283910036087
1782814602619358000,5.34835791015625,-0.008113458752632141,-0.00794223789125681,0.021717360243201256
1782814602639440100,5.368440185546875,-0.011671115644276142,0.0022814800031483173,-0.0018905443139374256
1782814602659521500,5.388521484375,-0.015630852431058884,0.02125822752714157,-0.019639194011688232
1782814602679603500,5.408603515625,-0.020958859473466873,0.02451932802796364,-0.027469031512737274
1782814602699684600,5.4286845703125,-0.010082273744046688,0.000538174994289875,-0.026952754706144333
1782814602719766500,5.4487666015625,0.008959178812801838,0.0011495850048959255,0.004760059528052807
1782814602739848700,5.4688486328125,0.013928786851465702,-0.004032342229038477,0.019905563443899155
1782814602759929600,5.4889296875,0.023885900154709816,-0.0020475483033806086,0.0046774884685873985
1782814602780011800,5.50901171875,0.030413545668125153,0.0006798738613724709,-0.01805243454873562
1782814602800093700,5.52909375,0.03817819803953171,-0.003972953651100397,-0.013908857479691505
1782814602820175600,5.549175537109375,0.04239498823881149,-0.027560945600271225,-0.0001884696539491415
1782814602840256800,5.5692568359375,0.0403338186442852,-0.03868280351161957,0.006979501806199551
1782814602860338700,5.589338623046875,0.042393479496240616,-0.009716851636767387,0.008757585659623146
1782814602880420600,5.609420654296875,0.024851445108652115,-0.008879749104380608,0.004813588224351406
1782814602900502800,5.629502685546875,-0.009015352465212345,-0.03127610683441162,-0.011842571198940277
1782814602920583700,5.649583740234375,-0.023831643164157867,-0.01057794876396656,-0.03154528886079788
1782814602940665600,5.66966552734375,-0.01783810928463936,0.0209940318018198,-0.026325348764657974
1782814602960747800,5.689747802734375,-0.008589041419327259,0.030491633340716362,0.01782847009599209
1782814602980829700,5.70982958984375,-0.012800502590835094,0.00047117192298173904,0.054511167109012604
1782814603000910800,5.729910888671875,-0.024867406114935875,-0.040304262191057205,0.04700975492596626
1782814603020992800,5.74999267578125,-0.03004305064678192,-0.015914607793092728,0.008817675523459911
1782814603041074700,5.77007470703125,-0.039886537939310074,0.03374023735523224,-0.02725735865533352
1782814603061155600,5.790155517578125,-0.03763184696435928,0.047486964613199234,-0.027769703418016434
1782814603081237500,5.810237548828125,-0.022495532408356667,0.052005186676979065,0.006017626728862524
1782814603101319400,5.8303193359375,0.005443273577839136,0.019189219921827316,0.036074936389923096
1782814603121401600,5.850401611328125,0.024053027853369713,-0.0050684125162661076,0.0475926473736763
1782814603141482500,5.870482421875,0.03358279541134834,-0.000010476913303136826,0.03025399148464203
1782814603161564700,5.890564697265625,0.02729356475174427,0.00324588967487216,-0.008754419162869453
1782814603181646600,5.910646484375,0.02406948246061802,0.0005268696695566177,-0.042139142751693726
1782814603201728500,5.930728515625,0.024771254509687424,0.008916636928915977,-0.034122999757528305
1782814603221809700,5.9508095703125,0.01980602741241455,-0.0035885130055248737,0.004170568659901619
1782814603241891600,5.9708916015625,0.013805689290165901,-0.029553256928920746,0.028104687109589577
1782814603261973500,5.990973388671875,0.0074757980182766914,-0.03216460719704628,0.019329862669110298
1782814603282055700,6.0110556640625,-0.001770401606336236,-0.0008829287253320217,0.0013176812790334225
1782814603302136600,6.031136474609375,-0.01913515478372574,0.03297743201255798,0.009539124555885792
1782814603322218800,6.05121875,-0.027684319764375687,0.03850680962204933,0.034023404121398926
1782814603342300700,6.07130078125,-0.023486053571105003,0.02350018545985222,0.05882733687758446
1782814603362382600,6.091382568359375,-0.01340169832110405,0.011835814453661442,0.07008160650730133
1782814603382463700,6.111463623046875,-0.020401818677783012,0.009483002126216888,0.06888469308614731
1782814603402545700,6.131545654296875,-0.032181836664676666,0.024424469098448753,0.056551460176706314
1782814603422627600,6.151627685546875,-0.04647259786725044,0.018563661724328995,0.03114226460456848
1782814603442708700,6.171708740234375,-0.03269987925887108,0.010339170694351196,0.009860980324447155
1782814603462790700,6.191790771484375,-0.00892954133450985,0.014652433805167675,0.02150380052626133
1782814603482872800,6.211872802734375,-0.012196913361549377,-0.010806122794747353,0.03165643662214279
1782814603502954800,6.231954833984375,-0.028036242350935936,-0.04408912733197212,0.00808928906917572
1782814603523035600,6.25203564453125,-0.022783510386943817,-0.026391297578811646,-0.03662053495645523
1782814603543117800,6.272117919921875,-0.0026304840575903654,0.019670234993100166,-0.048290181905031204
1782814603563199700,6.29219970703125,0.004756769631057978,0.023510215803980827,-0.015394078567624092
1782814603583281700,6.31228173828125,0.002065914450213313,-0.00007482478395104408,0.022665251046419144
1782814603603362600,6.332362548828125,-0.002331673866137862,-0.01734992116689682,0.0250786691904068
1782814603623444500,6.352444580078125,-0.0034439610317349434,-0.01238495297729969,-0.0025238562375307083
1782814603643526700,6.372526611328125,-0.0012707036221399903,0.010973138734698296,-0.022176844999194145
1782814603663609000,6.392609130859375,-0.008787564933300018,0.027410227805376053,-0.01526502426713705
1782814603683689700,6.412689697265625,-0.0064712935127317905,0.030608726665377617,0.004946056287735701
1782814603703772000,6.43277197265625,-0.005070027429610491,-0.0037644580006599426,0.006662935949862003
1782814603723853800,6.452853759765625,-0.008038239553570747,-0.0013902010396122932,0.009539246559143066
1782814603743935000,6.47293505859375,-0.012716553173959255,0.03368569537997246,0.015245734713971615
1782814603764017000,6.493016845703125,-0.023181268945336342,0.05641796067357063,0.00998370535671711
1782814603784098800,6.513098876953125,-0.023958437144756317,0.061059389263391495,-0.0033513973467051983
1782814603804180700,6.5331806640625,-0.01763085648417473,0.03792119026184082,-0.015880480408668518
1782814603824262000,6.553261962890625,-0.01208905503153801,0.0010151173919439316,-0.015924930572509766
1782814603844343800,6.57334375,-0.005319299641996622,-0.006415368523448706,-0.002586488611996174
1782814603864426000,6.593426025390625,-0.005662429612129927,0.0031184437684714794,-0.00443106796592474
1782814603884508000,6.6135078125,-0.005150840152055025,0.010352475568652153,-0.02178964763879776
1782814603904589000,6.633589111328125,0.003370978869497776,-0.0018132987897843122,-0.03543233126401901
1782814603924671000,6.6536708984375,0.016127225011587143,0.0005479385145008564,-0.0180521197617054
1782814603944753000,6.6737529296875,0.025502143427729607,-0.003453884506598115,0.013306288048624992
1782814603964834800,6.693834716796875,0.012929242104291916,0.013634071685373783,0.009518571197986603
1782814603984916000,6.713916015625,0.01165557187050581,0.012828771024942398,-0.0073271701112389565
1782814604004998000,6.733997802734375,0.006633442360907793,0.000141847413033247,-0.008665723726153374
1782814604025080000,6.754080078125,-0.011427879333496094,-0.013087059371173382,-0.00260208104737103
1782814604045161000,6.774160888671875,-0.012933691963553429,0.004926007241010666,0.002488770755007863
1782814604065243000,6.794242919921875,-0.010423277504742146,0.01718386635184288,0.0020767676178365946
1782814604085325000,6.814324951171875,-0.023711297661066055,-0.01447300985455513,-0.005233101546764374
1782814604105407000,6.834406982421875,-0.038861989974975586,-0.02129974588751793,-0.0098470039665699
1782814604125488000,6.854488037109375,-0.033412009477615356,0.0055765495635569096,-0.0037298444658517838
1782814604145570000,6.874570068359375,-0.01975753717124462,0.017523283138871193,0.008785269223153591
1782814604165652000,6.89465185546875,-0.01969776302576065,0.013250724412500858,0.03219755366444588
1782814604185734100,6.914734130859375,-0.01457129791378975,0.01654856652021408,0.04342180863022804
1782814604205814800,6.934814697265625,-0.017079494893550873,-0.01634015142917633,0.02668861299753189
1782814604225897000,6.95489697265625,-0.02057666704058647,-0.024910883978009224,0.0020391675643622875
1782814604245979000,6.974978759765625,-0.02565019577741623,-0.02798353135585785,-0.023603394627571106
1782814604266059800,6.995059814453125,-0.019501015543937683,-0.004673522897064686,-0.029182935133576393
1782814604286142000,7.015141845703125,-0.007698420435190201,-0.012422701343894005,-0.014983588829636574
1782814604306223900,7.035223876953125,-0.016367007046937943,-0.03985334932804108,-0.0032059282530099154
1782814604326305800,7.055305908203125,-0.03201819956302643,-0.03260362520813942,-0.004641504492610693
1782814604346387000,7.075386962890625,-0.034319616854190826,-0.00935579463839531,-0.02271818369626999
1782814604366468900,7.09546875,-0.02240060642361641,0.004000501707196236,-0.026011157780885696
1782814604386550800,7.11555078125,-0.01431397907435894,-0.0033975152764469385,-0.008872166275978088
1782814604406633000,7.135633056640625,-0.01325063593685627,-0.01086574699729681,0.006280033849179745
1782814604426713900,7.1557138671875,-0.019045021384954453,-0.019305262714624405,0.004972504451870918
1782814604446796000,7.175796142578125,-0.017944132909178734,-0.014626644551753998,-0.01005043275654316
1782814604466878000,7.1958779296875,-0.008685948327183723,0.0007183919660747051,-0.021346423774957657
1782814604486959900,7.2159599609375,-0.004800545517355204,0.016689762473106384,-0.015645941719412804
1782814604507041000,7.236041015625,-0.0004147327854298055,0.0020039789378643036,-0.00007160543464124203
1782814604527123000,7.256123046875,-0.0059605007991194725,-0.01756075769662857,0.00381642859429121
1782814604547204900,7.276204833984375,-0.006019029300659895,-0.012512270361185074,-0.005033656023442745
1782814604567286000,7.2962861328125,-0.0019060452468693256,0.010141463950276375,-0.017439289018511772
1782814604587368000,7.316367919921875,0.0042397635988891125,0.025656873360276222,-0.013546873815357685
1782814604607450000,7.3364501953125,0.008071547374129295,0.031936172395944595,-0.004662108141928911
1782814604627532000,7.356531982421875,0.012479439377784729,0.013701185584068298,0.000816702377051115
1782814604647613000,7.376613037109375,0.017782172188162804,-0.0038991651963442564,-0.00854947604238987
1782814604667694800,7.39669482421875,0.033858608454465866,0.00712978420779109,-0.017676660791039467
1782814604687776800,7.41677685546875,0.03265935927629471,-0.013681585900485516,-0.020375702530145645
1782814604707858700,7.436858642578125,0.01911821961402893,-0.027259457856416702,-0.021840998902916908
1782814604727939800,7.45693994140625,0.010324792936444283,-0.007448713295161724,-0.026613866910338402
1782814604748021800,7.477021728515625,0.008997886441648006,0.018325675278902054,-0.03009505569934845
1782814604768104000,7.49710400390625,0.011345844715833664,0.027212146669626236,-0.021273793652653694
1782814604788184800,7.517184814453125,0.020253615453839302,0.01982179842889309,0.0042234198190271854
1782814604808266800,7.537266845703125,0.017130734398961067,0.0011692652478814125,0.016524259001016617
1782814604828349000,7.557348876953125,0.009154418483376503,-0.013923805207014084,0.001472059520892799
1782814604848430800,7.577430908203125,0.0028465434443205595,0.021429596468806267,-0.016682563349604607
1782814604868512000,7.597511962890625,0.0020815373864024878,0.05434177815914154,-0.024938812479376793
1782814604888594000,7.617593994140625,0.001081341877579689,0.05449831485748291,-0.02287657931447029
1782814604908675800,7.63767578125,0.008719287812709808,0.015393257141113281,-0.016454100608825684
1782814604928758000,7.657758056640625,0.01989062689244747,-0.00513468449935317,-0.01033022254705429
1782814604948838700,7.677838623046875,0.027876470237970352,0.014142902567982674,-0.007821730338037014
1782814604968920800,7.6979208984375,0.026350364089012146,0.02342264913022518,-0.022534437477588654
1782814604989002800,7.718002685546875,0.02415141835808754,0.027388637885451317,-0.04635480046272278
1782814605009083600,7.738083740234375,0.015411484986543655,0.014617369510233402,-0.05452180653810501
1782814605029165800,7.758165771484375,-0.0007472151191905141,0.010233106091618538,-0.0366523377597332
1782814605049247700,7.778247802734375,-0.00787605345249176,-0.0059530846774578094,-0.025103334337472916
1782814605069329700,7.79832958984375,-0.024661986157298088,-0.008676175028085709,-0.027648262679576874
1782814605089410800,7.818410888671875,-0.04658393934369087,-0.0046462384052574635,-0.02874566987156868
1782814605109492700,7.83849267578125,-0.05271010473370552,0.0038875616155564785,-0.03476661071181297
1782814605129574700,7.85857470703125,-0.03316906839609146,0.042745064944028854,-0.033758897334337234
1782814605149656800,7.87865673828125,-0.026209400966763496,0.0412769615650177,-0.023092743009328842
1782814605169737700,7.89873779296875,-0.01804346777498722,0.0250574741512537,-0.008489640429615974
1782814605189820000,7.91881982421875,-0.01839379407465458,0.023412667214870453,0.001996738836169243
1782814605209901800,7.93890185546875,-0.008231435902416706,0.027445316314697266,0.0019766802433878183
1782814605229983700,7.958983642578125,0.0010514251189306378,0.016444111242890358,-0.00339055759832263
1782814605250065000,7.97906494140625,-0.0007825153297744691,-0.0007164401467889547,-0.017832227051258087
1782814605270146800,7.999146728515625,-0.011127534322440624,-0.014632601290941238,-0.02324579283595085
1782814605290228700,8.019228759765625,-0.007083082105964422,0.005567089654505253,-0.017437946051359177
1782814605310310000,8.039309814453125,-0.004191095009446144,0.0016609635204076767,-0.02134733274579048
1782814605330391800,8.059391845703125,-0.0076782661490142345,-0.02324475161731243,-0.03914809599518776
1782814605350474000,8.079473876953125,-0.0068273888900876045,-0.006137405056506395,-0.04758899658918381
1782814605370556000,8.099555908203126,0.0018080887384712696,0.028171449899673462,-0.04251350834965706
1782814605390636800,8.11963671875,0.007122574374079704,0.033011529594659805,-0.016497788950800896
1782814605410719000,8.139718994140624,-0.0001898444606922567,0.01304637175053358,0.024028925225138664
1782814605430801000,8.15980078125,-0.011533934623003006,-0.016656426712870598,0.02612983249127865
1782814605450882800,8.1798828125,-0.03868568688631058,0.010771727189421654,-0.019342590123414993
1782814605470963700,8.199963623046875,-0.07331166416406631,0.11932782083749771,-0.09349473565816879
1782814605491045600,8.220045654296875,-0.10496773570775986,0.2387733906507492,-0.16177153587341309
1782814605511127800,8.2401279296875,-0.09559974819421768,0.23170608282089233,-0.1815887838602066
1782814605531208700,8.260208740234376,-0.0794425830245018,0.12484188377857208,-0.12387877702713013
1782814605551290600,8.28029052734375,-0.052790798246860504,0.011182582005858421,-0.036129437386989594
1782814605571372800,8.300372802734374,-0.025687657296657562,-0.053006384521722794,0.0327705442905426
1782814605591454700,8.320454833984375,-0.0172865092754364,-0.041075266897678375,0.04924916848540306
1782814605611536000,8.340535888671875,-0.006711303722113371,-0.002896612975746393,0.007052132859826088
1782814605631617800,8.36061767578125,-0.007698416244238615,0.03329498693346977,-0.04128389060497284
1782814605651699700,8.38069970703125,-0.000572449411265552,0.031014572829008102,-0.05899141728878021
1782814605671782000,8.400781982421876,0.000777741486672312,0.010863486677408218,-0.027776263654232025
1782814605691862500,8.420862548828126,0.006650190334767103,-0.012677998282015324,0.016876811161637306
1782814605711944700,8.44094482421875,0.01748197339475155,-0.017284322530031204,0.029570261016488075
1782814605732026600,8.461026611328125,0.01835526153445244,-0.0076967510394752026,0.01159830391407013
1782814605752107500,8.481107421875,0.014982067048549652,0.017098506912589073,-0.011777008883655071
1782814605772189700,8.501189697265625,0.004380348604172468,0.02385026402771473,-0.02309015393257141
1782814605792271600,8.521271728515625,0.00014109868789091706,0.011715383268892765,-0.01029377430677414
1782814605812353500,8.541353515625,0.002866311464458704,-0.002470743376761675,0.009719082154333591
1782814605832434700,8.5614345703125,-0.004808948375284672,0.012199359014630318,0.01789461262524128
1782814605852516600,8.5815166015625,-0.02551044151186943,0.03063581883907318,-0.006601555272936821
1782814605872598500,8.6015986328125,-0.03579651191830635,0.03603284806013107,-0.04901719093322754
1782814605892680700,8.6216806640625,-0.021297704428434372,0.04089871421456337,-0.05079483613371849
1782814605912761600,8.64176171875,-0.012177442200481892,0.03741539269685745,-0.004197326488792896
1782814605932843800,8.66184375,-0.032195981591939926,-0.016124296933412552,0.02214260771870613
1782814605952925700,8.68192578125,-0.028957754373550415,-0.029854994267225266,-0.000056110555306077003
1782814605973006800,8.7020068359375,-0.0133676091209054,0.0046140337362885475,-0.025265062227845192
1782814605993088800,8.7220888671875,-0.0009662734810262918,0.02130870148539543,-0.0187534149736166
1782814606013170700,8.742170654296874,0.002780911745503545,0.004079507663846016,0.006765516009181738
1782814606033252600,8.762252685546875,0.008742578327655792,-0.02404145896434784,0.014108153060078621
1782814606053333800,8.782333740234375,0.0072868033312261105,-0.027793172746896744,-0.0008308240212500095
1782814606073415700,8.802415771484375,0.006739197764545679,-0.013295033946633339,-0.01779245026409626
1782814606093497900,8.822497802734375,0.013177243992686272,0.00220487080514431,-0.027649257332086563
1782814606113579800,8.842579833984376,0.02108304388821125,0.006216014735400677,-0.01578109711408615
1782814606133660700,8.86266064453125,0.03231560438871384,0.00744289206340909,0.009275969117879868
1782814606153742800,8.882742919921874,0.031227555125951767,-0.003994368016719818,0.027607208117842674
1782814606173824800,8.90282470703125,0.02369137853384018,-0.0035929284058511257,0.0237578134983778
1782814606193905700,8.92290576171875,0.012117276899516582,0.01214759424328804,0.013055453076958656
1782814606213987600,8.942987548828125,0.009994794614613056,0.02976256236433983,0.014031805098056793
1782814606234069500,8.963069580078125,0.007449137046933174,0.028758300468325615,0.031824685633182526
1782814606254151700,8.983151611328125,0.013256664387881756,0.015820033848285675,0.05508267879486084
1782814606274232600,9.003232666015625,0.0035716339480131865,0.014931010082364082,0.07690370082855225
1782814606294314500,9.023314453125,-0.06663034856319427,0.06059614568948746,0.0835835337638855
1782814606314396700,9.043396728515624,-0.14403344690799713,0.15097986161708832,0.06514784693717957
1782814606334478600,9.063478515625,-0.17242056131362915,0.2736789882183075,0.03496513515710831
1782814606354559700,9.083559814453125,-0.1685270518064499,0.3279159665107727,-0.002774895168840885
1782814606374641700,9.1036416015625,-0.14565709233283997,0.2264963984489441,-0.033133551478385925
1782814606394723600,9.1237236328125,-0.10201288014650345,0.014068049378693104,0.008198743686079979
1782814606414804700,9.1438046875,-0.07330015301704407,-0.16276927292346954,0.11942201107740402
1782814606434886700,9.16388671875,-0.01747576892375946,-0.20511095225811005,0.1732933223247528
1782814606454968600,9.183968505859376,0.014015162363648415,-0.19577111303806305,0.1351049244403839
1782814606475050800,9.20405078125,0.023658648133277893,-0.1411014199256897,0.08408046513795853
1782814606495131600,9.224131591796874,0.010715949349105358,-0.08489176630973816,0.049514587968587875
1782814606515213800,9.2442138671875,0.01592947356402874,-0.05382968485355377,0.016936756670475006
1782814606535295700,9.264295654296875,0.024890122935175896,-0.04250435531139374,-0.010003308765590191
1782814606555377700,9.284377685546875,0.022940311580896378,-0.05952385440468788,-0.02983594313263893
1782814606575458800,9.304458740234375,0.023055771365761757,-0.05815014988183975,-0.034971222281455994
1782814606596167700,9.325167724609376,0.028131727129220963,-0.025652049109339714,-0.029239939525723457
1782814606616249900,9.345249755859374,0.03268493339419365,-0.014990882948040962,-0.010439353995025158
1782814606636330500,9.36533056640625,0.047356851398944855,-0.005476285703480244,0.013240784406661987
1782814606656412700,9.38541259765625,0.05248778685927391,-0.0011648645158857107,0.013204358518123627
1782814606676494600,9.40549462890625,0.0400267019867897,-0.0024206838570535183,-0.015043002553284168
1782814606696575700,9.42557568359375,0.03034776821732521,0.008968077600002289,-0.03894217312335968
1782814606716657700,9.44565771484375,0.025710908696055412,0.019424526020884514,-0.03609057143330574
1782814606736739600,9.465739501953125,0.03885526582598686,0.013364521786570549,-0.017015641555190086
1782814606756821800,9.48582177734375,0.0445755310356617,-0.0036326393019407988,-0.005394806154072285
1782814606776902700,9.505902587890626,0.038606591522693634,-0.021562814712524414,0.0011671364773064852
1782814606796984600,9.525984619140624,0.037882000207901,-0.012170359492301941,0.0074003031477332115
1782814606817066800,9.546066650390625,0.03812851756811142,-0.012313757091760635,0.0004766422789543867
1782814606837147400,9.5661474609375,0.040471453219652176,-0.010906847193837166,-0.012291159480810165
1782814606857229600,9.5862294921875,0.03912951797246933,-0.006740676239132881,-0.0250497218221426
1782814606877311500,9.6063115234375,0.03631597012281418,-0.007089167833328247,-0.02020386792719364
1782814606897393400,9.626393310546876,0.035659320652484894,-0.029265370219945908,-0.0010646497830748558
1782814606917474600,9.646474609375,0.032752875238657,-0.02077215164899826,0.012856755405664444
1782814606936929500,9.665929443359374,0.023335812613368034,0.0010801088064908981,0.0034554479643702507
1782814606957011500,9.686011474609375,0.022678248584270477,0.015333158895373344,-0.012725494801998138
1782814606977093400,9.70609326171875,0.0338735356926918,0.022036122158169746,-0.012464931234717369
1782814606997174500,9.726174560546875,0.037876762449741364,0.010607598349452019,0.008845213800668716
1782814607017256400,9.74625634765625,0.03179197013378143,0.005944669712334871,0.034829676151275635
1782814607037338400,9.76633837890625,0.03932942822575569,0.003941675648093224,0.039435286074876785
1782814607057420500,9.786420654296874,0.04712304845452309,0.0006167679093778133,0.02520957589149475
1782814607077501400,9.80650146484375,0.04127400740981102,-0.005916656460613012,0.013303333893418312
1782814607097583600,9.82658349609375,0.022239211946725845,-0.02458128146827221,-0.006725756451487541
1782814607117665500,9.84666552734375,0.02879798226058483,-0.014965783804655075,-0.008104968816041946
1782814607137746700,9.86674658203125,0.03794926032423973,-0.015757322311401367,-0.003512967610731721
1782814607157828600,9.88682861328125,0.026540931314229965,-0.04989536479115486,-0.011014657095074654
1782814607177910500,9.90691064453125,0.009853266179561615,-0.07529119402170181,-0.027425697073340416
1782814607197992400,9.926992431640626,0.009400347247719765,-0.03849098086357117,-0.04385264217853546
1782814607218073600,9.947073486328126,0.015188404358923435,-0.015853600576519966,-0.046257514506578445
1782814607238155500,9.967155517578124,-0.0044371685944497585,-0.04504679888486862,-0.030775008723139763
1782814607258237700,9.98723779296875,-0.023066123947501183,-0.03398744761943817,0.0032205916941165924
1782814607278318600,10.007318603515625,-0.03046584315598011,-0.006280140019953251,0.0016363649629056454
1782814607298400800,10.02740087890625,-0.032540056854486465,-0.011923247948288918,-0.03600076213479042
1782814607318482700,10.047482666015625,-0.0309266559779644,-0.00990588404238224,-0.053392231464385986
1782814607338564600,10.067564697265626,-0.034282948821783066,0.0014001531526446342,-0.033407095819711685
1782814607358645800,10.087645751953126,-0.029729243367910385,0.006832811515778303,0.006216626614332199
1782814607378727700,10.107727783203124,-0.018888579681515694,-0.008954940363764763,0.028588777408003807
1782814607398809600,10.1278095703125,-0.010935107246041298,-0.008773330599069595,0.02808566950261593
1782814607418891800,10.147891845703125,-0.012251241132616997,-0.00580976577475667,0.018499622121453285
1782814607438972400,10.167972412109375,-0.008724533021450043,0.010806189849972725,0.0036284560337662697
1782814607459054600,10.1880546875,-0.008257177658379078,0.012875013053417206,-0.007596077397465706
1782814607479136500,10.208136474609375,-0.010408745147287846,0.07382651418447495,0.061358220875263214
1782814607499217400,10.228217529296876,0.010851031169295311,-0.03205561265349388,0.2038005143404007
1782814607519299600,10.248299560546876,0.02843512035906315,-0.15608665347099304,0.24008336663246155
1782814607539381500,10.268381591796874,0.0028877360746264458,-0.05141223594546318,0.13774272799491882
1782814607559463400,10.28846337890625,-0.014198395423591137,0.0889645516872406,-0.018099389970302582
1782814607579544600,10.308544677734375,-0.015306479297578335,0.09994931519031525,-0.1575145125389099
1782814607599626500,10.32862646484375,-0.0003667038108687848,-0.0022103539668023586,-0.28880810737609863
1782814607619708400,10.34870849609375,0.025294924154877663,-0.010281438007950783,-0.2922658920288086
