time,seconds_elapsed,z,y,x
1782814585921500700,0.068500732421875,-0.12153952568769455,-0.3527306616306305,-0.19317235052585602
1782814585941582600,0.08858251953125,-0.012509253807365894,-0.2305580973625183,-0.21921636164188385
1782814585961664800,0.108664794921875,0.08524060994386673,-0.10773038864135742,-0.1573217362165451
1782814585981745700,0.12874560546875,0.13538816571235657,-0.17940965294837952,-0.05008263513445854
1782814586001827800,0.148827880859375,0.18971985578536987,-0.33029770851135254,0.04360656067728996
1782814586021909800,0.16890966796875,0.2644250690937042,-0.3596118986606598,0.09921395778656006
1782814586041991700,0.18899169921875,0.3358542323112488,-0.2342967540025711,0.1817777007818222
1782814586062072800,0.20907275390625,0.40826335549354553,-0.009316761046648026,0.28414082527160645
1782814586082154800,0.22915478515625,0.49546486139297485,0.3238217830657959,0.392162948846817
1782814586102236700,0.249236572265625,0.6053857803344727,0.5362236499786377,0.46257102489471436
1782814586122318800,0.26931884765625,0.7806326150894165,0.5235722064971924,0.5853472948074341
1782814586142400800,0.28940087890625,0.9907399415969849,0.48028290271759033,0.7735294103622437
1782814586162481700,0.309481689453125,1.0044293403625488,0.3217330873012543,0.6488326191902161
1782814586182563800,0.329563720703125,0.825657844543457,-0.06598377972841263,0.2166171818971634
1782814586202645800,0.349645751953125,0.7285313606262207,-0.3350176215171814,-0.2318335473537445
1782814586222727700,0.369727783203125,0.660180389881134,-0.6324708461761475,-0.7695845365524292
1782814586242808600,0.38980859375,0.5434204936027527,-0.5880209803581238,-1.1442292928695679
1782814586262890500,0.409890380859375,0.3424408435821533,-0.28640449047088623,-1.3460382223129272
1782814586282972700,0.42997265625,0.14716218411922455,0.09636526554822922,-1.3156245946884155
1782814586303054600,0.4500546875,-0.043111708015203476,0.356528103351593,-1.1283528804779053
1782814586323136500,0.470136474609375,-0.19673115015029907,0.583185613155365,-1.0202460289001465
1782814586343217700,0.4902177734375,-0.32257983088493347,0.6126922965049744,-1.0954530239105225
1782814586363299600,0.510299560546875,-0.40824076533317566,0.49919015169143677,-1.1413885354995728
1782814586383381500,0.530381591796875,-0.4176027774810791,0.38958021998405457,-1.016620397567749
1782814586403463700,0.550463623046875,-0.2681336998939514,0.4097851812839508,-0.7913681268692017
1782814586423544600,0.570544677734375,-0.08237821608781815,0.4629579484462738,-0.5047130584716797
1782814586443626800,0.590626708984375,0.0873703807592392,0.27871692180633545,-0.21200306713581085
1782814586463708700,0.610708740234375,0.24021688103675842,-0.09531446546316147,0.017281237989664078
1782814586483790600,0.63079052734375,0.340055912733078,-0.2578309178352356,0.09767358005046844
1782814586503871700,0.650871826171875,0.39954277873039246,-0.2715612053871155,0.06715922802686691
1782814586523953700,0.67095361328125,0.5125800371170044,-0.178696408867836,-0.057983871549367905
1782814586544035600,0.69103564453125,0.5906152725219727,-0.1281522512435913,-0.11724715679883957
1782814586564117800,0.71111767578125,0.6102852821350098,-0.024867625907063484,-0.10624954104423523
1782814586584199700,0.73119970703125,0.6557077765464783,-0.05825960636138916,-0.0699145719408989
1782814586604280800,0.75128076171875,0.6976633667945862,-0.19106528162956238,0.004447634331882
1782814586624362800,0.77136279296875,0.6681681871414185,-0.34392061829566956,0.0801180750131607
1782814586644444700,0.791444580078125,0.5496605634689331,-0.3763386607170105,0.15274405479431152
1782814586664526600,0.811526611328125,0.3461344540119171,-0.3145428001880646,0.19851575791835785
1782814586684607700,0.831607666015625,0.11441197991371155,-0.23930877447128296,0.19967371225357056
1782814586704689700,0.851689697265625,-0.041548848152160645,-0.23772810399532318,0.1737315058708191
1782814586724771800,0.871771728515625,-0.11436976492404938,-0.17113398015499115,0.07168088108301163
1782814586744853800,0.891853759765625,-0.11531568318605423,-0.1314258873462677,-0.014327311888337135
1782814586764935700,0.911935791015625,-0.046158935874700546,-0.2398609071969986,-0.049552448093891144
1782814586785016800,0.932016845703125,0.09273039549589157,-0.2562204599380493,-0.06944767385721207
1782814586805098800,0.9520986328125,0.11986155807971954,-0.14248879253864288,-0.035352155566215515
1782814586825180700,0.9721806640625,0.02153395675122738,0.03857005387544632,0.04153110086917877
1782814586845262800,0.992262939453125,-0.033048663288354874,0.06646949052810669,0.05432099103927612
1782814586865343500,1.012343505859375,0.0013215597718954086,0.04694478586316109,0.04348618537187576
1782814586885425700,1.03242578125,0.036660436540842056,-0.04390733316540718,0.0774146318435669
1782814586905507800,1.0525078125,0.0423695407807827,-0.18727369606494904,0.21920634806156158
1782814586925589800,1.07258984375,0.052514418959617615,-0.34992197155952454,0.37808606028556824
1782814586945670700,1.092670654296875,0.10323656350374222,-0.44898486137390137,0.4364434778690338
1782814586965752600,1.112752685546875,0.16918206214904785,-0.37541407346725464,0.3297317624092102
1782814586985834500,1.13283447265625,0.2215266078710556,-0.26462608575820923,0.15825019776821136
1782814587005916700,1.152916748046875,0.21583889424800873,-0.18748033046722412,0.08079446852207184
1782814587025998600,1.17299853515625,0.18549083173274994,-0.09172122180461884,0.05488875135779381
1782814587046079700,1.193079833984375,0.18271386623382568,-0.014588387683033943,0.0072306254878640175
1782814587066161700,1.21316162109375,0.15288911759853363,-0.05339917540550232,-0.04880071058869362
1782814587086243600,1.23324365234375,0.09465565532445908,-0.0919288918375969,-0.08213075995445251
1782814587106325500,1.253325439453125,0.03127700462937355,-0.10919813811779022,-0.12077825516462326
1782814587126406700,1.27340673828125,-0.020819954574108124,-0.09692387282848358,-0.16032376885414124
1782814587146488600,1.293488525390625,-0.07013173401355743,-0.058151498436927795,-0.20523621141910553
1782814587166570800,1.31357080078125,-0.12447859346866608,-0.003683373099192977,-0.22814826667308807
1782814587186652700,1.333652587890625,-0.16335415840148926,0.054627928882837296,-0.2231089174747467
1782814587206733800,1.35373388671875,-0.19193387031555176,0.07173769176006317,-0.19922778010368347
1782814587226815700,1.373815673828125,-0.1881420761346817,0.10258320719003677,-0.16988909244537354
1782814587246897700,1.393897705078125,-0.1670561283826828,0.07702860236167908,-0.14439381659030914
1782814587266979600,1.4139794921875,-0.13221947848796844,0.013919450342655182,-0.1277417689561844
1782814587287061800,1.434061767578125,-0.09824367612600327,-0.028017614036798477,-0.07638432085514069
1782814587307142700,1.454142578125,-0.09604516625404358,0.0025219391100108624,-0.03009321354329586
1782814587327224800,1.474224853515625,-0.10272298753261566,0.05044350028038025,-0.03521079197525978
1782814587347306800,1.494306640625,-0.07877116650342941,0.07126067578792572,-0.04347102344036102
1782814587367388700,1.514388671875,-0.04596392810344696,0.05463004857301712,-0.03477364405989647
1782814587387469800,1.5344697265625,-0.027712542563676834,0.017801884561777115,-0.0038266016636043787
1782814587407551700,1.5545517578125,-0.008129130117595196,0.022065110504627228,0.011106614023447037
1782814587427633700,1.574633544921875,0.004464073106646538,0.03283330798149109,0.001053652260452509
1782814587447715800,1.5947158203125,0.00603668624535203,0.004136072937399149,-0.015651967376470566
1782814587467796700,1.614796630859375,0.00011316430754959583,0.019778553396463394,-0.03074488788843155
1782814587487879000,1.63487890625,-0.00649644248187542,0.029039815068244934,-0.044525984674692154
1782814587507960800,1.6549609375,-0.02248428761959076,0.029203124344348907,-0.04059983417391777
1782814587528042800,1.675042724609375,-0.033814024180173874,0.027528755366802216,-0.02347286231815815
1782814587548124700,1.695124755859375,-0.03353862464427948,0.04345020651817322,-0.016716931015253067
1782814587568205600,1.71520556640625,-0.020945003256201744,0.04478384926915169,-0.015750350430607796
1782814587588287500,1.73528759765625,0.004360554274171591,-0.0041290284134447575,0.01677551493048668
1782814587608369700,1.75536962890625,0.03828892856836319,-0.04863454028964043,0.07252940535545349
1782814587628451600,1.77545166015625,0.037088941782712936,-0.058966800570487976,0.08204594999551773
1782814587648533000,1.795532958984375,0.004057752899825573,-0.06760360300540924,0.04988473281264305
1782814587668615000,1.815614990234375,-0.032790835946798325,-0.0755145400762558,0.018266594037413597
1782814587688696800,1.83569677734375,-0.05665658041834831,-0.08196625113487244,-0.020177612081170082
1782814587708778800,1.85577880859375,-0.06274396926164627,-0.07505719363689423,-0.05905280262231827
1782814587728860000,1.87585986328125,-0.07611123472452164,-0.04378238320350647,-0.050939787179231644
1782814587748941800,1.89594189453125,-0.09893450140953064,-0.03968163579702377,-0.024605093523859978
1782814587769024000,1.91602392578125,-0.10537537932395935,-0.02612784504890442,-0.00942687876522541
1782814587789106000,1.93610595703125,-0.10363780707120895,-0.01179937832057476,-0.031322602182626724
1782814587809187800,1.956187744140625,-0.1030375063419342,0.01041743066161871,-0.07167098671197891
1782814587829269000,1.97626904296875,-0.09468556195497513,0.012582670897245407,-0.10170193016529083
1782814587849351000,1.996350830078125,-0.0866055116057396,0.016720078885555267,-0.09924905747175217
1782814587869432800,2.016432861328125,-0.06109532341361046,-0.0027658166363835335,-0.08002918213605881
1782814587889515000,2.036514892578125,-0.03107535094022751,-0.038225263357162476,-0.048106640577316284
1782814587909596000,2.056595947265625,0.0020937626250088215,-0.06448856741189957,-0.028727641329169273
1782814587929678000,2.076677978515625,0.03099687024950981,-0.09864775091409683,-0.04670826345682144
1782814587949760000,2.096760009765625,0.05330400913953781,-0.10186299681663513,-0.05850822478532791
1782814587969842000,2.116842041015625,0.04971854016184807,-0.07167057693004608,-0.0568050816655159
1782814587989923000,2.136923095703125,0.038396935909986496,-0.03555544465780258,-0.056603990495204926
1782814588010005000,2.1570048828125,0.03704789653420448,-0.026494886726140976,-0.057267479598522186
1782814588030087000,2.1770869140625,0.046732984483242035,-0.06427902728319168,-0.05119576305150986
1782814588050169000,2.197169189453125,0.04495153948664665,-0.13225525617599487,-0.03027765080332756
1782814588070251000,2.2172509765625,0.018002329394221306,-0.15498086810112,-0.007538346108049154
1782814588090332000,2.237331787109375,-0.010566258803009987,-0.11680925637483597,-0.01300505269318819
1782814588110414000,2.2574140625,-0.020502950996160507,-0.057888831943273544,-0.0451371930539608
1782814588130496000,2.27749609375,-0.023498324677348137,-0.015758108347654343,-0.0557820200920105
1782814588150578000,2.297577880859375,-0.04399919882416725,-0.0022809524089097977,-0.019222481176257133
1782814588170658800,2.317658935546875,-0.07852616161108017,-0.01880662515759468,0.02072315663099289
1782814588190740700,2.33774072265625,-0.10701911151409149,-0.036309920251369476,0.02376009151339531
1782814588210823000,2.357822998046875,-0.14037618041038513,-0.01575232669711113,0.002100565703585744
1782814588230904800,2.37790478515625,-0.16459733247756958,0.02615012601017952,-0.014856820926070213
1782814588250986000,2.397986083984375,-0.16370517015457153,0.06376577168703079,-0.03695395216345787
1782814588271068000,2.41806787109375,-0.14786076545715332,0.05859637260437012,-0.0631239041686058
1782814588291149800,2.43814990234375,-0.14478592574596405,0.0291492510586977,-0.06687713414430618
1782814588311231700,2.458231689453125,-0.15975366532802582,-0.0004049919079989195,-0.04975103214383125
1782814588331313000,2.47831298828125,-0.1733783632516861,-0.027281958609819412,-0.025789933279156685
1782814588351394800,2.498394775390625,-0.16221342980861664,-0.015549521893262863,-0.015490132384002209
1782814588371477000,2.51847705078125,-0.15504200756549835,0.034112151712179184,-0.022897232323884964
1782814588391559000,2.538558837890625,-0.15208007395267487,0.06354682147502899,-0.036287449300289154
1782814588411639800,2.558639892578125,-0.13888238370418549,0.03981844708323479,-0.033254653215408325
1782814588431722000,2.578721923828125,-0.11882911622524261,0.0112417321652174,0.00046643870882689953
1782814588451804000,2.598803955078125,-0.11474956572055817,0.022954264655709267,0.016265811398625374
1782814588471885800,2.6188857421875,-0.11272059381008148,0.06122022122144699,-0.011622690595686436
1782814588491968000,2.638968017578125,-0.09545614570379257,0.09624504297971725,-0.04995012655854225
1782814588512049000,2.659048828125,-0.07278704643249512,0.08848556131124496,-0.05190667137503624
1782814588532131000,2.679131103515625,-0.05412421002984047,0.06266246736049652,-0.01708853803575039
1782814588552213000,2.699212890625,-0.03599505499005318,0.04226449877023697,-0.007615190930664539
1782814588572295000,2.719294921875,-0.004080930259078741,0.03363466262817383,-0.020687824115157127
1782814588592376000,2.7393759765625,0.030919283628463745,0.02403632551431656,-0.016187699511647224
1782814588612458000,2.7594580078125,0.04534660279750824,-0.0005022459663450718,0.0028542892541736364
1782814588632540000,2.779539794921875,0.025387130677700043,-0.01253809779882431,-0.0004905688110738993
1782814588652621800,2.799621826171875,0.00531943840906024,-0.013900027610361576,-0.03805576264858246
1782814588672702700,2.81970263671875,-0.001592676155269146,-0.006696581840515137,-0.07507611066102982
1782814588692785000,2.839784912109375,-0.010988395661115646,-0.0018675019964575768,-0.06958074122667313
1782814588712866800,2.85986669921875,-0.011541592888534069,0.009556017816066742,-0.053571365773677826
1782814588732948700,2.87994873046875,-0.004502533935010433,0.013981236144900322,-0.041524071246385574
1782814588753030000,2.90002978515625,0.0021176952868700027,0.032245781272649765,-0.03307854384183884
1782814588773111800,2.92011181640625,0.003633152460679412,0.03170262277126312,-0.04444146528840065
1782814588793193700,2.94019384765625,0.005219391547143459,0.04378487169742584,-0.048661742359399796
1782814588813276000,2.96027587890625,0.00636490760371089,0.04007263109087944,-0.03645020350813866
1782814588833356500,2.9803564453125,0.004974971991032362,0.020296962931752205,-0.025420915335416794
1782814588853438700,3.000438720703125,0.004201092757284641,0.005739600397646427,-0.031068135052919388
1782814588873520600,3.020520751953125,0.014200340025126934,-0.005974884610623121,-0.04127131402492523
1782814588893602600,3.0406025390625,0.013510137796401978,-0.032832302153110504,-0.03334062173962593
1782814588913683700,3.06068359375,0.013792877085506916,-0.05166008323431015,-0.014302811585366726
1782814588933765600,3.080765625,0.022996053099632263,-0.03762182220816612,0.00983169861137867
1782814588953847600,3.10084765625,0.03373563289642334,-0.023022953420877457,0.03239496797323227
1782814588973929700,3.1209296875,0.026549240574240685,-0.019543394446372986,0.05734533816576004
1782814588994011600,3.14101171875,0.014840807765722275,-0.031827088445425034,0.10299164801836014
1782814589014092800,3.1610927734375,0.005075197201222181,-0.007603970356285572,0.1490623503923416
1782814589034174700,3.1811748046875,-0.01976505108177662,0.036149762570858,0.1629997193813324
1782814589054256600,3.201256591796875,-0.06184101849794388,0.054694194346666336,0.12713661789894104
1782814589074338600,3.221338623046875,-0.09743217378854752,0.04502633213996887,0.0816049724817276
1782814589094419700,3.241419677734375,-0.11904450505971909,0.032846733927726746,0.06410102546215057
1782814589114501600,3.261501708984375,-0.14142416417598724,0.03539624437689781,0.06714221835136414
1782814589134583800,3.281583740234375,-0.16306500136852264,0.03845445439219475,0.040531057864427567
1782814589154665700,3.301665771484375,-0.17522066831588745,0.05673583224415779,-0.00366814318113029
1782814589174746600,3.32174658203125,-0.1736851930618286,0.0684928447008133,-0.04286303371191025
1782814589194828800,3.341828857421875,-0.1783944070339203,0.058810681104660034,-0.060688868165016174
1782814589214910700,3.36191064453125,-0.16611555218696594,0.023474736139178276,-0.07945360243320465
1782814589234992600,3.38199267578125,-0.15349385142326355,-0.004100285470485687,-0.07276292890310287
1782814589255073800,3.40207373046875,-0.15152011811733246,-0.022484511137008667,-0.04775828868150711
1782814589275155700,3.42215576171875,-0.14072167873382568,-0.014764145016670227,-0.025741148740053177
1782814589295238000,3.44223779296875,-0.11958396434783936,0.006306410767138004,-0.029808545485138893
1782814589315319800,3.46231982421875,-0.1007622554898262,0.008596492931246758,-0.051577694714069366
1782814589335400700,3.482400634765625,-0.09987178444862366,-0.018496140837669373,-0.05624094977974892
1782814589355483000,3.50248291015625,-0.09510451555252075,-0.0389258898794651,-0.03313851356506348
1782814589375564800,3.522564697265625,-0.07326698303222656,-0.03458462283015251,-0.00722559355199337
1782814589395646700,3.542646728515625,-0.057555753737688065,-0.025379613041877747,-0.000895671546459198
1782814589415727600,3.5627275390625,-0.04935751110315323,0.004178712610155344,-0.0011097167152911425
1782814589435809500,3.5828095703125,-0.04790916293859482,-0.000409519299864769,-0.009210266172885895
1782814589455891700,3.6028916015625,-0.042929377406835556,-0.03620384261012077,-0.005850095767527819
1782814589475974000,3.622973876953125,-0.04914706200361252,-0.04004403203725815,0.0010623086709529161
1782814589496054500,3.643054443359375,-0.06536783277988434,-0.009943744167685509,-0.006424285005778074
1782814589516136700,3.66313671875,-0.08028130233287811,0.012383743189275265,-0.015377143397927284
1782814589536218600,3.683218505859375,-0.06955903023481369,0.028927426785230637,-0.017643503844738007
1782814589556300500,3.703300537109375,-0.043838344514369965,0.01271637249737978,-0.019004369154572487
1782814589576381700,3.723381591796875,-0.029688434675335884,-0.04863433539867401,-0.007940530776977539
1782814589596463600,3.743463623046875,-0.03645458444952965,-0.09163421392440796,0.03476789593696594
1782814589616545800,3.7635458984375,-0.047394461929798126,-0.07066293805837631,0.07162220031023026
1782814589636627700,3.783627685546875,-0.04353361949324608,-0.04775805026292801,0.05344714596867561
1782814589656708400,3.803708251953125,-0.017296453937888145,-0.029004165902733803,0.026187635958194733
1782814589676790500,3.82379052734375,0.002487017773091793,-0.017890824005007744,0.021831441670656204
1782814589696872400,3.84387255859375,-0.008567172102630138,-0.015824101865291595,0.03485717996954918
1782814589716954400,3.863954345703125,-0.027362341061234474,-0.019766174256801605,0.04183107987046242
1782814589737035500,3.884035400390625,-0.027798913419246674,-0.012896493077278137,0.03857600688934326
1782814589757117400,3.904117431640625,-0.017179863527417183,-0.008599933236837387,0.024463020265102386
1782814589777199600,3.92419970703125,-0.02263869345188141,-0.018735263496637344,0.013968556188046932
1782814589797281500,3.944281494140625,-0.030384764075279236,-0.021719779819250107,0.028015049174427986
1782814589817362400,3.964362548828125,-0.03196723759174347,-0.01632777601480484,0.04249657690525055
1782814589837444600,3.984444580078125,-0.041232023388147354,-0.0138035137206316,0.06145719438791275
1782814589857526500,4.004526611328125,-0.048398181796073914,-0.010605361312627792,0.062031038105487823
1782814589877608400,4.0246083984375,-0.04479172080755234,-0.023281477391719818,0.04374895617365837
1782814589897690600,4.044690673828125,-0.05168230086565018,-0.04516579583287239,0.016772888600826263
1782814589917771300,4.064771240234375,-0.059911731630563736,-0.05310751870274544,-0.005245957523584366
1782814589937853400,4.084853515625,-0.06827666610479355,-0.0651353970170021,-0.0004676652606576681
1782814589957935400,4.104935302734375,-0.09123938530683517,-0.11646636575460434,0.024636611342430115
1782814589978017300,4.125017333984375,-0.11867204308509827,-0.1498265266418457,0.057112373411655426
1782814589998098400,4.145098388671875,-0.1255137324333191,-0.154251828789711,0.06292753666639328
1782814590018180400,4.165180419921875,-0.12088962644338608,-0.1304604709148407,0.046926241368055344
1782814590038262300,4.18526220703125,-0.12018962949514389,-0.07268358767032623,0.02593971975147724
1782814590058344400,4.205344482421875,-0.12767216563224792,-0.012881811708211899,0.006577666848897934
1782814590078425300,4.22542529296875,-0.14423182606697083,0.03805447369813919,-0.003581227734684944
1782814590098507500,4.245507568359375,-0.16109515726566315,0.08464357256889343,-0.013440467417240143
1782814590118589400,4.26558935546875,-0.16372212767601013,0.10510675609111786,-0.025065988302230835
1782814590138671400,4.28567138671875,-0.14036627113819122,0.08810582756996155,-0.02655171789228916
1782814590158752500,4.30575244140625,-0.12169121205806732,0.06193101033568382,-0.0014339927583932877
1782814590178834400,4.32583447265625,-0.12246811389923096,0.03747313842177391,0.02316790260374546
1782814590198916400,4.345916259765625,-0.12348257005214691,0.02610142156481743,0.02228156477212906
1782814590218998500,4.36599853515625,-0.11136151850223541,0.02914423868060112,-0.0028887330554425716
1782814590239079400,4.386079345703125,-0.09896776080131531,0.054397910833358765,-0.012516362592577934
1782814590259161600,4.40616162109375,-0.09283088892698288,0.06478997319936752,-0.006219039671123028
1782814590279243500,4.426243408203125,-0.07798918336629868,0.0510619692504406,-0.0024185876827687025
1782814590299325400,4.446325439453125,-0.05855656787753105,0.022701095789670944,0.0069417450577020645
1782814590319406600,4.466406494140625,-0.05670918896794319,0.00563145661726594,0.03556811064481735
1782814590339488500,4.486488525390625,-0.06222610920667648,0.0218515582382679,0.04908869042992592
1782814590359570400,4.5065703125,-0.05246861279010773,0.03123137168586254,0.0406917929649353
1782814590379652600,4.526652587890625,-0.04603290185332298,0.029823502525687218,0.03646644577383995
1782814590399733500,4.5467333984375,-0.0534655824303627,0.02104446291923523,0.02485627308487892
1782814590419815400,4.5668154296875,-0.0685562938451767,0.016180139034986496,-0.0013472221326082945
1782814590439897600,4.586897705078125,-0.06569135934114456,0.03201162815093994,-0.019161518663167953
1782814590459979500,4.6069794921875,-0.06486485153436661,0.043369781225919724,-0.030173618346452713
1782814590480060400,4.627060302734375,-0.06381568312644958,0.03195880725979805,-0.03355342149734497
1782814590500142300,4.647142333984375,-0.03813376650214195,0.026180457323789597,-0.033763181418180466
1782814590520224300,4.667224365234375,-0.029231760650873184,-0.01567835919559002,-0.05277373641729355
1782814590540306400,4.687306396484375,-0.03603978082537651,-0.050442080944776535,-0.06711354851722717
1782814590560387300,4.70738720703125,-0.034554146230220795,-0.04157611355185509,-0.0554746612906456
1782814590580469200,4.72746923828125,-0.024181077256798744,0.00946011021733284,-0.024930458515882492
1782814590600551400,4.747551513671875,-0.021361885592341423,0.036857012659311295,-0.01803573966026306
1782814590620633300,4.76763330078125,-0.024380343034863472,0.0431610569357872,-0.021089695394039154
1782814590640714500,4.787714599609375,-0.02152368240058422,0.044019799679517746,-0.0030513068195432425
1782814590660797000,4.807796875,-0.022039156407117844,0.025415794923901558,0.012859034352004528
1782814590680878800,4.82787890625,-0.02394837513566017,0.004042595159262419,0.008493581786751747
1782814590700960800,4.847960693359375,-0.02082863077521324,0.006906510330736637,-0.007611183449625969
1782814590721043000,4.86804296875,-0.03393866494297981,0.03860626742243767,-0.004930409602820873
1782814590741123800,4.888123779296875,-0.031334713101387024,0.04015734791755676,-0.008242207579314709
1782814590761206000,4.9082060546875,-0.022753920406103134,0.009367241524159908,-0.022376341745257378
1782814590781288000,4.928287841796875,-0.020108453929424286,0.0014041722752153873,-0.027549168094992638
1782814590801368800,4.948368896484375,-0.01991025172173977,0.004304374102503061,-0.03758339211344719
1782814590821451000,4.968450927734375,-0.009516412392258644,-0.007066769525408745,-0.052352964878082275
1782814590841533000,4.988532958984375,0.0041993409395217896,-0.0024952960666269064,-0.05370473861694336
1782814590861614800,5.00861474609375,0.010280407965183258,-0.010168308392167091,-0.05853421241044998
1782814590881697000,5.028697021484375,0.028202710673213005,-0.01408643089234829,-0.048536330461502075
1782814590901777700,5.048777587890625,0.0351523719727993,-0.03258771449327469,-0.033906061202287674
1782814590921859800,5.06885986328125,0.030728695914149284,-0.02397608943283558,-0.020899934694170952
1782814590941941800,5.088941650390625,0.022871294990181923,-0.007239894010126591,-0.01667596772313118
1782814590962023700,5.109023681640625,0.03155675157904625,0.01689334399998188,-0.012653647921979427
1782814590982104800,5.129104736328125,0.042487699538469315,0.03444978967308998,-0.0023766071535646915
1782814591002186800,5.149186767578125,0.04302837699651718,0.022616319358348846,0.0033883866854012012
1782814591022268700,5.1692685546875,0.03030293434858322,-0.0015596975572407246,0.014685031957924366
1782814591042350800,5.189350830078125,0.013640371151268482,-0.02416788600385189,0.01816774345934391
1782814591062431700,5.209431640625,0.012778980657458305,-0.0027594815474003553,0.025324299931526184
1782814591082514000,5.229513916015625,0.010589241050183773,0.01904352195560932,0.012839606031775475
1782814591102595800,5.249595947265625,-0.011059536598622799,-0.01030520349740982,-0.020021719858050346
1782814591122677800,5.269677734375,-0.026476753875613213,-0.015433799475431442,-0.03244113177061081
1782814591142759000,5.289759033203125,-0.018837979063391685,0.0031292405910789967,-0.019855551421642303
1782814591162840800,5.3098408203125,-0.0026491263415664434,0.0005670236423611641,0.0005277760792523623
1782814591182922800,5.3299228515625,0.0034656694624572992,-0.0072102355770766735,0.023912133648991585
1782814591203005000,5.3500048828125,-0.013149878941476345,-0.01032651960849762,0.03447744995355606
1782814591223085800,5.3700859375,-0.03334534168243408,-0.00899845827370882,0.018814759328961372
1782814591243168000,5.39016796875,-0.04548246040940285,0.008489711210131645,-0.011257680132985115
1782814591263250000,5.41025,-0.062149886041879654,0.03164917230606079,-0.021022003144025803
1782814591283331800,5.430331787109375,-0.06772059202194214,0.05648557469248772,0.0072674863040447235
1782814591303413000,5.4504130859375,-0.06945443153381348,0.029809894040226936,0.030064690858125687
1782814591323495000,5.470494873046875,-0.07497063279151917,-0.009621314704418182,0.0325583778321743
1782814591343576800,5.490576904296875,-0.08317270129919052,0.001351422630250454,0.008371245115995407
1782814591363659000,5.510658935546875,-0.077785424888134,0.028654763475060463,-0.017960069701075554
1782814591383740000,5.530739990234375,-0.06943845003843307,0.046948663890361786,-0.011483831331133842
1782814591403821800,5.55082177734375,-0.05749358609318733,0.03529371693730354,0.009514891542494297
1782814591423904000,5.570904052734375,-0.04271244630217552,0.012347408570349216,0.027247851714491844
1782814591443986000,5.59098583984375,-0.02365078404545784,-0.010241850279271603,0.015064834617078304
1782814591464066800,5.61106689453125,-0.015486062504351139,-0.01481352187693119,-0.0033750743605196476
1782814591484148700,5.631148681640625,-0.01214749738574028,-0.012988090515136719,-0.015500508248806
1782814591504230700,5.651230712890625,-0.006248773075640202,-0.016471564769744873,-0.01522312592715025
1782814591524312800,5.671312744140625,-0.0017911149188876152,-0.01924913376569748,-0.00013130810111761093
1782814591544395000,5.69139501953125,0.0003314614586997777,-0.00656484579667449,0.025443123653531075
1782814591564477000,5.711476806640625,-0.00038386977394111454,-0.006910344120115042,0.029464326798915863
1782814591584557800,5.731557861328125,-0.013132422231137753,-0.010111730545759201,0.0210316963493824
1782814591604639700,5.7516396484375,-0.03511160612106323,-0.010026993229985237,0.00766538642346859
1782814591624721700,5.7717216796875,-0.037898045033216476,0.009510766714811325,0.015114006586372852
1782814591644803600,5.791803466796875,-0.03160490095615387,0.02426106669008732,0.033778466284275055
1782814591664884500,5.811884521484375,-0.06198609992861748,-0.01650983653962612,0.03049924597144127
1782814591684966700,5.831966552734375,-0.09903327375650406,-0.048441652208566666,0.011783117428421974
1782814591705048600,5.852048583984375,-0.09999251365661621,-0.012332817539572716,-0.0027093449607491493
1782814591725130500,5.872130615234375,-0.09136436879634857,0.021298743784427643,0.0037221163511276245
1782814591745211600,5.892211669921875,-0.09020921587944031,0.012704594992101192,0.019114932045340538
1782814591765293600,5.91229345703125,-0.08539518713951111,0.010208620689809322,0.025881104171276093
1782814591785375500,5.93237548828125,-0.08282645791769028,0.02521149255335331,0.032003629952669144
1782814591805457700,5.952457763671875,-0.08624761551618576,0.009409960359334946,0.02279082126915455
1782814591825538600,5.97253857421875,-0.0845174491405487,-0.02094406634569168,0.003245652886107564
1782814591845620700,5.992620849609375,-0.08092179894447327,-0.022093448787927628,0.0013175969943404198
1782814591865702700,6.01270263671875,-0.07256491482257843,-0.0027227220125496387,0.011671350337564945
1782814591885784600,6.03278466796875,-0.07206196337938309,-0.0010995632037520409,0.010782048106193542
1782814591905865700,6.05286572265625,-0.08114931732416153,-0.013151383958756924,0.014443458989262581
1782814591925947600,6.07294775390625,-0.08879604190587997,-0.009436985477805138,0.01677362620830536
1782814591946029600,6.093029541015625,-0.08724712580442429,-0.0027495110407471657,0.01756248064339161
1782814591966111700,6.11311181640625,-0.07613819092512131,0.005444266367703676,0.012523306533694267
1782814591986193700,6.133193603515625,-0.07166284322738647,0.011018944904208183,0.013700461015105247
1782814592006274600,6.153274658203125,-0.07068300247192383,0.009281604550778866,0.008828146383166313
1782814592026356500,6.1733564453125,-0.05717787519097328,0.005640608724206686,0.011313831433653831
1782814592046438400,6.1934384765625,-0.04653612896800041,0.008658337406814098,0.02380106970667839
1782814592066520600,6.2135205078125,-0.04360037297010422,0.005816171411424875,0.024815646931529045
1782814592086601500,6.2336015625,-0.04413164407014847,0.025448914617300034,0.013456042855978012
1782814592106683400,6.253683349609375,-0.03913617506623268,0.043119583278894424,0.00453723780810833
1782814592126765600,6.273765625,-0.03969993442296982,0.044321831315755844,0.006020545493811369
1782814592146847500,6.293847412109375,-0.04497316852211952,0.026380321010947227,-0.0030750697478652
1782814592166928600,6.3139287109375,-0.04414362832903862,0.012335867621004581,-0.015581285580992699
1782814592187010600,6.334010498046875,-0.01623586006462574,0.022548014298081398,-0.009351377375423908
1782814592207092500,6.354092529296875,-0.0032190687488764524,0.034773629158735275,0.013818075880408287
1782814592227174400,6.37417431640625,-0.012270002625882626,-0.002582854125648737,-0.00954035297036171
1782814592247255600,6.394255615234375,-0.0210777185857296,-0.011344341561198235,-0.060089461505413055
1782814592267337500,6.41433740234375,-0.002919608959928155,0.03832561522722244,-0.07259804755449295
1782814592287419600,6.434419677734375,0.02015596814453602,0.07909766584634781,-0.03985610976815224
1782814592307501600,6.45450146484375,0.04001859575510025,0.06860852986574173,-0.0034901355393230915
1782814592327583500,6.47458349609375,0.0598832331597805,0.05155705660581589,0.0020158537663519382
1782814592347664600,6.49466455078125,0.07124968618154526,0.03596783056855202,0.0029183747246861458
1782814592367746600,6.51474658203125,0.06978442519903183,0.036086782813072205,0.018247080966830254
1782814592387828500,6.534828369140625,0.07972303777933121,0.019268911331892014,0.022832220420241356
1782814592407910700,6.55491064453125,0.09060018509626389,0.017705107107758522,0.002760521834716201
1782814592427991600,6.574991455078125,0.0820150226354599,0.02437465637922287,0.003891953732818365
1782814592448073700,6.59507373046875,0.07030719518661499,0.028043420985341072,0.02081100456416607
1782814592468155600,6.61515576171875,0.05738166347146034,0.021216176450252533,0.02196502313017845
1782814592488237600,6.635237548828125,0.04300953075289726,0.000621735118329525,0.004258561879396439
1782814592508318700,6.655318603515625,0.02438414841890335,0.004410783294588327,-0.01805039867758751
1782814592528400600,6.675400634765625,0.010971380397677422,0.01279644388705492,-0.024211028590798378
1782814592548482600,6.695482666015625,-0.0033587643411010504,0.014206962659955025,-0.0042847744189202785
1782814592568564700,6.715564697265625,-0.011670968495309353,0.010757658630609512,0.013874837197363377
1782814592588645400,6.735645263671875,-0.022336386144161224,0.010961120948195457,0.010670775547623634
1782814592608727600,6.7557275390625,-0.03789414092898369,0.022918419912457466,-0.0033625334035605192
1782814592628809500,6.7758095703125,-0.039842743426561356,0.040533728897571564,-0.0019966706167906523
1782814592648892000,6.795891845703125,-0.048524558544158936,0.04322754591703415,0.019266068935394287
1782814592668973000,6.81597314453125,-0.058183759450912476,0.03824932873249054,0.02971131168305874
1782814592689055000,6.836054931640625,-0.05473138019442558,0.043852128088474274,0.023301422595977783
1782814592709137000,6.856136962890625,-0.05771965533494949,0.03987462818622589,-0.0025444224011152983
1782814592729219000,6.876218994140625,-0.07085040211677551,0.03030410408973694,-0.017343983054161072
1782814592749301000,6.896301025390625,-0.06417637318372726,0.05747763440012932,-0.017193853855133057
1782814592769382000,6.9163818359375,-0.053059861063957214,0.07978824526071548,-0.024151410907506943
1782814592789464000,6.936464111328125,-0.06505751609802246,0.06065357103943825,-0.0511728972196579
1782814592809546000,6.9565458984375,-0.06316259503364563,0.04105912521481514,-0.07677140086889267
1782814592829628000,6.9766279296875,-0.04423260688781738,0.044941823929548264,-0.06112810969352722
1782814592849709000,6.996708984375,-0.025452353060245514,0.04476868733763695,-0.018939968198537827
1782814592869791000,7.016791015625,-0.0184284970164299,0.043565571308135986,0.015605153515934944
1782814592889873200,7.036873046875,-0.005203502252697945,0.035213809460401535,0.03129258751869202
1782814592909955000,7.056955078125,-0.001455378718674183,0.006424774415791035,0.027423027902841568
1782814592930036000,7.077035888671875,-0.004912575241178274,0.0026386859826743603,0.024181682616472244
1782814592950118100,7.0971181640625,-0.0013596166390925646,0.0289712306112051,0.02226155437529087
1782814592970200000,7.117199951171875,0.006576152052730322,0.03192923590540886,0.033058881759643555
1782814592990282000,7.137281982421875,-0.00018460435967426747,0.020071491599082947,0.044498976320028305
1782814593010363000,7.15736279296875,-0.02648015320301056,-0.003216974902898073,0.035136789083480835
1782814593030444800,7.17744482421875,-0.04151218757033348,-0.013571018353104591,0.007944704033434391
1782814593050527000,7.19752685546875,-0.03667674586176872,0.010277213528752327,-0.005577448755502701
1782814593070609200,7.217609130859375,-0.043843161314725876,0.012489816173911095,-0.00665220245718956
1782814593090689800,7.237689697265625,-0.05705682560801506,-0.0018168122041970491,-0.004023650661110878
1782814593110772000,7.25777197265625,-0.054141607135534286,-0.009360088035464287,-0.0001492961309850216
1782814593130854000,7.27785400390625,-0.0470438115298748,0.010962298139929771,0.023639002814888954
1782814593150935800,7.297935791015625,-0.05695526674389839,0.017512617632746696,0.03930159658193588
1782814593171017000,7.318016845703125,-0.06640579551458359,0.0274578295648098,0.02935316599905491
1782814593191099000,7.338098876953125,-0.0643301010131836,0.03411192446947098,0.013263787142932415
1782814593211180800,7.358180908203125,-0.04965595901012421,0.0337650403380394,0.009122558869421482
1782814593231263000,7.378262939453125,-0.04881472513079643,0.02672824263572693,0.01599099673330784
1782814593251344000,7.39834375,-0.04837755113840103,0.02681315504014492,0.02566724270582199
1782814593271426000,7.418426025390625,-0.03266540542244911,0.019198831170797348,0.032947368919849396
1782814593291508000,7.438508056640625,-0.025185059756040573,-0.0044224984012544155,0.023928258568048477
1782814593311590000,7.45858984375,-0.02290077693760395,-0.014731388539075851,0.002593819983303547
1782814593331672000,7.478672119140625,-0.0159124955534935,-0.002091886941343546,-0.00777092482894659
1782814593351753000,7.4987529296875,-0.018239296972751617,-0.018654175102710724,-0.02089809440076351
1782814593371835000,7.5188349609375,-0.02861121855676174,-0.031180785968899727,-0.021919742226600647
1782814593391917000,7.5389169921875,-0.018910767510533333,-0.009038062766194344,-0.002812627237290144
1782814593411999000,7.5589990234375,-0.0004617808444891125,-0.0026041516102850437,0.0015370775945484638
1782814593432080100,7.579080078125,0.00790045503526926,0.004602156113833189,0.01278719026595354
1782814593452162000,7.599162109375,0.005719711538404226,-0.0061712684109807014,0.040912024676799774
1782814593472244000,7.619243896484375,0.009146015159785748,-0.039942942559719086,0.05625797063112259
1782814593492326100,7.639326171875,0.015192429535090923,-0.05755417048931122,0.046960316598415375
1782814593512407000,7.659406982421875,-0.002670755609869957,-0.06438660621643066,0.014526283368468285
1782814593532489000,7.679489013671875,-0.022475767880678177,-0.05586827173829079,-0.0039020900148898363
1782814593552571100,7.699571044921875,-0.028896501287817955,-0.03192560374736786,0.02196608856320381
1782814593572653000,7.719653076171875,-0.026712797582149506,-0.04677586257457733,0.03596990928053856
1782814593592734000,7.73973388671875,-0.027672836557030678,-0.06830022484064102,0.01558041013777256
1782814593612816100,7.759816162109375,-0.030197810381650925,-0.06803605705499649,-0.00782825518399477
1782814593632898000,7.77989794921875,-0.029333675280213356,-0.04488787800073624,-0.020064985379576683
1782814593652979700,7.799979736328125,-0.03548847511410713,-0.0513186939060688,-0.029567312449216843
1782814593673060600,7.820060546875,-0.047481637448072433,-0.03507417067885399,-0.02091328613460064
1782814593693142500,7.840142578125,-0.048342783004045486,-0.022876588627696037,-0.01815684139728546
1782814593713224700,7.860224609375,-0.03670109435915947,-0.017942480742931366,-0.01944354921579361
1782814593733306600,7.880306640625,-0.023798352107405663,-0.021290959790349007,-0.01504870131611824
1782814593753387800,7.9003876953125,-0.014454294927418232,-0.024798402562737465,-0.00674828328192234
1782814593773469700,7.9204697265625,-0.006925658788532019,-0.022044289857149124,-0.014706593938171864
1782814593793551600,7.940551513671875,-0.00861925259232521,-0.004911315627396107,-0.024009693413972855
1782814593813633800,7.9606337890625,-0.011391452513635159,0.0005518519319593906,-0.01950664073228836
1782814593833714700,7.980714599609375,-0.012005725875496864,0.012646548449993134,-0.015935171395540237
1782814593853796600,8.000796630859375,-0.0013433457352221012,0.017470113933086395,-0.013272447511553764
1782814593873878800,8.020878662109375,-0.0034251713659614325,0.011260680854320526,-0.006746914703398943
1782814593893960700,8.040960693359375,-0.01058570109307766,0.0030102673918008804,0.0064347879961133
1782814593914041900,8.061041748046875,-0.0010308076161891222,0.016384126618504524,0.025881709530949593
1782814593934123800,8.081123779296876,0.018157334998250008,0.009671558625996113,0.028778551146388054
1782814593954205700,8.101205810546874,0.013434809632599354,-0.020153872668743134,0.007945126853883266
1782814593974288000,8.121287841796875,-0.005990645848214626,-0.018623027950525284,-0.011267062276601791
1782814593994369800,8.141369873046875,-0.014215380884706974,0.0115331606939435,-0.02127358689904213
1782814594014450700,8.16145068359375,0.0036538359709084034,0.024699632078409195,-0.010483911260962486
1782814594034532900,8.181532958984375,0.02035544067621231,0.016385991126298904,0.014146491885185242
1782814594054614800,8.20161474609375,0.020326705649495125,-0.01857065036892891,0.02996409498155117
1782814594074696700,8.22169677734375,0.013506703078746796,-0.031363558024168015,0.02028374746441841
1782814594094777900,8.24177783203125,0.008940866217017174,-0.015854237601161003,0.0024648020043969154
1782814594114859800,8.26185986328125,0.007871783338487148,0.009593658149242401,-0.015792643651366234
1782814594134941700,8.281941650390625,0.009361584670841694,0.010908116586506367,-0.022942323237657547
1782814594155024000,8.30202392578125,0.017932729795575142,0.006167700979858637,-0.011183110997080803
1782814594175104500,8.3221044921875,0.022821761667728424,-0.019268417730927467,-0.00833885557949543
1782814594195186700,8.342186767578125,0.021405136212706566,-0.022395974025130272,-0.013311656191945076
1782814594215268600,8.3622685546875,0.02257663384079933,0.0009396080859005451,-0.02281481958925724
1782814594235350500,8.3823505859375,0.014613279141485691,0.008126068860292435,-0.027807338163256645
1782814594255431700,8.402431640625,0.0050299810245633125,0.021440396085381508,-0.02687418833374977
1782814594275513600,8.422513671875,0.007821476086974144,0.028884809464216232,-0.016461338847875595
1782814594295595500,8.442595458984375,0.014734930358827114,0.022186562418937683,-0.005955435801297426
1782814594315677700,8.462677734375,0.011805599555373192,0.0026606707833707333,0.001831126632168889
1782814594335758600,8.482758544921875,-0.000763455405831337,0.0012619784101843834,-0.0010951547883450985
1782814594355840800,8.5028408203125,-0.002369967754930258,0.02478671818971634,-0.0072609540075063705
1782814594375922700,8.522922607421876,0.008089302107691765,0.04213560372591019,0.001470196177251637
1782814594396004600,8.543004638671874,0.009858737699687481,0.033823177218437195,0.013657014816999435
1782814594416085800,8.563085693359374,0.004320428241044283,0.01676696166396141,0.021651025861501694
1782814594436167700,8.583167724609375,0.0023852542508393526,0.009793170727789402,0.015229538083076477
1782814594456249600,8.60324951171875,0.015108980238437653,0.021407106891274452,-0.0015730946324765682
1782814594476331800,8.623331787109375,0.01400208380073309,0.011041166260838509,-0.02650984562933445
1782814594496413700,8.64341357421875,0.00907144695520401,-0.0018355036154389381,-0.03549778088927269
1782814594516494800,8.663494873046876,0.019123520702123642,0.0081446822732687,-0.01620320789515972
1782814594536576800,8.68357666015625,0.018913282081484795,-0.02271757647395134,-0.0045821405947208405
1782814594556658700,8.70365869140625,0.0006006421754136682,-0.06466642767190933,-0.030794968828558922
1782814594576740900,8.723740966796875,-0.005098311696201563,-0.027986373752355576,-0.05224872753024101
1782814594596821800,8.74382177734375,-0.00506916269659996,0.022807957604527473,-0.048442550003528595
1782814594616903700,8.763903564453125,0.00653046602383256,0.04859187453985214,-0.01505078375339508
1782814594636985900,8.78398583984375,0.007327169645577669,0.03029538504779339,0.019681811332702637
1782814594657067800,8.80406787109375,-0.014535672031342983,0.0047829654067754745,0.03132861480116844
1782814594677149000,8.82414892578125,-0.025050630792975426,-0.0029844101518392563,0.018529994413256645
1782814594697230800,8.84423095703125,-0.01695997454226017,0.02428954467177391,-0.0013699682895094156
1782814594717312800,8.864312744140625,-0.00370856118388474,0.0635673776268959,0.004574340768158436
1782814594737394700,8.884394775390625,-0.0021580690518021584,0.06526567786931992,0.04263890162110329
1782814594757475800,8.904475830078125,-0.012958722189068794,0.03694181889295578,0.0698368176817894
1782814594777557800,8.924557861328125,-0.03085116669535637,0.004146230407059193,0.07094717770814896
1782814594797640000,8.944639892578126,-0.03185446932911873,0.023571830242872238,0.038891978561878204
1782814594817721900,8.964721923828124,0.003589244093745947,0.030813666060566902,0.0028877118602395058
1782814594837803000,8.984802978515624,0.014399847015738487,0.006812557578086853,0.022405413910746574
1782814594857885000,9.004885009765625,0.004542364273220301,-0.0346260704100132,0.03993944823741913
1782814594877966800,9.024966796875,-0.011328515596687794,-0.05819389969110489,0.03416268900036812
1782814594898048800,9.045048828125,-0.027122659608721733,-0.05495753511786461,0.019564753398299217
1782814594918130000,9.0651298828125,-0.027164055034518242,-0.030983269214630127,0.007502946071326733
1782814594938211800,9.0852119140625,-0.011805514805018902,-0.020872371271252632,-0.01944969780743122
1782814594958294000,9.1052939453125,0.017980847507715225,-0.028392527252435684,0.0018765218555927277
1782814594978376000,9.1253759765625,0.03304886072874069,-0.020078450441360474,0.08113930374383926
1782814594998457900,9.145457763671875,0.01466408558189869,-0.025487570092082024,0.14281976222991943
1782814595018538800,9.165538818359375,0.00506374379619956,-0.02768544666469097,0.13669562339782715
1782814595038620700,9.18562060546875,0.011150546371936798,-0.05702606216073036,0.09184844046831131
1782814595058702600,9.20570263671875,0.009099971503019333,-0.0929282084107399,0.07802462577819824
1782814595078784800,9.22578466796875,-0.0020073915366083384,-0.12332893908023834,0.048918500542640686
1782814595098865700,9.24586572265625,-0.00869293324649334,-0.09890089184045792,-0.021498005837202072
1782814595118947800,9.26594775390625,-0.004962879698723555,-0.032722048461437225,-0.04652300477027893
1782814595139029800,9.28602978515625,-0.019603192806243896,-0.03187315911054611,-0.045681435614824295
1782814595159111700,9.306111572265625,-0.040754105895757675,-0.05971396341919899,-0.06945251673460007
1782814595179819800,9.32681982421875,-0.058002278208732605,-0.0397263839840889,-0.08832336217164993
1782814595199901700,9.346901611328125,-0.05470191314816475,0.022093720734119415,-0.06345820426940918
1782814595219984000,9.36698388671875,-0.02874801494181156,0.04266434907913208,-0.022553961724042892
1782814595240064800,9.387064697265625,-0.01207331195473671,0.027800578624010086,0.001352424151264131
1782814595260147000,9.40714697265625,-0.01737315207719803,0.005604944657534361,0.01452911552041769
1782814595280228900,9.427228759765624,-0.01394779421389103,0.011656269431114197,0.02914206124842167
1782814595300310800,9.447310791015624,0.0012230804422870278,0.02291661687195301,0.02995293401181698
1782814595320392000,9.467391845703125,0.026548322290182114,0.015192532911896706,0.01477135345339775
1782814595340473900,9.487473876953125,0.04345927760004997,-0.012074904516339302,0.0022326591424643993
1782814595360555800,9.5075556640625,0.03050217032432556,-0.028130756691098213,0.02599061094224453
1782814595380638000,9.527637939453125,0.012956672348082066,-0.017667483538389206,0.03551776707172394
1782814595400718800,9.54771875,0.009872525930404663,0.014324026182293892,0.009020148776471615
1782814595420801000,9.567801025390626,0.01954915001988411,0.05140908807516098,-0.03400532528758049
1782814595440883000,9.587883056640624,0.0362406000494957,0.049307793378829956,-0.03197585046291351
1782814595460964900,9.60796484375,0.03369767218828201,0.013093100860714912,0.009338904172182083
1782814595481045800,9.628045654296875,0.03549066558480263,-0.01662382297217846,0.032004449516534805
1782814595500501000,9.6475009765625,0.03473707288503647,-0.004959766287356615,0.03136465325951576
1782814595520583000,9.6675830078125,0.030739042907953262,0.025802645832300186,0.005994530860334635
1782814595540664800,9.687664794921876,0.03250063583254814,0.026976004242897034,-0.0063112094067037106
1782814595560747000,9.7077470703125,0.03126297891139984,0.009267282672226429,0.002772772219032049
1782814595580827600,9.72782763671875,0.022609807550907135,0.0030344994738698006,0.010498493909835815
1782814595600909800,9.747909912109375,0.023073073476552963,0.005005467217415571,0.0031827175989747047
1782814595620991700,9.76799169921875,0.03212302550673485,0.0058085001073777676,-0.0021791092585772276
1782814595641073700,9.78807373046875,0.041367750614881516,-0.016868289560079575,0.004073241725564003
1782814595661155300,9.8081552734375,0.03521072864532471,-0.054820042103528976,0.004206714686006308
1782814595681237200,9.8282373046875,0.022641057148575783,-0.052722301334142685,-0.00009195436723530293
1782814595701319200,9.848319091796874,0.024901393800973892,-0.014693204313516617,0.002781778806820512
1782814595721401000,9.868401123046874,0.03216418996453285,-0.020845167338848114,0.014683324843645096
1782814595741482200,9.888482177734375,0.008244388736784458,-0.04597780108451843,0.026575163006782532
1782814595761564200,9.908564208984375,-0.020249100401997566,-0.030340539291501045,0.018375253304839134
1782814595781646300,9.928646240234375,-0.03458063304424286,0.004352193791419268,0.010813739150762558
1782814595801728300,9.948728271484375,-0.0382670983672142,0.047229401767253876,0.02196475863456726
1782814595821809400,9.968809326171876,-0.04401538893580437,0.07296721637248993,0.05873148515820503
1782814595841891300,9.988891357421876,-0.051904790103435516,0.029042795300483704,0.1021469235420227
1782814595861973200,10.00897314453125,-0.08352959156036377,-0.04667346179485321,0.13617615401744843
1782814595882055200,10.02905517578125,-0.14074008166790009,-0.08863180875778198,0.2036106139421463
1782814595902136300,10.04913623046875,-0.22517657279968262,-0.1425730288028717,0.2629656493663788
1782814595922218200,10.06921826171875,-0.2737331688404083,-0.22543959319591522,0.33290523290634155
1782814595942300400,10.089300537109375,-0.28180181980133057,-0.3933252692222595,0.4260859787464142
1782814595962382300,10.10938232421875,-0.2977351248264313,-0.42630431056022644,0.5111117959022522
1782814595982463200,10.129463134765626,-0.32233917713165283,-0.4143310785293579,0.5365121960639954
1782814596002545400,10.14954541015625,-0.2955830693244934,-0.3975009322166443,0.5049324035644531
1782814596022627300,10.16962744140625,-0.2183263897895813,-0.36096927523612976,0.45004338026046753
1782814596042709200,10.189709228515625,-0.1390877515077591,-0.2750973701477051,0.3718661069869995
1782814596062790400,10.209790283203125,-0.09634940326213837,-0.2051926702260971,0.24359261989593506
1782814596082872300,10.229872314453125,-0.07679247856140137,-0.13374246656894684,0.10299582034349442
1782814596102954500,10.24995458984375,-0.07317948341369629,-0.05049731582403183,-0.023501042276620865
1782814596123036400,10.270036376953126,-0.05659480020403862,0.04708174616098404,-0.1076805517077446
1782814596143118300,10.290118408203124,-0.06672247499227524,0.10325315594673157,-0.13498377799987793
1782814596163199500,10.310199462890624,-0.08824664354324341,0.13582220673561096,-0.10973263531923294
1782814596183281400,10.330281494140625,-0.07023420184850693,0.1540861278772354,-0.07884591072797775
1782814596203363300,10.35036328125,-0.055830471217632294,0.155551940202713,-0.04237283393740654
1782814596223444200,10.3704443359375,-0.022846421226859093,0.2732948958873749,0.11368805915117264
1782814596243526100,10.390526123046875,-0.03926427289843559,-0.01787213236093521,0.1743454486131668
1782814596263608300,10.4106083984375,-0.024959135800600052,-0.14995330572128296,0.17058859765529633
1782814596283690200,10.430690185546876,-0.01445657480508089,-0.07847419381141663,0.056160278618335724
1782814596303771100,10.450771240234374,-0.012952511198818684,0.015098423697054386,-0.12858867645263672
1782814596323853300,10.470853271484375,-0.01581227220594883,0.04101886227726936,-0.29945677518844604
