time,seconds_elapsed,z,y,x
1782814241381660700,0.07066064453125,0.3017826974391937,-0.6137388944625854,0.4232611656188965
1782814241401741600,0.090741455078125,0.27891334891319275,-0.6897317171096802,0.061975907534360886
1782814241421823500,0.110823486328125,0.2903457283973694,-0.514851450920105,-0.3153211772441864
1782814241441905400,0.130905517578125,0.2505280077457428,-0.23019039630889893,-0.597676694393158
1782814241461986600,0.150986572265625,0.1274048089981079,0.04045945033431053,-0.7121086716651917
1782814241482068500,0.171068359375,-0.0354265421628952,0.2316340059041977,-0.6645135283470154
1782814241502149600,0.191149658203125,-0.14798283576965332,0.3473707437515259,-0.585716187953949
1782814241522231600,0.2112314453125,-0.12328571081161499,0.36132195591926575,-0.6148886680603027
1782814241542312700,0.231312744140625,-0.025105677545070648,0.3110874891281128,-0.6651574373245239
1782814241562394600,0.25139453125,0.10859841108322144,0.24499507248401642,-0.6082835793495178
1782814241582475800,0.271475830078125,0.23417003452777863,0.16700460016727448,-0.4170915484428406
1782814241602557700,0.2915576171875,0.3164573311805725,0.11100646108388901,-0.14964962005615234
1782814241622638600,0.311638671875,0.35389620065689087,0.03366933763027191,0.02424631454050541
1782814241642720800,0.331720703125,0.3708292543888092,-0.06936722248792648,0.021171433851122856
1782814241662801400,0.351801513671875,0.3424941599369049,-0.1430821269750595,-0.05730852484703064
1782814241682883600,0.371883544921875,0.2428889125585556,-0.08699490875005722,-0.09957730025053024
1782814241702964500,0.391964599609375,0.1010281890630722,0.04761465638875961,-0.11182855814695358
1782814241723046700,0.412046630859375,-0.009310037828981876,0.20947910845279694,-0.11615227907896042
1782814241743127600,0.43212744140625,-0.04430597648024559,0.30416494607925415,-0.11090973019599915
1782814241763209500,0.45220947265625,-0.04258192330598831,0.32176288962364197,-0.06744525581598282
1782814241783290600,0.47229052734375,-0.029954034835100174,0.26326659321784973,-0.019971370697021484
1782814241803372500,0.49237255859375,-0.007461242377758026,0.15151715278625488,0.019212516024708748
1782814241823453700,0.51245361328125,0.007429530844092369,0.09641468524932861,0.03177521005272865
1782814241843535600,0.53253564453125,0.033520203083753586,0.12101416289806366,0.01800406537950039
1782814241863617500,0.552617431640625,0.055014658719301224,0.1698126345872879,0.00081437430344522
1782814241883698700,0.57269873046875,0.06980869919061661,0.22655948996543884,0.009836416691541672
1782814241903780600,0.592780517578125,0.08500836789608002,0.24032123386859894,0.03688300773501396
1782814241923861500,0.612861572265625,0.09667883813381195,0.1623487025499344,0.02618420496582985
1782814241943943400,0.632943359375,0.08570075780153275,0.03852689266204834,-0.032510265707969666
1782814241964024600,0.653024658203125,0.048769015818834305,-0.0575273223221302,-0.1049480065703392
1782814241984106500,0.6731064453125,-0.01269999798387289,-0.07316216826438904,-0.1676478534936905
1782814242004187600,0.693187744140625,-0.05204683542251587,-0.04230237007141113,-0.17689061164855957
1782814242024269600,0.71326953125,-0.07382103055715561,0.0024365559220314026,-0.13105396926403046
1782814242044350700,0.733350830078125,-0.07678868621587753,0.021753327921032906,-0.09799382090568542
1782814242064432600,0.7534326171875,-0.062186628580093384,0.009200375527143478,-0.07973726093769073
1782814242084513800,0.773513671875,-0.0658469945192337,-0.04483988136053085,-0.06546936929225922
1782814242104595700,0.793595703125,-0.08442575484514236,-0.06371013820171356,-0.0339677557349205
1782814242124676600,0.813676513671875,-0.11142387241125107,-0.022395504638552666,-0.012907000258564949
1782814242144758800,0.8337587890625,-0.12480880320072174,0.0295912716537714,-0.02259337529540062
1782814242164839400,0.85383935546875,-0.09206253290176392,0.07676248252391815,-0.02318800985813141
1782814242184921600,0.873921630859375,-0.0464133620262146,0.10121150314807892,0.01106919813901186
1782814242205002500,0.89400244140625,-0.026822121813893318,0.06535286456346512,0.0564725436270237
1782814242225084400,0.91408447265625,-0.03182318061590195,0.006629481911659241,0.08727895468473434
1782814242245166600,0.93416650390625,-0.013351875357329845,-0.03224398195743561,0.09551965445280075
1782814242265247500,0.95424755859375,0.01288990955799818,-0.05593071132898331,0.07719868421554565
1782814242285329700,0.97432958984375,0.03171825408935547,-0.08365070819854736,0.06501957029104233
1782814242305410800,0.994410888671875,0.026613114401698112,-0.08176980912685394,0.05757538974285126
1782814242325492700,1.01449267578125,0.01138259842991829,-0.03321290761232376,0.0557083934545517
1782814242345574000,1.034573974609375,0.0032349105458706617,0.017052223905920982,0.04730360582470894
1782814242365655800,1.05465576171875,-0.0005011223256587982,-0.0017862555105239153,0.036377981305122375
1782814242385737000,1.074737060546875,0.00020982592832297087,-0.03448899835348129,0.025367947295308113
1782814242405819000,1.09481884765625,0.016598336398601532,0.016009187325835228,0.03610241040587425
1782814242425899800,1.114899658203125,0.0388997457921505,0.08093626797199249,0.04011433944106102
1782814242445981700,1.134981689453125,0.04664088785648346,0.12536242604255676,0.02433415874838829
1782814242466062800,1.155062744140625,0.025465913116931915,0.10608915984630585,-0.0039028567261993885
1782814242486144800,1.175144775390625,0.0017564649460837245,0.09165934473276138,-0.032780081033706665
1782814242506226000,1.195225830078125,-0.004167573526501656,0.07361295074224472,-0.05562881380319595
1782814242526307800,1.215307861328125,-0.008751306682825089,0.03677816689014435,-0.05955717712640762
1782814242546389000,1.235388916015625,-0.008553833700716496,-0.01777011714875698,-0.06335145980119705
1782814242566471000,1.255470947265625,-0.006806743796914816,-0.031765155494213104,-0.04710627347230911
1782814242586551800,1.2755517578125,0.011785290203988552,-0.032196395099163055,-0.008367904461920261
1782814242606634000,1.295634033203125,0.03884022310376167,-0.012834066525101662,0.02716616354882717
1782814242626715000,1.31571484375,0.05957486853003502,-0.024951588362455368,0.04990033805370331
1782814242646797000,1.335797119140625,0.04376521706581116,-0.031781576573848724,0.05814382806420326
1782814242666877700,1.355877685546875,0.012449890375137329,-0.028626699000597,0.08659639209508896
1782814242686959600,1.375959716796875,-0.008405868895351887,-0.028120867908000946,0.11877231299877167
1782814242707040800,1.396040771484375,-0.01953817531466484,-0.038284093141555786,0.0962396040558815
1782814242727122700,1.416122802734375,-0.039047155529260635,-0.05481904000043869,0.05364695191383362
1782814242747203800,1.436203857421875,-0.08422323316335678,-0.05916375666856766,0.015520353801548481
1782814242767285800,1.45628564453125,-0.12200409173965454,-0.039982572197914124,0.006049074232578278
1782814242787368000,1.476367919921875,-0.11892352998256683,-0.0022319655399769545,0.02532258629798889
1782814242807448800,1.49644873046875,-0.095396026968956,0.03443678095936775,0.0712023675441742
1782814242827530800,1.51653076171875,-0.08027440309524536,0.012799447402358055,0.06593712419271469
1782814242847612000,1.53661181640625,-0.07448684424161911,-0.017391815781593323,0.03691961616277695
1782814242867693800,1.55669384765625,-0.08126051723957062,-0.03524569794535637,0.027820834890007973
1782814242887775000,1.57677490234375,-0.06641006469726562,-0.014824405312538147,0.031343817710876465
1782814242907857000,1.59685693359375,-0.02539731375873089,0.010911185294389725,0.020350424572825432
1782814242927937800,1.616937744140625,0.005910399369895458,0.017774421721696854,0.014367667026817799
1782814242948019700,1.637019775390625,0.009235270321369171,0.0016135317273437977,0.02469625696539879
1782814242968100900,1.657100830078125,0.01076028123497963,-0.02454959973692894,0.02332201413810253
1782814242988182800,1.677182861328125,0.030526425689458847,-0.02899336814880371,0.008547451347112656
1782814243008264000,1.697263916015625,0.0420834943652153,-0.05228041484951973,-0.015607302077114582
1782814243028345900,1.717345947265625,0.030548470094799995,-0.04501650109887123,-0.02134411409497261
1782814243048426800,1.7374267578125,0.016451707109808922,-0.012500646524131298,-0.015336628071963787
1782814243068509000,1.757509033203125,0.013201232999563217,0.016353338956832886,-0.024499714374542236
1782814243088589800,1.77758984375,0.014981924556195736,0.022703399881720543,-0.04066602140665054
1782814243108672000,1.797672119140625,0.0007169818272814155,0.04337023198604584,-0.04761515557765961
1782814243128753000,1.8177529296875,-0.013324792496860027,0.042970042675733566,-0.06127313897013664
1782814243148834800,1.837834716796875,-0.02588396891951561,-0.020022433251142502,-0.08884754031896591
1782814243168915700,1.857915771484375,-0.05093907192349434,-0.07658907026052475,-0.10491354018449783
1782814243188997600,1.87799755859375,-0.06334146112203598,-0.060558050870895386,-0.09485525637865067
1782814243209078800,1.898078857421875,-0.06742680072784424,-0.056514449417591095,-0.06673886626958847
1782814243229160700,1.91816064453125,-0.057537853717803955,-0.07358022779226303,-0.05080423131585121
1782814243249241900,1.938241943359375,-0.05048651248216629,-0.06275489926338196,-0.04135078191757202
1782814243269323800,1.95832373046875,-0.0608951635658741,-0.046161483973264694,-0.044851645827293396
1782814243289405000,1.978405029296875,-0.06906938552856445,-0.008031106553971767,-0.02854379639029503
1782814243309486600,1.998486572265625,-0.046760864555835724,0.02359072118997574,0.0339927114546299
1782814243329567700,2.018567626953125,-0.00846294779330492,0.021256770938634872,0.09503721445798874
1782814243349649700,2.038649658203125,0.01504830177873373,-0.008347413502633572,0.09750069677829742
1782814243369730800,2.058730712890625,0.016089215874671936,-0.019802924245595932,0.05278436094522476
1782814243389812700,2.078812744140625,0.0070219640620052814,-0.0005598182324320078,-0.008511636406183243
1782814243409893600,2.0988935546875,0.00004751092637889087,0.040244005620479584,-0.025744354352355003
1782814243429975800,2.118975830078125,0.0006082348409108818,0.0648980438709259,-0.0022122822701931
1782814243450056700,2.139056640625,0.01412911619991064,0.037344347685575485,0.0193296130746603
1782814243470139000,2.159138916015625,0.03696926310658455,-0.0012981698382645845,0.03364561125636101
1782814243490219500,2.179219482421875,0.034988883882761,-0.026502469554543495,0.03421026095747948
1782814243510302000,2.199302001953125,0.012035150080919266,-0.02346312627196312,0.022807076573371887
1782814243530384000,2.2193837890625,0.007288585416972637,0.0032799015752971172,0.013760732486844063
1782814243550464500,2.239464599609375,0.011826813220977783,0.00453713396564126,0.007214626297354698
1782814243570546700,2.259546630859375,0.008766385726630688,-0.013943390920758247,0.0013113716850057244
1782814243590627600,2.279627685546875,-0.018731549382209778,-0.034091003239154816,-0.01375892385840416
1782814243610709800,2.299709716796875,-0.030119799077510834,0.004597295541316271,-0.01771087571978569
1782814243630790700,2.319790771484375,-0.026453614234924316,0.024819158017635345,0.0033069655764847994
1782814243650872800,2.339872802734375,-0.027345849201083183,0.012915946543216705,0.011937829665839672
1782814243670953700,2.35995361328125,-0.01672162488102913,0.0028866957873106003,0.006107279099524021
1782814243691035600,2.38003564453125,0.0019514691084623337,-0.0003965867217630148,0.0025115760508924723
1782814243711116800,2.40011669921875,-0.006793463137000799,0.012323853559792042,-0.010929904878139496
1782814243731198700,2.42019873046875,-0.01958879828453064,-0.000393155962228775,-0.041843585669994354
1782814243751279600,2.440279541015625,-0.016260530799627304,-0.0013195665087550879,-0.05756111443042755
1782814243771361800,2.46036181640625,-0.00930123683065176,0.006583681795746088,-0.03204580768942833
1782814243791442700,2.480442626953125,-0.004633828531950712,0.03009933792054653,0.009356899186968803
1782814243811524600,2.500524658203125,-0.003314283676445484,0.03840452805161476,0.02645125985145569
1782814243831605800,2.520605712890625,-0.005936861969530582,0.025295937433838844,0.013440528884530067
1782814243851687700,2.540687744140625,-0.004506503697484732,0.017099719494581223,0.000029945746064186096
1782814243871768800,2.560768798828125,-0.006288682110607624,0.002181574236601591,-0.0047149681486189365
1782814243891850800,2.580850830078125,-0.006735608447343111,0.008848208002746105,-0.015163742005825043
1782814243911931600,2.600931640625,-0.01335716713219881,0.022890262305736542,-0.03465857729315758
1782814243932013800,2.621013916015625,-0.016699975356459618,0.03092467226088047,-0.03224153071641922
1782814243952094700,2.6410947265625,-0.010423827916383743,0.02085312455892563,-0.014483343809843063
1782814243972177000,2.661177001953125,-0.006541180890053511,0.0069871824234724045,0.004891388583928347
1782814243992257500,2.681257568359375,-0.0012081272434443235,0.026783648878335953,0.010236982256174088
1782814244012339700,2.701339599609375,0.005703913979232311,0.004716027062386274,-0.01318781916052103
1782814244032420600,2.721420654296875,0.009741270914673805,-0.016428319737315178,-0.0293363519012928
1782814244052502500,2.74150244140625,0.0016022936906665564,-0.011490138247609138,-0.030693789944052696
1782814244072583700,2.761583740234375,-0.003977561369538307,0.006709904409945011,-0.025408746674656868
1782814244092665600,2.78166552734375,0.00018846013699658215,0.001529232133179903,-0.019038379192352295
1782814244112746800,2.801746826171875,0.004576451610773802,-0.00795980915427208,-0.013886827044188976
1782814244132828700,2.82182861328125,0.0015317199286073446,0.015286880545318127,-0.0008938177488744259
1782814244152909800,2.841909912109375,-0.0030272335279732943,-0.002344740554690361,-0.01220967061817646
1782814244172991700,2.86199169921875,0.010249788872897625,-0.013588139787316322,-0.020123986527323723
1782814244193073000,2.882072998046875,0.022498542442917824,-0.013481930829584599,0.0016906718956306577
1782814244213154800,2.90215478515625,0.006104389205574989,-0.020720401778817177,-0.00019937357865273952
1782814244233235700,2.922235595703125,-0.010696514509618282,-0.01757870241999626,-0.01072653103619814
1782814244253317600,2.942317626953125,-0.011317349039018154,0.02293395809829235,-0.007373549975454807
1782814244273398500,2.9623984375,0.004146055318415165,0.02966650016605854,0.001251066685654223
1782814244293480700,2.982480712890625,0.022979144006967545,0.02731243520975113,0.02119799330830574
1782814244313561900,3.002561767578125,0.03344246372580528,0.018967490643262863,0.03978176787495613
1782814244333644000,3.02264404296875,0.03050987794995308,0.017910782247781754,0.05823449045419693
1782814244353725000,3.042724853515625,0.027503235265612602,-0.011407293379306793,0.04003644734621048
1782814244373806800,3.062806884765625,0.029371263459324837,-0.014415303245186806,0.002348406706005335
1782814244393889000,3.082888916015625,0.023228012025356293,0.0011307261884212494,-0.015145251527428627
1782814244413970000,3.102969970703125,0.014604314230382442,0.0128705482929945,-0.008991481736302376
1782814244434052000,3.123052001953125,0.015123970806598663,0.01175161637365818,-0.004886121954768896
1782814244454132700,3.1431328125,0.01280740275979042,0.0035796305164694786,-0.015243425965309143
1782814244474215000,3.16321484375,0.006259110290557146,0.01395413838326931,-0.004623190499842167
1782814244494295800,3.1832958984375,-0.00119105726480484,0.021161522716283798,0.004044037312269211
1782814244514377700,3.203377685546875,0.004637992475181818,0.035049159079790115,0.011985940858721733
1782814244534459000,3.223458984375,0.019193803891539574,0.017293840646743774,-0.004153260961174965
1782814244554540800,3.243540771484375,0.014532146975398064,-0.0012454469688236713,-0.021719980984926224
1782814244574622000,3.2636220703125,-0.0024838712997734547,-0.0005753878504037857,-0.022214727476239204
1782814244594704000,3.283703857421875,-0.019687654450535774,-0.009377824142575264,-0.0030690431594848633
1782814244614785000,3.303784912109375,-0.0039864396676421165,0.017664432525634766,0.023037321865558624
1782814244634867000,3.323866943359375,0.001043511088937521,0.021267663687467575,0.036196619272232056
1782814244654948000,3.343947998046875,0.00015562603948637843,0.04073553904891014,0.033665403723716736
1782814244675030000,3.364030029296875,0.007634770590811968,0.030102655291557312,0.016911283135414124
1782814244695111000,3.38411083984375,0.03040875308215618,0.03393656760454178,0.011355842463672161
1782814244715192800,3.40419287109375,0.02650977484881878,-0.00011604372411966324,0.009060279466211796
1782814244735273700,3.424273681640625,-0.005399942863732576,-0.02306246943771839,-0.006747061386704445
1782814244755356000,3.44435595703125,-0.007055036723613739,-0.004041148349642754,-0.024596121162176132
1782814244775436800,3.464436767578125,0.004577891435474157,0.02022603526711464,-0.007503923028707504
1782814244795519000,3.48451904296875,0.004756258800625801,0.023042283952236176,0.03355397656559944
1782814244815599900,3.504599853515625,0.0016481222119182348,0.014893516898155212,0.04530685767531395
1782814244835681800,3.524681884765625,0.004195233341306448,0.002055794931948185,0.030863260850310326
1782814244855763000,3.544762939453125,0.0016106229741126299,-0.00230396818369627,0.020834211260080338
1782814244875844900,3.564844970703125,-0.014660492539405823,-0.007585815619677305,0.0054113129153847694
1782814244895925800,3.58492578125,-0.01499173417687416,0.017904061824083328,-0.009515688754618168
1782814244916008000,3.605008056640625,-0.010947156697511673,0.029288429766893387,-0.00968452263623476
1782814244936088800,3.6250888671875,0.008076271042227745,0.006261628121137619,-0.0024040299467742443
1782814244956170800,3.645170654296875,0.026958512142300606,-0.014234345406293869,0.009601356461644173
1782814244976252000,3.665251953125,0.04202821105718613,-0.02536880224943161,0.017757229506969452
1782814244996333800,3.685333740234375,0.07869596034288406,-0.0652557760477066,0.028382906690239906
1782814245016415000,3.7054150390625,0.057030998170375824,-0.04681692272424698,0.06634759157896042
1782814245036497000,3.725496826171875,0.05278657376766205,-0.04105490446090698,0.06147218123078346
1782814245056578000,3.745578125,0.05799390748143196,-0.032040759921073914,0.024503182619810104
1782814245076660000,3.765659912109375,0.060589779168367386,-0.0238341111689806,0.00835353322327137
1782814245096740900,3.785740966796875,0.041085079312324524,-0.01722140982747078,0.018649548292160034
1782814245116823000,3.805822998046875,0.012141204439103603,0.0017204834148287773,0.042234815657138824
1782814245136903700,3.825903564453125,-0.005027735605835915,0.013112558051943779,0.03467001020908356
1782814245156985900,3.84598583984375,-0.0005871424218639731,0.016820453107357025,0.014604243449866772
1782814245177066800,3.866066650390625,0.0019420066382735968,0.007910618558526039,0.01980964094400406
1782814245197148700,3.886148681640625,-0.014405576512217522,-0.002906232140958309,0.03307323902845383
1782814245217229800,3.906229736328125,-0.026739487424492836,0.0015346859581768513,0.023980291560292244
1782814245237311700,3.926311767578125,-0.011608397588133812,0.003083710093051195,0.011286696419119835
1782814245257394000,3.946393798828125,0.0022964254021644592,-0.0035447608679533005,0.003913372289389372
1782814245277474800,3.966474853515625,-0.009359633550047874,-0.022483520209789276,-0.022913658991456032
1782814245297557000,3.986556884765625,-0.0176149383187294,0.0008386075496673584,-0.03047073259949684
1782814245317638100,4.00663818359375,-0.005451165605336428,0.0034180223010480404,-0.01304306648671627
1782814245337720000,4.026719970703125,0.01735760271549225,0.011250117793679237,0.024751219898462296
1782814245357801200,4.04680126953125,0.029629435390233994,0.015424453653395176,0.03933856636285782
1782814245377883100,4.066883056640625,0.028839606791734695,0.014100110158324242,0.029429534450173378
1782814245397964300,4.08696435546875,0.029295513406395912,0.009128183126449585,0.02145286276936531
1782814245418046200,4.107046142578125,0.033772606402635574,-0.00751589797437191,0.015206092037260532
1782814245438127400,4.12712744140625,0.03755774348974228,0.008625619113445282,0.00987778790295124
1782814245458209300,4.147209228515625,0.02762761525809765,0.01865242049098015,-0.0007413008715957403
1782814245478290400,4.16729052734375,0.020486218854784966,0.017557770013809204,-0.012181023135781288
1782814245498372400,4.187372314453125,0.012080561369657516,0.0006176168099045753,-0.010826630517840385
1782814245518453200,4.207453369140625,0.007938319817185402,0.010818828828632832,0.004464794881641865
1782814245538535200,4.22753515625,0.011373110115528107,0.011873811483383179,0.0025008972734212875
1782814245558616000,4.247615966796875,0.01459635142236948,0.004192444030195475,-0.00575550552457571
1782814245578698200,4.2676982421875,0.013011972419917583,0.01014749240130186,0.0062105534598231316
1782814245598779100,4.287779052734375,0.011804340407252312,0.011012056842446327,0.027977818623185158
1782814245618861300,4.307861328125,0.013332895003259182,0.0037608682177960873,0.03179406374692917
1782814245638942200,4.327942138671875,0.015063048340380192,0.0038950718007981777,0.01766904443502426
1782814245659024100,4.348024169921875,0.00923092756420374,-0.0023125361185520887,-0.004008343908935785
1782814245679105300,4.368105224609375,0.004370929207652807,0.006500749383121729,-0.010914642363786697
1782814245699187200,4.388187255859375,0.0023249599616974592,0.011849083006381989,-0.020792420953512192
1782814245719268400,4.408268310546875,0.0009967386722564697,0.02089502103626728,-0.022442657500505447
1782814245739350300,4.428350341796875,0.006182269658893347,0.011814292520284653,-0.014787108637392521
1782814245759431200,4.44843115234375,0.014464979991316795,0.006979759316891432,-0.002916750032454729
1782814245779513000,4.46851318359375,0.019820811226963997,0.0023518414236605167,-0.0016082772053778172
1782814245799594200,4.48859423828125,0.0158140379935503,0.00017438502982258797,-0.010446637868881226
1782814245819676200,4.50867626953125,0.015080560930073261,0.00892520509660244,-0.0028759678825736046
1782814245839757300,4.52875732421875,0.023983877152204514,0.021283091977238655,0.03215513005852699
1782814245859839200,4.548839111328125,0.016276590526103973,0.01990710198879242,0.06659453362226486
1782814245879920000,4.568920166015625,0.0019008468370884657,0.01346917636692524,0.07530466467142105
1782814245900002300,4.589002197265625,0.003482597414404154,0.023814426735043526,0.07309803366661072
1782814245920084200,4.609084228515625,-0.0014707664959132671,0.015661612153053284,0.0761241763830185
1782814245940165400,4.629165283203125,-0.02560948207974434,0.0141456238925457,0.06268744170665741
1782814245960247300,4.649247314453125,-0.047940656542778015,0.061605848371982574,0.033015746623277664
1782814245980328400,4.669328369140625,-0.0435025617480278,0.06612659990787506,0.0015662320656701922
1782814246000410400,4.689410400390625,-0.018982764333486557,0.029890693724155426,-0.0004113351460546255
1782814246020491000,4.709490966796875,0.008638705126941204,-0.006208695005625486,0.028580548241734505
1782814246040573200,4.7295732421875,0.007030765060335398,-0.001323177944868803,0.06291606277227402
1782814246060654000,4.749654052734375,0.00029871499282307923,0.01568632945418358,0.05005946755409241
1782814246080736300,4.769736328125,-0.0018278358038514853,0.006753832101821899,0.007302750833332539
1782814246100817200,4.789817138671875,-0.00009339238749817014,-0.005402029491961002,-0.0228137020021677
1782814246120899300,4.8098994140625,-0.012502124533057213,0.012501603923738003,-0.03110891580581665
1782814246140980200,4.829980224609375,-0.023775145411491394,0.032399408519268036,-0.03912559896707535
1782814246161062100,4.850062255859375,-0.021280501037836075,0.02612522430717945,-0.05274183303117752
1782814246181143300,4.870143310546875,-0.00841868668794632,0.0071128667332232,-0.056956905871629715
1782814246201225200,4.89022509765625,-0.006908052135258913,0.0002582743763923645,-0.04796312004327774
1782814246221306400,4.910306396484375,-0.0020151808857917786,0.016294866800308228,-0.04493971914052963
1782814246241388300,4.93038818359375,0.014899238012731075,0.0005314275622367859,-0.045843854546546936
1782814246261469200,4.95046923828125,0.0313575342297554,-0.007677207700908184,-0.012346701696515083
1782814246281551000,4.970551025390625,0.026261374354362488,-0.02069229632616043,0.016954250633716583
1782814246301632300,4.99063232421875,0.00878694374114275,-0.016261262819170952,0.01774381287395954
1782814246321713700,5.010713623046875,-0.006723563186824322,-0.011807043105363846,-0.005224579479545355
1782814246341794800,5.030794921875,-0.019463615491986275,-0.015876872465014458,-0.026452528312802315
1782814246361876700,5.050876708984375,-0.02420637756586075,-0.013862496241927147,-0.024642664939165115
1782814246381957600,5.07095751953125,-0.031644292175769806,-0.01216910034418106,-0.018928539007902145
1782814246402039600,5.09103955078125,-0.035964082926511765,-0.0013382863253355026,-0.01586746610701084
1782814246422120400,5.111120361328125,-0.02670416608452797,0.0020527373999357224,-0.0015512341633439064
1782814246442202600,5.13120263671875,-0.016435157507658005,-0.04837048053741455,0.006412452086806297
1782814246462283500,5.151283447265625,-0.013175664469599724,-0.0838223397731781,0.004117811098694801
1782814246482365700,5.17136572265625,-0.012530303560197353,-0.03754730522632599,0.006302576046437025
1782814246502446600,5.191446533203125,-0.034722212702035904,0.002702683210372925,-0.008544296957552433
1782814246522528800,5.21152880859375,-0.028386320918798447,0.011529840528964996,-0.022335752844810486
1782814246542609700,5.231609619140625,-0.013330012559890747,0.0074675483629107475,-0.009105853736400604
1782814246562691600,5.251691650390625,0.0038273646496236324,-0.04807770997285843,-0.005517864599823952
1782814246582773800,5.271773681640625,0.008323730900883675,-0.133540078997612,-0.017864007502794266
1782814246602854700,5.291854736328125,0.013913516886532307,-0.1353449523448944,-0.012388640083372593
1782814246622936800,5.311936767578125,0.030914539471268654,-0.090188167989254,-0.021900709718465805
1782814246643017500,5.332017578125,0.04008464142680168,-0.012385806068778038,0.0035650567151606083
1782814246663099600,5.352099609375,0.026617541909217834,0.007142816204577684,0.04787742719054222
1782814246683180500,5.3721806640625,0.019704345613718033,-0.00988088734447956,0.06351351737976074
1782814246703262500,5.392262451171875,0.015464996919035912,-0.013376113027334213,0.03396057337522507
1782814246723343600,5.412343505859375,0.010170456022024155,-0.010458234697580338,-0.005030208732932806
1782814246743425500,5.432425537109375,0.0031463943887501955,-0.012609465047717094,-0.012837562710046768
1782814246763506700,5.452506591796875,0.007129989564418793,0.0016184481792151928,-0.0033520939759910107
1782814246783588600,5.472588623046875,0.00453835166990757,-0.0007447649259120226,0.0006591635756194592
1782814246803669800,5.492669677734375,-0.011769098229706287,0.00595582602545619,-0.003846101462841034
1782814246823751700,5.512751708984375,-0.017254235222935677,0.015347080305218697,-0.013416996225714684
1782814246843832800,5.532832763671875,-0.024861562997102737,0.013226054608821869,-0.023885389789938927
1782814246863914800,5.552914794921875,-0.020000118762254715,-0.003727259114384651,-0.026836253702640533
1782814246883995600,5.57299560546875,-0.01505936961621046,-0.04355815052986145,-0.026868805289268494
1782814246904077600,5.59307763671875,-0.011798419058322906,-0.04824063926935196,-0.026631543412804604
1782814246924158500,5.613158447265625,-0.006145958788692951,-0.02653367817401886,-0.029872409999370575
1782814246944240600,5.63324072265625,-0.0016039888141676784,-0.021133996546268463,-0.040201421827077866
1782814246964321500,5.653321533203125,0.016694676131010056,-0.005762200336903334,-0.013146419078111649
1782814246984403700,5.67340380859375,0.0344277024269104,-0.02969076856970787,0.014699660241603851
1782814247004485600,5.693485595703125,0.0406499020755291,-0.07969969511032104,0.016718029975891113
1782814247024566500,5.71356640625,0.04659666121006012,-0.09267482906579971,0.0030856665689498186
1782814247044648700,5.733648681640625,0.05847378075122833,-0.11540043354034424,-0.003216032637283206
1782814247064729600,5.7537294921875,0.07409340888261795,-0.15213549137115479,-0.003084912896156311
1782814247084811800,5.773811767578125,0.07038383185863495,-0.2162363976240158,-0.03905065357685089
1782814247104892700,5.793892578125,0.056135039776563644,-0.2324545681476593,-0.09572853147983551
1782814247124974800,5.813974853515625,0.0408826619386673,-0.20832425355911255,-0.15851236879825592
1782814247145055500,5.834055419921875,0.036445289850234985,-0.15545853972434998,-0.19042915105819702
1782814247165137400,5.854137451171875,0.04907733201980591,-0.12155845016241074,-0.19678249955177307
1782814247185218600,5.874218505859375,0.042532529681921005,-0.1539561003446579,-0.21245115995407104
1782814247205300500,5.894300537109375,0.04703015089035034,-0.16740725934505463,-0.23435121774673462
1782814247225381600,5.914381591796875,0.04026631638407707,-0.19140955805778503,-0.24625131487846375
1782814247245463600,5.934463623046875,0.01238725520670414,-0.17448312044143677,-0.2358124852180481
1782814247265544700,5.954544677734375,-0.012274226173758507,-0.11678754538297653,-0.20718342065811157
1782814247285626600,5.974626708984375,-0.019709007814526558,-0.05517785996198654,-0.1710624396800995
1782814247305707800,5.994707763671875,-0.025659244507551193,0.034209854900836945,-0.11943461000919342
1782814247325789700,6.014789794921875,-0.030323391780257225,0.0689367800951004,-0.06468648463487625
1782814247345871600,6.03487158203125,-0.03806207701563835,0.050453782081604004,-0.008266717195510864
1782814247365952800,6.054952880859375,-0.04782282933592796,0.04803749546408653,0.046552322804927826
1782814247386034700,6.07503466796875,-0.055515438318252563,0.0333593524992466,0.06473811715841293
1782814247406115800,6.09511572265625,-0.05343662202358246,0.0458601713180542,0.05135294049978256
1782814247426197800,6.11519775390625,-0.05160418152809143,0.05285821110010147,0.025727298110723495
1782814247446279000,6.13527880859375,-0.0502905547618866,0.06961045414209366,0.023349177092313766
1782814247466360800,6.15536083984375,-0.07179538160562515,0.07857433706521988,0.023340066894888878
1782814247486441700,6.175441650390625,-0.06695549190044403,0.07841669023036957,0.008543578907847404
1782814247506524000,6.19552392578125,-0.055701907724142075,0.053052037954330444,-0.008461389690637589
1782814247526604500,6.2156044921875,-0.04823479428887367,0.020071977749466896,0.00043113576248288155
1782814247546686700,6.235686767578125,-0.04801495000720024,0.0033043567091226578,0.012769448570907116
1782814247566767600,6.255767578125,-0.04088326916098595,0.01805241033434868,0.016891222447156906
1782814247586849800,6.275849853515625,-0.03361770510673523,0.04247000813484192,0.008036382496356964
1782814247606930700,6.2959306640625,-0.03399248048663139,0.04051804542541504,-0.0023998823016881943
1782814247627012600,6.3160126953125,-0.032808512449264526,0.037697359919548035,-0.005397366359829903
1782814247647093800,6.33609375,-0.0385301373898983,0.01721780188381672,-0.001180543564260006
1782814247667175700,6.35617578125,-0.0329996757209301,0.00017409725114703178,0.003815245348960161
1782814247687256800,6.3762568359375,-0.03599947690963745,0.0007368354126811028,0.004192685708403587
1782814247707338800,6.3963388671875,-0.04135279729962349,0.002763299737125635,-0.007199051324278116
1782814247727421000,6.4164208984375,-0.03467407450079918,0.022384198382496834,-0.0242902934551239
1782814247747501800,6.436501708984375,-0.03078656829893589,0.034244436770677567,-0.035022806376218796
1782814247767583700,6.456583740234375,-0.04512782767415047,-0.008889095857739449,-0.05882442742586136
1782814247787664600,6.47666455078125,-0.04391658306121826,-0.0333704948425293,-0.07220352441072464
1782814247807746600,6.49674658203125,-0.013472198508679867,-0.04965398833155632,-0.05909847840666771
1782814247827827700,6.51682763671875,0.012738602235913277,-0.031847987323999405,-0.0033641562331467867
1782814247847909600,6.53690966796875,0.01487831212580204,0.011529854498803616,0.06534010916948318
1782814247867990800,6.55699072265625,-0.000313700147671625,0.009618420153856277,0.07719646394252777
1782814247888072700,6.57707275390625,-0.013695796020328999,0.003740010317414999,0.028822695836424828
1782814247908153900,6.59715380859375,-0.02202615886926651,-0.004801993723958731,-0.02741866186261177
1782814247928235800,6.61723583984375,-0.01473162043839693,-0.004231815226376057,-0.03484172374010086
1782814247948317000,6.63731689453125,-0.0019223393173888326,0.015910552814602852,0.01375141553580761
1782814247968398800,6.65739892578125,-0.0008532179053872824,0.023800792172551155,0.0565732978284359
1782814247988479700,6.677479736328125,-0.004011425655335188,0.011917655356228352,0.045790962874889374
1782814248008562000,6.69756201171875,-0.0017132041975855827,-0.00021600397303700447,0.004987660795450211
1782814248028642600,6.717642578125,0.0017679035663604736,0.004640121478587389,-0.003426570910960436
1782814248048724700,6.737724853515625,-0.002382443519309163,0.0006755245849490166,0.012653953395783901
1782814248068805600,6.7578056640625,0.005552117712795734,0.02363814041018486,0.03018130362033844
1782814248088887800,6.7778876953125,0.013978051021695137,0.030074939131736755,0.03522303327918053
1782814248108968700,6.79796875,0.008805938996374607,-0.0003722801338881254,0.026063743978738785
1782814248129050600,6.818050537109375,-0.005944158881902695,-0.03842215985059738,0.009913483634591103
1782814248149132800,6.8381328125,-0.018476711586117744,-0.025299713015556335,0.008015112020075321
1782814248169213700,6.858213623046875,-0.02435394376516342,0.03917748108506203,0.025337975472211838
1782814248189295900,6.8782958984375,-0.027890706434845924,0.05820866674184799,0.042489051818847656
1782814248209376800,6.898376708984375,-0.016478821635246277,0.034507256001234055,0.03991593420505524
1782814248229458700,6.918458740234375,-0.010945112444460392,0.004126054234802723,0.030621139332652092
1782814248249539800,6.938539794921875,-0.01152580976486206,-0.01853514090180397,0.010386595502495766
1782814248269621800,6.958621826171875,-0.0021834541112184525,-0.010150082409381866,-0.002951964968815446
1782814248289702700,6.97870263671875,0.012368131428956985,0.010342538356781006,-0.004203553777188063
1782814248309784300,6.998784423828125,0.0157716516405344,-0.0021532790269702673,-0.012154953554272652
1782814248329865500,7.018865478515625,-0.0016656068619340658,-0.01349598541855812,-0.024762608110904694
1782814248349947400,7.038947509765625,0.0021215330343693495,0.010307353921234608,-0.01629691757261753
1782814248370028500,7.059028564453125,0.020883185788989067,0.033312130719423294,0.001422220841050148
1782814248390110500,7.0791103515625,0.005757139064371586,-0.004764534533023834,0.0011494869831949472
1782814248410191600,7.099191650390625,-0.004549647215753794,-0.035297442227602005,-0.010097256861627102
1782814248430273500,7.1192734375,-0.012426224537193775,-0.019533026963472366,-0.021211277693510056
1782814248450354700,7.139354736328125,-0.011886505410075188,0.014560474082827568,-0.009465550072491169
1782814248470436600,7.1594365234375,-0.006036223378032446,0.028603244572877884,0.023785609751939774
1782814248490517500,7.179517578125,-0.003581411438062787,-0.007610004395246506,0.019984986633062363
1782814248510599400,7.199599365234375,-0.011680427938699722,-0.026972731575369835,-0.012013601139187813
1782814248530680300,7.219680419921875,-0.01929130032658577,-0.02037753164768219,-0.04137764126062393
1782814248550762500,7.239762451171875,-0.017465686425566673,-0.014392087236046791,-0.04522811248898506
1782814248570843400,7.259843505859375,0.0034219545777887106,-0.0035051314625889063,-0.04590194672346115
1782814248590925600,7.279925537109375,0.010883964598178864,0.0030499077402055264,-0.02412494644522667
1782814248611006500,7.30000634765625,0.010212749242782593,-0.021811168640851974,-0.0023518064990639687
1782814248631088400,7.32008837890625,0.012386700138449669,-0.06214031204581261,0.009851181879639626
1782814248651170600,7.340170654296875,0.01604062132537365,-0.08205164968967438,0.005213609896600246
1782814248671251500,7.36025146484375,0.029258040711283684,-0.04830080643296242,-0.00994722917675972
1782814248691333600,7.380333740234375,0.03542314097285271,-0.03379928320646286,-0.00476178340613842
1782814248711414500,7.40041455078125,0.03570433706045151,-0.06317037343978882,0.02001519314944744
1782814248731496400,7.420496337890625,0.03497917950153351,-0.07984497398138046,0.04502243176102638
1782814248751577300,7.440577392578125,0.027680207043886185,-0.06847706437110901,0.04811530187726021
1782814248771659300,7.4606591796875,0.0060117500834167,-0.03968559950590134,0.038454629480838776
1782814248791740400,7.480740478515625,-0.020510682836174965,-0.016977790743112564,0.034730348736047745
1782814248811822300,7.500822265625,-0.03707550838589668,-0.020716629922389984,0.04182856157422066
1782814248831903500,7.520903564453125,-0.038710854947566986,-0.0038471664302051067,0.0491749569773674
1782814248851985400,7.5409853515625,-0.03790207579731941,0.0061855074018239975,0.04682668671011925
1782814248872066600,7.561066650390625,-0.0516345277428627,-0.024246525019407272,0.032283585518598557
1782814248892148500,7.5811484375,-0.04966689646244049,-0.01975906640291214,0.03910468518733978
1782814248912229600,7.601229736328125,-0.03269236534833908,0.012747425585985184,0.06483019888401031
1782814248932311600,7.6213115234375,-0.024089792743325233,0.005129876080900431,0.05807141214609146
1782814248952392700,7.641392822265625,-0.026092175394296646,-0.029499417170882225,0.02786463312804699
1782814248972474600,7.661474609375,-0.022695288062095642,-0.040199924260377884,0.011021440848708153
1782814248992555300,7.68155517578125,-0.008392274379730225,-0.055319029837846756,0.015738463029265404
1782814249012637400,7.701637451171875,-0.004415831528604031,-0.056159574538469315,0.02649194747209549
1782814249032718300,7.72171826171875,-0.010487568564713001,-0.03694797679781914,0.016625015065073967
1782814249052800500,7.741800537109375,-0.01676192879676819,-0.002139871707186103,0.009597592055797577
1782814249072881400,7.76188134765625,-0.01623898185789585,0.012582149356603622,0.014418113976716995
1782814249092963600,7.781963623046875,0.00017463363474234939,0.014195477589964867,0.04364912584424019
1782814249113044500,7.80204443359375,0.008387341164052486,-0.021618569269776344,0.06559377908706665
1782814249133126400,7.82212646484375,0.003645088756456971,-0.01835169643163681,0.042426496744155884
1782814249153208600,7.84220849609375,0.0032019224017858505,0.012864559888839722,-0.002306016394868493
1782814249173289500,7.86228955078125,0.005921193864196539,0.012665675953030586,-0.030071206390857697
1782814249193371600,7.88237158203125,0.00957674439996481,-0.013759158551692963,-0.007960588671267033
1782814249213452500,7.90245263671875,0.006964061409235001,-0.0236055850982666,0.029584698379039764
1782814249233534500,7.922534423828125,0.003045572666451335,-0.018438490107655525,0.0354638397693634
1782814249253615400,7.942615478515625,0.00410060491412878,0.0064060380682349205,0.014247317798435688
1782814249273697300,7.962697265625,-0.00038211760693229735,0.00573214003816247,0.001045470591634512
1782814249293778400,7.9827783203125,-0.009644845500588417,-0.008020521141588688,0.018813932314515114
1782814249313861000,8.002861083984374,-0.011608673259615898,0.0010473732836544514,0.05357685685157776
1782814249333942300,8.0229423828125,-0.018295908346772194,0.00450311740860343,0.06541106104850769
1782814249354024200,8.043024169921875,-0.03722262382507324,0.0032746214419603348,0.047425542026758194
1782814249374105000,8.06310498046875,-0.056817177683115005,0.011376806534826756,0.012219976633787155
1782814249394187300,8.083187255859375,-0.0666872039437294,0.025070665404200554,-0.006406464613974094
1782814249414268200,8.10326806640625,-0.05646223947405815,0.0578816756606102,0.02119743637740612
1782814249434350300,8.123350341796876,-0.05842132121324539,0.04001723229885101,0.046737171709537506
1782814249454431200,8.14343115234375,-0.06494250893592834,0.004874095786362886,0.031721536070108414
1782814249474513400,8.163513427734374,-0.05741636082530022,0.023309970274567604,0.006716789677739143
1782814249494594000,8.183593994140624,-0.039330076426267624,0.046494413167238235,-0.01915164664387703
1782814249514676000,8.203676025390624,-0.010752277448773384,0.024719731882214546,-0.02291329950094223
1782814249534757000,8.223757080078125,0.019535865634679794,-0.026846088469028473,0.010486054234206676
1782814249554839000,8.243839111328125,0.020779725164175034,-0.08236849308013916,0.024187607690691948
1782814249574920200,8.263920166015625,0.01444170717149973,-0.06713683158159256,0.019774304702878
1782814249595002000,8.284002197265625,0.013537426479160786,0.01444333977997303,0.025506604462862015
1782814249615083300,8.304083251953125,0.0010638759704306722,0.017503825947642326,0.031211750581860542
1782814249635165200,8.324165283203126,-0.02405036799609661,-0.018600668758153915,0.031833987683057785
1782814249655246300,8.344246337890626,-0.04596855118870735,-0.02105524018406868,0.016505565494298935
1782814249675328300,8.364328369140624,-0.06136814132332802,0.0007695402018725872,-0.004026986192911863
1782814249695410200,8.38441015625,-0.054216980934143066,0.01186291128396988,-0.012525312602519989
1782814249715491300,8.4044912109375,-0.043180856853723526,0.016491316258907318,0.0005570820067077875
1782814249735573200,8.4245732421875,-0.05300789326429367,-0.005734022241085768,0.006804560776799917
1782814249755654100,8.444654052734375,-0.05520067363977432,-0.005482041742652655,-0.01194483507424593
1782814249775736000,8.464736083984375,-0.04189802333712578,0.0032885270193219185,-0.03442312404513359
1782814249795817200,8.484817138671875,-0.02131858840584755,0.008739758282899857,-0.023935824632644653
1782814249815899100,8.504899169921876,0.0011684611672535539,0.009486430324614048,0.019466504454612732
1782814249835980300,8.524980224609376,0.0072301593609154224,-0.021920811384916306,0.036952994763851166
1782814249856062200,8.545062255859374,0.00782590452581644,-0.017444122582674026,0.025483479723334312
1782814249876143000,8.56514306640625,0.024428002536296844,0.010975209064781666,-0.0008358689956367016
1782814249896225300,8.585225341796875,0.04377143830060959,0.023400388658046722,-0.012346518225967884
1782814249916306200,8.60530615234375,0.05065920948982239,0.006415519863367081,-0.005686664022505283
1782814249936388400,8.625388427734375,0.03792952001094818,-0.016641739755868912,0.007943987846374512
1782814249956469200,8.64546923828125,0.027309073135256767,-0.025341559201478958,-0.006492976564913988
1782814249976551200,8.66555126953125,0.017463304102420807,-0.009689856320619583,-0.020958980545401573
1782814249996633300,8.68563330078125,0.00862684566527605,0.000653478316962719,-0.019886285066604614
1782814250016714000,8.7057138671875,-0.0012174519943073392,-0.0040843370370566845,-0.017154505476355553
1782814250036796200,8.725796142578124,-0.008281804621219635,-0.01766446977853775,-0.027679789811372757
1782814250056877000,8.745876953125,-0.0072064585983753204,-0.027553826570510864,-0.025912070646882057
1782814250076959200,8.765959228515625,0.007715117651969194,0.0019138623028993607,0.007465598173439503
1782814250097040100,8.7860400390625,0.009006230160593987,0.017934009432792664,0.041969895362854004
1782814250117122000,8.8061220703125,0.003245040075853467,0.0073789083398878574,0.042799439281225204
1782814250137203200,8.826203125,-0.013768285512924194,-0.006254442967474461,0.012733002193272114
1782814250157285000,8.84628515625,-0.015223866328597069,-0.011360501870512962,-0.010142608545720577
1782814250177366300,8.8663662109375,-0.009476687759160995,0.006151593290269375,0.0049662115052342415
1782814250197448200,8.8864482421875,-0.020317772403359413,-0.004821058362722397,0.00824554543942213
1782814250217529300,8.906529296875,-0.03379721939563751,-0.022403785958886147,-0.023636257275938988
1782814250237611300,8.926611328125,-0.03437769040465355,-0.005045101046562195,-0.0361168310046196
1782814250257693200,8.946693115234375,-0.02577618695795536,-0.0064426567405462265,-0.006008225493133068
1782814250277774000,8.966774169921875,-0.021247241646051407,0.003441327717155218,0.033468905836343765
1782814250297856000,8.98685595703125,-0.02670399285852909,0.004497049376368523,0.030499804764986038
1782814250317937200,9.006937255859375,-0.03142869472503662,0.014436934143304825,0.006288859993219376
1782814250338019000,9.02701904296875,-0.026213830336928368,0.010300870053470135,-0.005379933398216963
1782814250358100200,9.047100341796876,-0.01261203084141016,-0.00999416969716549,0.005860690027475357
1782814250378182100,9.06718212890625,-0.003966061864048243,0.0026877890340983868,0.014139853417873383
1782814250398263000,9.087262939453124,-0.012249278835952282,0.02642950601875782,0.009022973477840424
1782814250418345000,9.107344970703124,-0.022739017382264137,0.02581828087568283,-0.0012594766449183226
1782814250438426000,9.127426025390625,-0.020588714629411697,0.015696264803409576,-0.0034473955165594816
1782814250458508000,9.147508056640625,-0.01351703330874443,0.0005653016269207001,0.00048059294931590557
1782814250478589200,9.167589111328125,-0.004793140571564436,-0.004393354523926973,0.0061685461550951
1782814250498671000,9.187671142578125,-0.0017249382799491286,0.01162708643823862,0.014868858270347118
1782814250518753000,9.2077529296875,-0.008093900978565216,0.0052864630706608295,0.014055144041776657
1782814250538834200,9.227834228515626,-0.015475736930966377,-0.021614426746964455,-0.002765862038359046
1782814250558916000,9.247916015625,-0.012837182730436325,-0.016989149153232574,-0.0051725152879953384
1782814250578997200,9.267997314453124,-0.017921721562743187,-0.004011638928204775,0.0013877172023057938
1782814250599079200,9.2880791015625,-0.024819690734148026,0.00440802238881588,0.01515306904911995
1782814250619160000,9.30816015625,-0.027627818286418915,0.006285965908318758,0.020189080387353897
1782814250639241000,9.328240966796875,-0.02629990503191948,0.0016837199218571186,0.02353478968143463
1782814250659323000,9.348322998046875,-0.019828828051686287,-0.0011625764891505241,0.021916497498750687
1782814250679405000,9.368405029296875,-0.01038861833512783,0.008398456498980522,0.028769221156835556
1782814250699486000,9.38848583984375,-0.00907238107174635,0.006912699434906244,0.015835724771022797
1782814250719568100,9.408568115234376,-0.026610413566231728,0.0019271192140877247,-0.01913205161690712
1782814250739649000,9.42864892578125,-0.03633536398410797,0.013197720050811768,-0.03812659531831741
1782814250759731000,9.44873095703125,-0.03809073194861412,0.016532400622963905,-0.044108420610427856
1782814250779812000,9.46881201171875,-0.028982138261198997,-0.0029722657054662704,-0.047763749957084656
1782814250799894000,9.48889404296875,-0.042123518884181976,0.014753831550478935,-0.054671838879585266
1782814250819975200,9.50897509765625,-0.03979736566543579,0.08906649053096771,-0.038399919867515564
1782814250840057000,9.52905712890625,-0.023782974109053612,0.034715984016656876,-0.016186418011784554
1782814250860138200,9.54913818359375,0.01194767002016306,0.009598861448466778,0.03085184097290039
1782814250880220200,9.56922021484375,0.014664080925285816,-0.00425906665623188,0.04918944835662842
1782814250900301000,9.589301025390625,-0.0073452480137348175,-0.017670277506113052,0.020983446389436722
1782814250920383000,9.609383056640626,-0.021251626312732697,-0.004557217471301556,-0.03260468691587448
1782814250940465000,9.62946484375,-0.01433225255459547,-0.0023589208722114563,-0.046192340552806854
1782814250960546000,9.649546142578124,-0.00055270129814744,0.026415053755044937,-0.009214322082698345
1782814250980628000,9.6696279296875,-0.0016502542421221733,0.011763893067836761,0.021247390657663345
1782814251000709000,9.689709228515625,-0.01032845675945282,-0.019324854016304016,0.0238764937967062
1782814251020791000,9.709791015625,-0.0062159388326108456,-0.020994611084461212,0.010979127138853073
1782814251040873000,9.729873046875,0.0022128759883344173,0.0003465129993855953,-0.0006820820271968842
1782814251060954000,9.7499541015625,0.002609510440379381,0.02702351287007332,-0.0053804051131010056
1782814251081036000,9.7700361328125,0.003547514323145151,0.048370055854320526,0.020781777799129486
1782814251101117200,9.7901171875,0.007005991879850626,0.013423377647995949,0.03981085121631622
1782814251121199000,9.81019921875,0.008080757223069668,-0.006975672207772732,0.048670973628759384
1782814251141280300,9.8302802734375,0.0004152035980951041,-0.01783246360719204,0.03697972372174263
1782814251161362200,9.850362060546875,-0.007981210015714169,-0.01128321886062622,0.016662731766700745
1782814251181443000,9.870443115234375,-0.01110286545008421,0.00946575403213501,-0.002801902126520872
1782814251201525000,9.89052490234375,-0.006193205248564482,0.02385047823190689,-0.012618089094758034
1782814251221606100,9.910606201171875,-0.011332050897181034,0.012278422713279724,-0.005820943973958492
1782814251241688000,9.93068798828125,-0.018225818872451782,-0.013621500693261623,-0.0021814415231347084
1782814251261769000,9.95076904296875,-0.02542882040143013,-0.017053639516234398,-0.014120453968644142
1782814251281851100,9.97085107421875,-0.026967471465468407,-0.007984769530594349,-0.03225734457373619
1782814251301933000,9.99093310546875,-0.004940159618854523,0.00812546443194151,-0.012311512604355812
1782814251322013700,10.011013671875,0.0005972099606879056,0.0027094008401036263,0.0029534960631281137
1782814251342095600,10.031095703125,-0.015272271819412708,-0.035812534391880035,-0.007544372230768204
1782814251362176800,10.0511767578125,-0.02566060610115528,-0.04036254063248634,-0.028097283095121384
1782814251382258700,10.0712587890625,-0.019336624071002007,0.012109429575502872,-0.026736319065093994
1782814251402339600,10.091339599609375,-0.01674710400402546,0.034641992300748825,0.0007793075637891889
1782814251422421800,10.111421875,-0.01758493483066559,0.02445220574736595,0.032448288053274155
1782814251442502700,10.131502685546875,-0.024650339037179947,0.03744393214583397,0.04651927947998047
1782814251462584800,10.151584716796876,-0.02689943090081215,0.04221910238265991,0.04966346547007561
1782814251482665700,10.171665771484374,0.003343782387673855,-0.02363329753279686,0.05094686895608902
1782814251502747600,10.19174755859375,0.016502702608704567,-0.05819294601678848,0.1191488653421402
1782814251522829800,10.211829833984375,0.008198686875402927,-0.12893971800804138,0.14611351490020752
1782814251542910700,10.23191064453125,-0.012439518235623837,-0.15411801636219025,0.07163333147764206
1782814251562993000,10.251992919921875,-0.0027273264713585377,-0.021368343383073807,-0.043025895953178406
1782814251583073500,10.272073486328125,0.0032852666918188334,0.06885868310928345,-0.13339996337890625
1782814251603155700,10.29215576171875,-0.003061694325879216,0.04164178669452667,-0.21634171903133392
