time,seconds_elapsed,z,y,x
1782814264746273000,0.05727294921875,-0.3167641024589538,0.0013785948768258094,-0.0560267473534448
1782814264766355000,0.07735498046875,0.01878945614397526,-0.046726095339655875,0.028696901244763283
1782814264786435800,0.097435791015625,0.06247311504781246,-0.027626550333201882,0.03561833453839645
1782814264806517800,0.117517822265625,0.010068389549851417,-0.030005700554698703,0.0007055361871607601
1782814264826599000,0.137598876953125,-0.06477262416183949,-0.004659370113164186,0.010618885872350074
1782814264846680800,0.157680908203125,-0.05421382074654102,0.031570904044806954,0.013187599282618612
1782814264866762000,0.177761962890625,0.060141457229852674,0.019768676439672707,0.034884910263889464
1782814264886844000,0.197843994140625,0.15918167717456816,0.06252309166938066,0.007999250559019856
1782814264906925000,0.217925048828125,0.1621335127174854,0.027978432510793207,-0.010528298679180443
1782814264927007000,0.238007080078125,0.13866086719334125,-0.013623890074342488,-0.027512221504841
1782814264947088100,0.258088134765625,0.029785481932759282,0.023429390904307363,0.018370134753361342
1782814264967170000,0.278170166015625,-0.07534720966815948,0.0996452001005411,0.0864565961709246
1782814264987251000,0.2982509765625,0.054852703171968456,0.08706658129543066,-0.020232846185588276
1782814265007333000,0.3183330078125,0.22527824341654776,-0.047321723145246505,0.01624225359590491
1782814265027413800,0.338413818359375,0.11951602174043655,-0.05334025278240442,0.008658942877035588
1782814265047495000,0.358494873046875,-0.25789690294861795,0.00221577635332942,0.08095261019347236
1782814265067576800,0.378576904296875,-0.5167407313585282,0.1417415167476982,0.07611555912557523
1782814265087658000,0.398657958984375,-0.30659809775352476,0.06768054749779402,0.11098911687838844
1782814265107740000,0.418739990234375,-0.06388882706463336,-0.023025340148061513,0.0868021582055837
1782814265127821000,0.438821044921875,0.05735737946927547,-0.0826807674266398,0.04807579748213756
1782814265147903000,0.458903076171875,0.0018570260435342787,-0.04066431108266115,0.05244674714193679
1782814265167984000,0.478984130859375,-0.10199380905330181,0.03753302731961012,0.09788293966837226
1782814265188066000,0.499066162109375,-0.16671207267940044,0.0669154814094305,0.08904413757924921
1782814265208147000,0.51914697265625,-0.06413958695530891,-0.0028371231220662594,0.05442470071797725
1782814265228229000,0.53922900390625,0.03982873704135418,-0.021584785950928925,0.008815825926445541
1782814265248309800,0.559309814453125,0.07271160046756267,-0.03251256880909204,-0.015326956248737405
1782814265268392000,0.579391845703125,-0.013055296406149863,0.0035578386120498177,-0.008358139007777208
1782814265288472800,0.599472900390625,-0.1122550908267498,0.04178746989369392,-0.026123402061522936
1782814265308555000,0.619554931640625,-0.006384148079156876,-0.018511515985429286,-0.005789182998091564
1782814265328635400,0.639635498046875,0.10375964968204497,-0.0363441097959876,-0.024711621867725624
1782814265348717600,0.659717529296875,0.093410689625144,-0.022120792523771523,0.009231424985767808
1782814265368798500,0.679798583984375,-0.05742459948658943,0.013999006997048855,0.01629985069328104
1782814265388880400,0.69988037109375,-0.0675865125387907,0.02531549691185355,0.01558202356341644
1782814265408961500,0.71996142578125,-0.03941957171857357,0.04065262064486742,0.03348302812631009
1782814265429043500,0.74004345703125,0.019610709398984908,0.05538461809158325,0.08622440398340113
1782814265449124600,0.76012451171875,0.04752513676285743,0.07822846419289707,0.07476210325658321
1782814265469206500,0.78020654296875,0.0689414342790842,0.05008037420362234,0.06353562057963572
1782814265489287700,0.80028759765625,0.04954875154495239,0.06986541725620626,0.07294819026899058
1782814265509369600,0.82036962890625,0.07361117965579032,0.05907616608589887,0.060397418452030976
1782814265529450800,0.84045068359375,0.04276829762458801,0.051059302238374946,0.08899300104705617
1782814265549531400,0.860531494140625,0.009568038812279701,0.07606997098475694,0.0761018959264038
1782814265569613600,0.880613525390625,0.05289630840718746,0.009553425765037536,0.004753937934651912
1782814265589694500,0.900694580078125,0.08633388310670852,-0.05813990814909339,0.0020678843237285035
1782814265609776400,0.9207763671875,-0.07583703901171684,-0.03547580252885818,0.01454623250858276
1782814265629857500,0.940857421875,-0.2559539521872997,-0.015358020390570163,-0.04853122679917141
1782814265649939500,0.960939453125,-0.2904834137767553,0.0140067519120872,-0.014169126841478282
1782814265670020600,0.9810205078125,-0.09462532611191272,0.019691373419761658,0.03775722799692303
1782814265690102500,1.0011025390625,0.15075871674418448,-0.06443623181432485,0.03097323726246832
1782814265710183700,1.02118359375,0.2235422134041786,-0.10372969293519854,-0.01013338792732684
1782814265730265600,1.041265625,0.07100304298400878,-0.05583060829341411,0.022004084508656523
1782814265750346500,1.061346435546875,-0.08538812668919563,0.0333520883731544,0.04102016618247144
1782814265770428400,1.081428466796875,-0.10320376936495304,0.024735358936339616,0.06323314876803196
1782814265790509600,1.101509521484375,0.005870353338122368,-0.038892917495965955,0.05978398556169122
1782814265810591500,1.121591552734375,0.02969020486474037,-0.038663931045681235,0.053254227599920705
1782814265830672400,1.14167236328125,-0.05286006805002689,-0.003731587743759155,0.07341180289248005
1782814265850754600,1.161754638671875,-0.08094283771812916,-0.040205607529729605,0.0474967052528169
1782814265870835500,1.18183544921875,-0.07312953361868858,-0.05981383271068334,0.0050079780548578125
1782814265890917600,1.201917724609375,-0.025741759499907493,-0.09489552135542034,0.0020073646169039418
1782814265910998500,1.22199853515625,-0.010973813956975937,-0.07540244698673486,0.017137738847616126
1782814265931080700,1.242080810546875,-0.05511398445665836,-0.05964315231889486,0.04264835190619342
1782814265951161600,1.26216162109375,-0.05612520732581615,-0.03442570895403623,0.022190348345355593
1782814265971243500,1.282243408203125,-0.019433014744520187,-0.013775135113298892,0.07773068900490179
1782814265991324400,1.302324462890625,0.0040665187865495675,0.00455050291121006,0.09003957835738546
1782814266011405600,1.322405517578125,-0.006056815820932388,0.07383607445284723,0.10529709751554764
1782814266031487500,1.342487548828125,-0.04493512026965618,0.021884937941282986,0.09642085862602107
1782814266051568400,1.362568359375,-0.005655833804607391,0.04643967961370945,0.06379642694029025
1782814266071650600,1.382650634765625,0.10363514651954174,-0.00006795066967606544,0.09653039254825561
1782814266091731500,1.4027314453125,0.09807575882673263,0.0024191899709403515,0.056121850891527714
1782814266111813600,1.422813720703125,0.0260246680945158,0.005149491717666387,0.06721010327471885
1782814266131894500,1.44289453125,0.005602057790756225,0.011247954723238944,0.031822321522608395
1782814266151976700,1.462976806640625,0.09461129758656024,-0.04795476035177707,-0.02087452563958941
1782814266172057600,1.4830576171875,0.033272739526629444,-0.07984525173977017,0.02724420451868791
1782814266192139500,1.503139404296875,-0.19190028994977473,-0.014381284312903881,0.02120938133385498
1782814266212220400,1.523220458984375,-0.2788952673137188,0.005415887568891048,-0.019786645921203307
1782814266232302300,1.54330224609375,-0.18761282188892364,-0.0025517303094267844,-0.02007216203142889
1782814266252383500,1.563383544921875,0.020409166300296783,-0.019805939710140226,0.021620565083785914
1782814266272465400,1.58346533203125,0.20595570330917834,-0.04648541845157742,0.03615250078060198
1782814266292546600,1.603546630859375,0.23440613724589346,-0.07323416303694248,0.0052587699115742
1782814266312628500,1.62362841796875,0.12722411189973354,-0.050186464926600456,0.01820072158676339
1782814266332710000,1.6437099609375,-0.10276713151335716,0.05570683578327298,0.05733404425946064
1782814266352791800,1.663791748046875,-0.237777074983716,0.110713268212229,0.1205802899710834
1782814266372872700,1.683872802734375,-0.18357260658740995,0.06930573754683136,0.13112639830159023
1782814266392955000,1.703954833984375,-0.10698328790366649,0.03225055687204003,0.08055616735494694
1782814266413035800,1.724035888671875,-0.005436053574085236,0.007459522225707769,0.007976036363502498
1782814266433116700,1.74411669921875,0.02717325360774994,0.0014529752872884272,-0.000805656110367272
1782814266453198600,1.764198486328125,0.02605038705766201,-0.03689940559118986,-0.019501531669776886
1782814266473279700,1.78427978515625,0.022705752804875374,-0.09245236598700285,-0.08143200034140609
1782814266493361700,1.804361572265625,0.02134557036757469,-0.09173252727985381,-0.0799823677886743
1782814266513442800,1.82444287109375,-0.0011538462102413177,-0.06576368102580309,-0.05629013383025303
1782814266533524700,1.844524658203125,-0.04069382943809032,-0.03099149672165513,-0.025062944639602208
1782814266553606000,1.86460595703125,-0.08488485334217548,0.0024761808551847933,0.0008032643655256833
1782814266573687800,1.884687744140625,-0.05398235007822513,0.02661182033270597,0.02831140905851498
1782814266593769000,1.90476904296875,0.04266308368444442,0.03839256675839424,0.05694310871311463
1782814266613851000,1.924850830078125,0.06087620124518871,0.03833382230848074,0.07413333579979371
1782814266633931800,1.944931884765625,0.04778407995998859,0.021083266169577834,0.048584906914900056
1782814266654014000,1.965013916015625,0.04352349990606308,0.02309621342718601,0.07347746114036999
1782814266674094600,1.985094482421875,0.03861000890135765,0.025480039823800323,0.10425514158140867
1782814266694176800,2.0051767578125,-0.02708908245563507,0.05443666971698403,0.14032721123667433
1782814266714257700,2.025257568359375,-0.0245475812792778,0.04042173449844122,0.08627177765592932
1782814266734339800,2.04533984375,0.07997896112203598,-0.045467765841633076,0.06283689772575161
1782814266754420700,2.065420654296875,-0.007158055061101913,-0.019565847343951462,0.09275453640450723
1782814266774502700,2.085502685546875,-0.2868237222254276,0.04283391020670533,0.09327851461283862
1782814266794583800,2.105583740234375,-0.28488720120489597,0.04458440713584423,0.0518545625356026
1782814266814665700,2.125665771484375,-0.09604746786952018,0.016555559612065552,0.053733855209872124
1782814266834747000,2.145746826171875,0.13411737854480743,-0.08844824491217732,0.03208377862052293
1782814266854827800,2.165827880859375,0.13612813384532926,-0.10218070992752909,-0.016339777419937307
1782814266874910000,2.185909912109375,0.03683832305371761,-0.08493702192083001,-0.035053126987244464
1782814266894990600,2.205990478515625,-0.017825579547882078,-0.010394114372879267,-0.011429977351304842
1782814266915072800,2.22607275390625,-0.05307692567110062,-0.005566840346902608,0.02283881373316981
1782814266935153700,2.246153564453125,-0.0689589699357748,-0.014636428117752074,0.028082440874539313
1782814266955235800,2.26623583984375,-0.055929977014660834,0.015349983214586973,0.0446894247131655
1782814266975316700,2.286316650390625,0.00362462023794651,0.014252981758117674,0.10814973786715418
1782814266995398700,2.306398681640625,0.021392916640639303,-0.011519757401943206,0.08287118456535972
1782814267015479800,2.326479736328125,-0.04316927964091301,-0.03357303764745593,0.06018648824824486
1782814267035561700,2.346561767578125,-0.128959557390213,-0.04692395599931478,0.03051822350396542
1782814267055643000,2.366642822265625,-0.11002747790515423,-0.03169453042447567,0.056301796868583186
1782814267075724800,2.386724853515625,-0.034172903236746786,-0.026483225516974924,0.04148760559770744
1782814267095806000,2.406805908203125,0.027555530923604965,-0.015157675512880086,0.09623009442742914
1782814267115887900,2.426887939453125,-0.002978139027953148,0.019574176780879495,0.06944836545449215
1782814267135968800,2.44696875,-0.048262218865752216,0.03174801417738199,0.0476551061183447
1782814267156050700,2.46705078125,-0.10415770908892154,0.06456862602233886,0.044496906948904506
1782814267176131800,2.4871318359375,-0.06757131496965885,0.10479498407915235,0.0638980241512414
1782814267196212700,2.507212646484375,0.07844517568349837,0.044271687924861906,0.035046512300078755
1782814267216294700,2.527294677734375,0.1522352190375328,0.031840953157842154,-0.006511384338152129
1782814267236375800,2.547375732421875,0.14490882167220115,-0.00971972224265337,-0.04625422177789733
1782814267256457700,2.567457763671875,0.13516951794624327,-0.026668811216950417,-0.06284568838698323
1782814267276539000,2.587538818359375,0.06845628111064433,0.00868921015113592,-0.005829725071034045
1782814267296620800,2.607620849609375,0.05470423461198806,-0.013760668196529149,-0.03642507749415235
1782814267316702000,2.627701904296875,0.0860603268623352,-0.07318024089261889,-0.06147669702214188
1782814267336783000,2.647783203125,0.04821194998323917,-0.07968202400207519,-0.0513806614135392
1782814267356864300,2.6678642578125,-0.15945347985327243,-0.013800707945972681,-0.021269938714941962
1782814267376946200,2.6879462890625,-0.3054103492736816,0.06242869138419628,-0.009680297839496052
1782814267397027300,2.70802734375,-0.2310498125553131,0.06042758069485426,0.05206319575102534
1782814267417109200,2.728109130859375,-0.1101589953303337,0.017753537224978206,0.06382865327603648
1782814267437190100,2.748190185546875,-0.04314589876532554,-0.005086947875469923,0.08271280653271823
1782814267457272000,2.76827197265625,0.0084440032184124,0.04066781821399927,0.0840068557980936
1782814267477353200,2.788353271484375,0.04307049544155597,0.06347147843539715,0.12210779179930686
1782814267497435100,2.80843505859375,0.027396540969610212,0.045967970448732375,0.09718670103251933
1782814267517516000,2.82851611328125,0.07023731930851936,0.013707330574095249,0.08289983527110889
1782814267537598200,2.84859814453125,0.12289222017526626,0.00392111896649003,0.096663261680305
1782814267557679000,2.86867919921875,0.10293138216435908,-0.019518939462304114,0.0807480823310092
1782814267577760300,2.88876025390625,0.0013970073163509368,-0.05977788461446762,0.027590885364776475
1782814267597842200,2.90884228515625,-0.14381810382604598,-0.03731134739294648,-0.019322316345083527
1782814267617923300,2.92892333984375,-0.15964461851119993,-0.038595688115060325,-0.03774456259488361
1782814267638005200,2.949005126953125,-0.09560790740847587,-0.0452566073089838,-0.028352117811527567
1782814267658086100,2.969086181640625,-0.05360591798126697,-0.03411518170014024,-0.0012771226759272394
1782814267678168000,2.98916796875,-0.04319675216972828,0.014726152227818964,0.04967893096299376
1782814267698249200,3.009249267578125,-0.08851181166768074,0.05878551257625222,0.06746863547989633
1782814267718331100,3.0293310546875,-0.031081951484084127,0.06551862022355198,0.0680604501934722
1782814267738412000,3.049412109375,0.06999766533374786,0.04860036477893591,0.04293129703341983
1782814267758494200,3.069494140625,0.08878829052150249,0.0460080101981759,0.07065179556065704
1782814267778575000,3.0895751953125,0.05148585708737373,0.05756678443625569,0.06760965595236047
1782814267798657300,3.1096572265625,-0.027124153769016265,0.014355857610702514,0.060586269254749636
1782814267818738200,3.12973828125,-0.06059504621624946,0.008793547308444977,0.008899585515784564
1782814267838820000,3.149820068359375,-0.04254793287217617,-0.04417538794353604,0.03065653142953524
1782814267858901200,3.1699013671875,-0.10345569829940796,-0.027100919023901222,0.02612399571656715
1782814267878983200,3.189983154296875,-0.1253390288054943,-0.005970160450786352,0.004015952505692257
1782814267899064000,3.21006396484375,0.03164718415141105,-0.07228884501084686,-0.037609177278762215
1782814267919145200,3.230145263671875,0.13357085057795046,-0.12198226572349667,-0.03155231807534583
1782814267939227100,3.25022705078125,-0.08645020296275616,-0.010957447344064711,0.029146896334853952
1782814267959308000,3.27030810546875,-0.2163584393799305,0.07925093910843134,0.04346427596553694
1782814267979390200,3.29039013671875,-0.15613164195418358,0.08345745088756083,0.046395251383516
1782814267999471000,3.31047119140625,-0.0039484453648328775,0.08406973756700754,0.06952619363078848
1782814268019553300,3.33055322265625,0.1517389599531889,0.04828209261000156,0.0908286281095352
1782814268039634200,3.35063427734375,0.14576339267492294,0.08631269418820739,0.08248317162846215
1782814268059716400,3.37071630859375,0.07635200279653072,0.10917977503463626,0.08345939624947495
1782814268079797200,3.39079736328125,-0.03730769413113594,0.11926657702401279,0.06751641557780094
1782814268099879200,3.410879150390625,-0.041812019813060756,0.09003346827700734,0.0666165121625876
1782814268119960000,3.4309599609375,0.019527122768759727,0.033193829071521755,0.06280375807455275
1782814268140042000,3.4510419921875,-0.01826338644325733,0.00953165232464671,0.07796471695648506
1782814268160123100,3.471123046875,-0.1016238066971302,0.01781944206804037,0.0452068407499697
1782814268180205000,3.491205078125,-0.0857464386075735,-0.024952216557413337,0.00760632455580926
1782814268200286200,3.5112861328125,-0.07521276963353156,-0.05628171306177973,-0.008903570996091003
1782814268220368100,3.5313681640625,-0.048016135150194164,-0.072261518612504,-0.05274503596876748
1782814268240449300,3.55144921875,0.003201426389813423,-0.0822055511303246,-0.02364817790427478
1782814268260530200,3.5715302734375,-0.022213000851869582,-0.02385682253614068,0.031007648705434983
1782814268280612400,3.5916123046875,-0.06169277832508087,0.006958148574829101,0.03752857490677852
1782814268300693200,3.611693359375,-0.13375322140753268,0.05189166140928864,0.04479850654425099
1782814268320775200,3.631775146484375,-0.11514672061502933,0.1266426587499678,0.11475722810709849
1782814268340857000,3.651857177734375,-0.06532908900082111,0.17097820569127797,0.1421304521332029
1782814268360939000,3.67193896484375,0.029110359150171277,0.13396613350585101,0.1128034362913575
1782814268381020000,3.69202001953125,0.03902560396492481,0.12439137269183993,0.1394441995907575
1782814268401101800,3.712101806640625,0.09757774617671966,0.11598097948208451,0.10879780824603512
1782814268421183000,3.732182861328125,0.13115034543275833,0.045159576675295826,0.08018220120971091
1782814268441265000,3.752264892578125,0.10168284340798854,0.03331745545119047,0.03721395599965471
1782814268461345800,3.772345703125,0.018041268125176427,0.022286942870914934,-0.0022360251277365024
1782814268481428000,3.792427978515625,0.016297639328241346,-0.053001960738748306,-0.057700480118789706
1782814268501508900,3.8125087890625,-0.011860533663630485,-0.08300912259817123,-0.01909106487247627
1782814268521591000,3.832591064453125,-0.195958040907979,-0.03619038053900003,-0.022419789170078
1782814268541672000,3.852671875,-0.2639274152845144,-0.032635026144981386,-0.0410982866197126
1782814268561754000,3.872754150390625,-0.2506593529105186,0.014244213929772376,-0.06419593395215925
1782814268581834800,3.892834716796875,-0.04575871161222458,-0.007610182742774486,-0.0017239057497354224
1782814268601916000,3.912916015625,0.10206453620195388,0.0020731530122458934,0.021060319118830374
1782814268621997800,3.932997802734375,0.1428285082668066,0.02105783946737647,0.017893301888694986
1782814268642079000,3.953078857421875,0.08652560628652572,-0.0013990531429648398,0.026379961505322715
1782814268662161000,3.973160888671875,0.016920739662647247,0.04141454492807388,0.03153197854021564
1782814268682241800,3.99324169921875,-0.006228665256500244,0.04050459047630429,0.08493893075012601
1782814268702324000,4.013323974609375,-0.006818447843194008,0.030409751310944557,0.11609444979391992
1782814268722404900,4.03340478515625,-0.03543488599658012,0.026236557279527187,0.11127991651850752
1782814268742487000,4.053487060546875,-0.07607669298648834,-0.013003127827495336,0.03796827236514073
1782814268762568000,4.07356787109375,-0.1111433301925659,-0.028044775745272636,0.016921176912420195
1782814268782650000,4.093650146484375,-0.05778466497063636,-0.06101882458627224,-0.011141395926091353
1782814268802730800,4.113730712890625,0.05989245090484619,-0.11056319221705198,-0.02183377857620362
1782814268822812700,4.133812744140625,0.08339432252347469,-0.10951412155553698,-0.002057345805049408
1782814268842893800,4.153893798828125,0.06475158137381076,-0.08313274897783994,-0.0019382848609995561
1782814268862975700,4.173975830078125,-0.059982467275857924,-0.04939516841843724,0.00346656643229071
1782814268883057000,4.194056884765625,-0.1342886434584856,-0.005478431411087513,-0.015682544203777796
1782814268903138000,4.214137939453125,-0.07008008292019367,0.034529899980872865,0.04804381774156354
1782814268923220000,4.234219970703125,-0.011911387068033217,0.08063713276982307,0.08153423687317408
1782814268943300900,4.25430078125,0.0169271694034338,0.09859510652571916,0.08836578165995888
1782814268963383000,4.274383056640625,0.02962181580364704,0.10743424654155968,0.06952143525728025
1782814268983464000,4.2944638671875,0.1271948858052492,0.020785744527727364,0.02835322977309115
1782814269003546000,4.314546142578125,0.13398936825096605,0.0005810147583484649,0.006788066404662094
1782814269023626800,4.334626708984375,0.0376624989181757,0.03929989086166024,0.05219581372132524
1782814269043709000,4.354708984375,0.006871639335155486,-0.0010084463901817798,-0.010699753105815033
1782814269063789800,4.374789794921875,0.08076338949799537,-0.12161635502055286,-0.005267421292199287
1782814269083871700,4.394871826171875,-0.03199322111010551,-0.113070644993335,0.0024120980764506385
1782814269103953000,4.414952880859375,-0.2327268058568239,-0.05399637860357761,0.03069917184473015
1782814269124034800,4.435034912109375,-0.2647609434992075,-0.02034253080487251,0.04458532958445139
1782814269144116000,4.455115966796875,-0.14754150826334952,-0.029600773015618323,0.05370451038437895
1782814269164198000,4.475197998046875,0.039187516528367994,-0.06694616880863904,0.043351458674250165
1782814269184279000,4.495279052734375,0.15777531750798224,-0.08654606455266475,0.05965204801140353
1782814269204361000,4.51536083984375,0.06678221041858196,0.01441591723486781,0.06765008842744864
1782814269224442000,4.535442138671875,-0.024709493842720982,0.060575464732944964,0.10172438099477439
1782814269244522800,4.555522705078125,-0.007318798580765723,0.06188830089718103,0.10486334574078209
1782814269264605000,4.57560498046875,0.04349135120213032,0.04546045931801199,0.11725220499429852
1782814269284685800,4.595685791015625,0.019959084445238112,0.03401259810850024,0.09774676433438434
1782814269304767700,4.615767822265625,-0.0742044693738222,0.05722016295567155,0.06249722657576203
1782814269324849000,4.635848876953125,-0.04223638270497322,-0.008790478568524121,0.06993608960593119
1782814269344930800,4.655930908203125,-0.010190554624795914,-0.03325695743560791,0.04288202823132742
1782814269365011700,4.67601171875,-0.023477321699261665,-0.08316051376760006,0.027254107141483106
1782814269385093600,4.69609375,-0.055496846294403074,-0.07704524575769901,0.0005782672485969669
1782814269405174800,4.7161748046875,-0.021370120286941525,-0.06520400131642819,0.007946188072866062
1782814269425256700,4.736256591796875,-0.02135083106458187,-0.06810410667210817,0.007354089089855551
1782814269445337900,4.756337890625,-0.06356207932829856,-0.025356121183186767,0.00540975522644876
1782814269465419800,4.776419677734375,-0.10146890839636326,0.02073576790615916,0.030242135092499664
1782814269485501000,4.7965009765625,-0.038382045364379884,0.031023353164643046,0.05609491265225224
1782814269505581800,4.816581787109375,0.01866787559092045,0.033454671964794395,0.07467330159512348
1782814269525663700,4.836663818359375,0.041918987318873405,0.04814385318309068,0.08353550282614305
1782814269545745000,4.856744873046875,0.13616262063682077,0.012422697591036558,0.07580847507093567
1782814269565826800,4.876826904296875,0.12690847007930278,0.045102585791051385,0.09448894984852522
1782814269585907700,4.89690771484375,0.033625790748000144,0.06715338181853293,0.058802039019367654
1782814269605989600,4.91698974609375,0.03876549172401428,0.015187486129254102,0.016276047409296734
1782814269626070800,4.93707080078125,0.038624621948599815,-0.03385214684978127,0.043319049675413404
1782814269646152700,4.957152587890625,-0.1422135912388563,-0.01603957291394472,0.050978524053166614
1782814269666233900,4.97723388671875,-0.31374738498628135,-0.010048661936074494,-0.025054731650394384
1782814269686315800,4.997315673828125,-0.23719138405025003,-0.005990472586452961,-0.010239008292846847
1782814269706397000,5.01739697265625,-0.06545885286033153,-0.01370206987708807,0.02765589059211779
1782814269726478800,5.037478759765625,0.11865385195314883,-0.07855141253694892,-0.0010612280318338888
1782814269746559700,5.057559814453125,0.17898177166581153,-0.0856910551585257,-0.0071452812028524925
1782814269766642000,5.077641845703125,0.0920470000565052,-0.04170461391583085,0.016796187409438425
1782814269786722800,5.097722900390625,-0.0662011956602335,0.024144115044921637,0.06086292163850739
1782814269806803700,5.1178037109375,-0.10595336033403872,0.029782997714728116,0.03193775317937834
1782814269826885600,5.1378857421875,-0.014875497570633887,-0.020624270355701444,0.057399401113251224
1782814269846966800,5.157966796875,0.001388239488005638,0.007540624637901783,0.09843335835905745
1782814269867048700,5.178048583984375,-0.025708441752195357,0.022959727565944194,0.10586408374854363
1782814269887129900,5.1981298828125,-0.08410042496621609,0.018569237522035837,0.0843735976180993
1782814269907211800,5.218211669921875,0.019364041161537168,-0.01594108097553253,0.04625557348476723
1782814269927293000,5.23829296875,0.03761632168889045,-0.04449921307042241,0.0009288463819073512
1782814269947374800,5.258374755859375,-0.016378303349018096,-0.05515577777177095,-0.0035089328528498296
1782814269967455700,5.278455810546875,-0.058341129809617996,-0.009090922819823027,0.024453139894898047
1782814269987538000,5.298537841796875,-0.06734802760779857,-0.010583061073720455,-0.0007964704402023926
1782814270007618800,5.318618896484375,-0.03798866213262081,-0.046183366765081876,-0.02327782848823117
1782814270028326700,5.33932666015625,-0.030598551881313323,-0.029305443330854174,-0.02096162168444134
1782814270048408800,5.359408935546875,-0.007879939594864846,-0.002957242370396852,-0.0017214694807655177
1782814270068489700,5.37948974609375,-0.005405658435821533,0.025005261918902396,0.021573899230733513
1782814270088572000,5.399572021484375,0.006928922480344772,0.04327288614585995,0.06695248895157128
1782814270108652800,5.41965283203125,0.05875672487318515,0.0061401101902127265,0.05512213123049587
1782814270128734700,5.439734619140625,0.11744038451015948,-0.010230594374239444,0.0665236508139409
1782814270148816000,5.45981591796875,0.03587386193573475,0.058562517475336785,0.10274424382811412
1782814270168897800,5.479897705078125,-0.074257076343894,0.08003931300714612,0.07653075233034323
1782814270188978700,5.499978759765625,0.013946107766032218,-0.018852730638533828,0.0678269473982742
1782814270209059800,5.520059814453125,-0.026314006429910657,-0.0012719196319580077,0.09182837973660789
1782814270229141800,5.540141845703125,-0.22034721675515173,0.05288622540459036,0.08913294837386347
1782814270249222700,5.56022265625,-0.21581424950063227,0.08748290701135993,0.04691752625852823
1782814270269304800,5.580304931640625,-0.008884732723236083,0.05184446126669645,0.04856898325998336
1782814270289385700,5.6003857421875,0.10068448002040385,0.0011707973450422286,0.01926917051889468
1782814270309468000,5.620468017578125,0.12137187874019145,-0.04834478258267045,-0.02106147446287796
1782814270329548800,5.640548828125,0.07372808403372764,0.012841653655469416,-0.003195904541669006
1782814270349630700,5.660630615234375,0.01722469104528427,0.014903554621338843,0.030671541768999302
1782814270369085000,5.6800849609375,-0.048346390017867086,0.0012501461915671824,-0.0314615938848583
1782814270389166800,5.700166748046875,-0.019305004450678825,-0.045854573202133174,-0.018641479632694972
1782814270409248000,5.720248046875,-0.04209434388577938,-0.03561550326049328,0.034688917334331194
1782814270429330000,5.740329833984375,-0.08250351116359234,-0.005976882452517747,0.07992014360688626
1782814270449410800,5.760410888671875,-0.1469236686259508,-0.017074030528217553,0.03382709004033822
1782814270469493000,5.780492919921875,-0.1294996556162834,-0.016097586711496113,0.02983861177592771
1782814270489574000,5.800573974609375,-0.09190905289053916,-0.0391686656974256,0.023862955449405126
1782814270509656000,5.820656005859375,0.007375497204065323,-0.04357376878857613,0.03423100379926618
1782814270529737000,5.840737060546875,0.06937164238989353,-0.04480462575778365,0.04066274474665988
1782814270549819000,5.86081884765625,0.02134206323623657,0.015021774173527956,0.036213080994575285
1782814270569899800,5.880899658203125,-0.052951253464818,0.06211100373715162,0.024373884663206988
1782814270589981000,5.90098095703125,-0.02339081245958805,0.04893982586637139,0.04236789556357544
1782814270610062800,5.921062744140625,0.05365092616677284,0.04274696257561445,0.027171609639935194
1782814270630144000,5.94114404296875,0.062276131170988076,0.052050943624228234,0.028250458951783367
1782814270650226000,5.961225830078125,0.019230185648798942,0.06506415445432066,0.04339595540310256
1782814270670306800,5.981306884765625,0.05561608875989914,0.027091274412721394,0.028235569626616778
1782814270690389000,6.001388916015625,0.04951134214401245,0.01247618134394288,0.04635085055278614
1782814270710470000,6.021469970703125,-0.00478664975464344,0.05898220419213175,0.04725796002692077
1782814270730552000,6.041552001953125,0.040841128954291345,0.0024805647693574425,0.023135627555544488
1782814270750633000,6.061633056640625,0.07436345932781696,-0.03684884444773197,0.06030227381475269
1782814270770715000,6.08171484375,-0.05389174918532371,-0.012658113782107829,0.06482307570744306
1782814270790795800,6.101795654296875,-0.17903613220155237,0.014279431373625993,0.03906952530504204
1782814270810877700,6.121877685546875,-0.17739421021342278,0.014823767383396625,0.003077398151345551
1782814270830958800,6.141958740234375,-0.07770107931792736,0.005654226369410753,0.05092098974622786
1782814270851040800,6.162040771484375,0.040894904968142506,0.0026784254290163514,0.06270773665443993
1782814270871122000,6.182121826171875,0.06696516577005386,-0.013694324962049722,0.05250081085015554
1782814270891203800,6.202203857421875,0.021680501410365104,0.022228052290529012,0.04032261693894397
1782814270911285000,6.222284912109375,-0.06553016453087329,0.06819061591178179,0.0676337126813829
1782814270931367000,6.242366943359375,-0.020061375775933265,0.025862024878710508,0.044606230808584946
1782814270951448000,6.262447998046875,0.0781786337018013,-0.06287935776114463,0.0010332269217004067
1782814270971530000,6.282530029296875,0.02826806310713291,-0.06194762986898422,-0.010969167464610654
1782814270991611000,6.30261083984375,-0.09786942259967327,-0.011129881301522255,0.05588864492385182
1782814271011691800,6.32269189453125,-0.09893851313591003,-0.010628507650643586,0.057153002303862006
1782814271031773700,6.342773681640625,-0.08509528122246265,-0.0357135568074882,0.032632683490845374
1782814271051854800,6.362854736328125,-0.015603227323293684,-0.0846196265347302,-0.032237432528985664
1782814271071936800,6.382936767578125,0.021815525966882705,-0.07361804778799415,-0.04064174762440379
1782814271092018000,6.403017822265625,-0.013792378509044646,-0.04725362634509801,0.00805274972412444
1782814271112099800,6.423099853515625,-0.047158641538023946,-0.016387217307835815,-0.014184910074144136
1782814271132181000,6.443180908203125,-0.04703063124418259,0.02165463631674647,0.01786918122759089
1782814271152263000,6.463262939453125,0.0005360065728425979,0.06592720102444291,0.0538379914377816
1782814271172344000,6.483343994140625,-0.00022445640563964844,0.06943930079862475,0.07101165098214987
1782814271192426000,6.503426025390625,-0.05807575687170028,0.05093538359776139,0.0026489721473131793
1782814271212507100,6.523507080078125,0.07220540451109408,0.0014750409886240957,-0.005608256348568829
1782814271232589000,6.543589111328125,0.15649755265712736,0.0022536241456866265,0.024264499154733492
1782814271252669700,6.563669677734375,0.05426584319472313,0.04276975892931223,0.08040435606040991
1782814271272751900,6.583751953125,-0.0714513712733984,0.07489142872467637,0.01703824454549467
1782814271292832800,6.603832763671875,0.017802783194184303,-0.03338949777409434,-0.00433771068554488
1782814271312915000,6.6239150390625,0.06435118387937545,-0.0564664219789207,0.0564188382438384
1782814271332995300,6.643995361328125,-0.150205759036541,-0.006331979500502348,0.05988032207563519
1782814271353077500,6.664077392578125,-0.22028876456618307,0.006419073262065649,0.022126806706027128
1782814271373158400,6.684158447265625,-0.15735563079118728,-0.0042681788384914396,0.04225692316950298
1782814271393239600,6.704239501953125,-0.02756955944895744,-0.05437061874344944,0.034169638134003616
1782814271413321500,6.724321533203125,0.04522095147371292,-0.053274347939342256,0.04157226994016673
1782814271433402600,6.744402587890625,0.01551671808362007,-0.004619476494193077,0.04306940859616734
1782814271453484500,6.764484619140625,-0.040566988188028334,0.002328442947566509,0.05592145121491048
1782814271473565400,6.7845654296875,-0.06705109048783779,0.020848872891813516,0.04011340833478607
1782814271493647400,6.8046474609375,0.02029109287858009,-0.007983692230284214,0.02632323776584817
1782814271513728300,6.824728271484375,0.04428337836265564,-0.008685264628380537,0.038249774453951974
1782814271533810400,6.844810546875,-0.006056231299042702,0.006321019715070724,0.05315425152389798
1782814271553891300,6.864891357421875,-0.033304888230562206,-0.012742284934222697,0.03798999785647029
1782814271573973500,6.884973388671875,-0.07128302896916866,-0.02306084985285997,0.016291213012387742
1782814271594054400,6.905054443359375,-0.07380933257639408,-0.03293035582974553,0.012171483325923327
1782814271614136600,6.925136474609375,-0.02702712313532829,-0.055970162894576785,0.015139023328048642
1782814271634217500,6.945217529296875,-0.023658523485064507,-0.04985343357995152,0.016418728974240366
1782814271654299400,6.96529931640625,-0.045835868501663206,-0.007579495343565941,0.01875494994453038
1782814271674380500,6.985380615234375,-0.04630874671041965,0.023570699071139095,0.03596051273930352
1782814271694462500,7.00546240234375,-0.02442775429189205,0.043809331110119816,0.04554690462560393
1782814271714543400,7.02554345703125,-0.0336363121420145,0.06674816201850771,0.03125800217073411
1782814271734625300,7.045625244140625,0.00881517461836338,0.06109744278043508,0.07041652093348093
1782814271754706400,7.06570654296875,0.07293781043887138,0.06972367069795728,0.07233576659222599
1782814271774787300,7.085787353515625,0.11333937893211841,0.022617197738587856,0.03099448554647388
1782814271794869500,7.105869384765625,0.02705985636115074,0.06467457061484455,0.0392165964923799
1782814271814950400,7.125950439453125,-0.019296236622333526,0.07118263733461498,0.010039960323099511
1782814271835032600,7.146032470703125,-0.005016951379179954,-0.0017452362321317195,-0.014439010416087694
1782814271855113500,7.166113525390625,-0.007269114220142364,-0.01858911126628518,0.003419463329465361
1782814271875195400,7.1861953125,-0.02243921082317829,-0.009433744908124209,0.03291038618737366
1782814271895276500,7.206276611328125,-0.09345569781064987,-0.009275631736963988,-0.009587540380482096
1782814271915358500,7.2263583984375,-0.12868190949261188,-0.02790149481706321,-0.03204898586835479
1782814271935439400,7.246439453125,-0.06967968542575836,-0.015551643266528845,-0.02763836178529309
1782814271955521300,7.266521240234375,0.01718026738166809,-0.04892798929810524,-0.032749567319185005
1782814271975602400,7.2866025390625,0.06015723932087421,-0.013122808684408663,-0.005338439560151891
1782814271995684400,7.306684326171875,0.04237140726149082,0.045859249377250666,0.028462859593448228
1782814272015765500,7.326765625,-0.040811902859807014,0.06565817482471466,0.04118571374141611
1782814272035847400,7.346847412109375,0.02760404624044895,0.07256357029899954,0.0743292647972703
1782814272055928600,7.366928466796875,0.11804478014409542,0.05504603378698229,0.1364490363627672
1782814272076010500,7.387010498046875,0.07448036370575428,0.0643629473824054,0.1497986852061469
1782814272096091400,7.40709130859375,0.002655482944846153,0.029045915611833333,0.13891956379530018
1782814272116172500,7.427172607421875,-0.11395897213518619,0.01609020712263882,0.11377651910721323
1782814272136254500,7.44725439453125,-0.16394962222874163,-0.002532368021830916,0.0776438053058926
1782814272156335400,7.46733544921875,-0.16385668324828148,-0.03725055711641907,0.032851002416643314
1782814272176417300,7.487417236328125,-0.12152093182206153,-0.07934409728460014,-0.0305424080971512
1782814272196498400,7.50749853515625,-0.0653466246575117,-0.07772599456347525,-0.007677204684799653
1782814272216580400,7.527580322265625,-0.05896013849079609,-0.04771554476842284,0.012617650482623139
1782814272236661500,7.54766162109375,-0.06949205389916896,-0.018215894039720296,0.03940775341661647
1782814272256743400,7.567743408203125,0.028787703067064283,-0.0029954554889351126,0.028327707172767256
1782814272276824600,7.587824462890625,0.0599485650062561,0.018711933928355573,0.0455809621588327
1782814272296906500,7.607906494140625,0.056470659762620924,0.038743645218387246,0.05935632560099475
1782814272316987400,7.6279873046875,0.09161737646758555,0.04769983574263751,0.02796121651451103
1782814272337069600,7.648069580078125,0.07756430119574069,0.06345576940961181,0.06671479403844569
1782814272357150500,7.668150390625,0.02673310862481594,0.09809877437613904,0.05623090075657237
1782814272377232600,7.688232666015625,0.05113163682222366,0.023359175212308764,0.028631000968278385
1782814272397313300,7.708313232421875,0.036629064217209815,0.0005192015685141087,0.050091196991736066
1782814272417394400,7.72839453125,-0.09407879814505576,0.0018105565533041953,0.06442153656869196
1782814272437476400,7.748476318359375,-0.2091506999582052,0.017879282496497034,0.015842357283324233
1782814272457557500,7.7685576171875,-0.2242395480185747,0.005046396669372916,0.020469463386479765
1782814272477639400,7.788639404296875,-0.14296996256411074,0.01947327368967235,0.10806411454346962
1782814272497720600,7.808720458984375,0.004573883786797523,-0.01036773782260716,0.08103231523302383
1782814272517802500,7.828802490234375,0.14184125079512594,-0.0352727542374283,0.049177634943928565
1782814272537883600,7.848883544921875,0.1197311257958412,-0.008228241575881838,0.03274319922719151
1782814272557965600,7.868965576171875,-0.005029810860753059,0.05601159088350832,0.029696246446459552
1782814272578046500,7.88904638671875,-0.02067161662876606,0.06375453316047787,0.0362532645912026
1782814272598128600,7.909128662109375,0.10395955616831778,0.0045011838767677545,0.010284799646353348
1782814272618209300,7.929209228515625,0.10354746823608875,-0.023195143757015466,0.023837670311098916
1782814272638291500,7.94929150390625,0.0011088380247354507,0.010262012425810098,0.01758494604228763
1782814272658372400,7.969372314453125,-0.13190320962667465,0.033423400043696164,0.027401545938290653
1782814272678454300,7.989454345703125,-0.136579969266057,0.01613718806952238,0.045788540494907645
1782814272698535400,8.009535400390625,-0.05396949059665203,-0.013225392276048659,0.005542455395139405
1782814272718617300,8.029617431640625,-0.0029980127722024916,-0.028758550037816164,0.01374550830165972
1782814272738698500,8.049698486328126,-0.018577859219908715,0.012301920755580066,0.02720813312488608
1782814272758779600,8.069779541015626,-0.0270528420984745,0.018932883202657104,0.02622085282031912
1782814272778861600,8.089861572265624,-0.035235564032197,0.05012428641058504,0.012860506769700441
1782814272798942500,8.1099423828125,0.04657411964833736,0.059312312929332256,0.02551183461799519
1782814272819024600,8.130024658203125,0.060679801890254015,0.04497004545256495,0.029268597902206237
1782814272839105300,8.150105224609375,0.009765607210993767,0.03997917836271226,0.04078911563926376
1782814272859187500,8.1701875,-0.03267652719914913,0.014647022577002644,0.013217788924905471
1782814272879268400,8.190268310546875,-0.07141805352568625,0.08217216031737624,0.054697850536974145
1782814272899350500,8.2103505859375,-0.04347615363299846,0.10713482520356774,0.06414941422957926
1782814272919431400,8.230431396484375,0.09184066382944583,-0.026340967502072453,-0.017579564330982976
1782814272939513300,8.250513427734376,0.09593407062292099,-0.09909574952423572,-0.013141021336178527
1782814272959594500,8.270594482421876,-0.1284101068139076,-0.03343019511066377,0.015623594257887452
1782814272979676400,8.290676513671874,-0.2688642871648073,-0.002719926483184099,-0.005650730654515791
1782814272999757600,8.310757568359374,-0.16120821456611156,-0.015209405700117348,-0.008185222134774085
1782814273019839500,8.330839599609375,0.05278174211680889,-0.06998093339465558,0.007873941395629663
1782814273039920600,8.350920654296875,0.17647417275905608,-0.10858889646939933,0.02295792376792524
1782814273060002600,8.37100244140625,0.06384674148857593,-0.07520845878459513,-0.003583422861166764
1782814273080083500,8.39108349609375,-0.14046294817924498,-0.013405132757127285,0.0002361902259173803
1782814273100165400,8.411165283203125,-0.25452830329835413,0.059257733197882766,0.03473493473341223
1782814273120246500,8.43124658203125,-0.09036182344853877,0.06123677818588912,0.08103071693098172
1782814273140328400,8.451328369140626,0.15562076982259748,-0.006116217857971787,0.06809863134596962
1782814273160409300,8.471409423828124,0.19345570269823073,-0.02039389566592872,0.05086369746788404
1782814273180491500,8.491491455078124,0.07557575772702693,0.019425562090426684,0.0751170770069817
1782814273200572400,8.511572509765625,-0.0657739101588726,0.04655673012211919,0.12355747001781128
1782814273220654600,8.531654541015625,-0.04575461995899677,0.03016330226920545,0.09587509784414433
1782814273240735500,8.551735595703125,0.04367547559738159,-0.06479710101597011,0.05323292908356525
1782814273260817400,8.5718173828125,0.023374445846676827,-0.0875469121582806,0.019506258077244272
1782814273280898600,8.591898681640625,-0.17260171523988246,-0.03670417528003454,0.03933069699187763
1782814273300980500,8.61198046875,-0.23750819491446018,-0.017230536264181136,0.01134902335287188
1782814273321061400,8.632061279296876,-0.12522095538377762,-0.03109736824892461,0.0006846646457794122
1782814273341143600,8.6521435546875,0.0356406377017498,-0.06640526686497032,-0.014614499413734302
1782814273361224700,8.672224609375,0.07933247991204262,-0.053508375890925525,-0.019477566272299737
1782814273381306600,8.692306640625,0.023041268369555473,-0.04300086427144706,-0.0023520281774865
1782814273401387500,8.712387451171875,0.03842646902799606,-0.0045341362982988355,-0.033620230940182225
1782814273421469400,8.732469482421875,0.024072364982962606,0.012780205791816115,0.014204471007850952
1782814273441550600,8.752550537109375,-0.03904138605594635,0.05700907748825848,0.007620664179237792
1782814273461631500,8.772631591796875,0.03005436200201511,0.0061883332461118695,-0.004242893129363073
1782814273481713400,8.79271337890625,0.05837327851355076,-0.00521364299505949,0.07427554358234628
1782814273501794600,8.812794677734376,-0.14434241996109484,0.04033690575920045,0.044315376369538716
1782814273521876500,8.83287646484375,-0.2024503255367279,0.052914793911948796,-0.005928124536256654
1782814273541957600,8.85295751953125,-0.0809451758056879,0.037153818743675945,0.03595150744894054
1782814273562039600,8.87303955078125,0.062277300214767455,-0.0114508568841964,0.043124093358893875
1782814273582120400,8.893120361328124,0.14476853641867637,-0.06085844639278948,0.01066170895063551
1782814273602202600,8.91320263671875,0.0980640683889389,-0.046960415552183984,0.012550713593099498
1782814273622283500,8.933283447265625,0.007737900775671005,-0.033941944025084374,0.020566934694873633
1782814273642365400,8.953365478515625,-0.14298632917702198,0.01574212433733046,0.039044829255202786
1782814273662446600,8.973446533203125,-0.13434300399422644,0.013660861083865165,0.05932024507403839
1782814273682528500,8.993528564453126,0.007169160977005958,-0.016820201897621154,0.09244365295758471
1782814273702609700,9.013609619140626,0.010856909579038619,-0.006109057464823126,0.07374597588344477
1782814273722691600,9.033691650390624,0.00391045144200325,-0.008484773620218038,0.06989203126849607
1782814273742772500,9.0537724609375,-0.03775134624540805,-0.02386836684346199,0.06109021845520474
1782814273762854700,9.073854736328125,-0.06514496460556983,-0.0018006196811795234,0.028448726036818698
1782814273782935600,9.093935546875,-0.016128127980232238,-0.018990093282610178,0.04679136999505572
1782814273803017700,9.114017822265625,0.08375204991996288,-0.02234174179807305,0.017165932895638978
1782814273823098400,9.134098388671875,0.08169570191204548,-0.039880321098119016,0.023438030868489293
1782814273843180500,9.1541806640625,-0.12498130140900611,0.042542964436113835,0.016422454159642802
1782814273863261400,9.174261474609375,-0.13361878137290478,0.0487839046522975,0.03333168033936527
1782814273883343400,9.19434326171875,-0.031029929035902022,0.02793079397678375,0.05069891252734232
1782814273903424500,9.214424560546876,0.09606149639487266,0.015758710145950316,0.06119156907098367
1782814273923506400,9.23450634765625,0.09032967474460601,-0.021035481505095956,0.029239223393960855
1782814273943587600,9.254587646484374,0.052910921454429626,0.036230566418915984,0.0763011722250143
1782814273963669500,9.27466943359375,0.006025836160778999,0.07692249616086483,0.09340355663145891
1782814273983750700,9.294750732421875,0.011146832436323166,0.03705240419581532,0.005843151379009941
1782814274003832600,9.31483251953125,0.10050269371271132,-0.04506780673861503,0.011506009721092414
1782814274023913700,9.334913818359375,-0.01995616183578968,-0.004142945023626089,0.07629790712227114
1782814274043994400,9.354994384765625,-0.24869828197062013,0.04587693116441369,0.011064501614845358
1782814274064076500,9.37507666015625,-0.17109306424260137,-0.011936667639762163,-0.04337214983582962
1782814274084157400,9.395157470703126,0.008477320966124535,-0.061901744900643825,-0.023269483068282713
1782814274104239400,9.4152392578125,0.07184650807082653,-0.060273851437866684,-0.009486355873951106
1782814274124320500,9.435320556640624,0.00791150377690792,-0.038567338803410525,0.029191452429210764
1782814274144402400,9.45540234375,-0.01082242278754711,-0.007816080578416585,0.0025988899236457654
1782814274164483600,9.475483642578125,-0.037840193572640415,-0.004441781839728355,0.023204952764976767
1782814274184565500,9.4955654296875,-0.05486030195653438,0.0382080039717257,0.03705451623779954
1782814274204646700,9.515646728515625,0.01775192978978157,0.02904211621955037,0.104542214894481
1782814274224728600,9.535728515625,0.03861000890135765,0.0060856035239994525,0.0799754996564705
1782814274244809700,9.555809814453125,0.024953823992609977,0.003997691334038973,0.06965215353143867
1782814274264891600,9.5758916015625,-0.00846446148455143,0.02464183543398976,0.07665506826317868
1782814274284972500,9.59597265625,-0.03585983341038227,-0.0002358545824885368,0.08019460403355769
1782814274305054500,9.616054443359374,-0.06314531522095203,-0.02380377717465162,0.041224648379161954
1782814274325135400,9.63613525390625,-0.031227497434616086,-0.029010698167979715,0.027100373317918272
1782814274345217800,9.6562177734375,-0.051499885612726205,-0.01200315700471401,0.05248454926852136
1782814274365299700,9.6762998046875,-0.07354395963847636,0.013457009074836969,0.031062755876558365
1782814274385380900,9.696380859375,-0.02128945626616478,-0.014272709371894596,-0.0014551438406662782
1782814274405462800,9.716462890625,-0.006323357802629471,0.002686754865944385,0.013461303940752987
1782814274425543700,9.736543701171875,-0.017148703199625016,0.03249868641421199,0.031532531096064485
1782814274445624800,9.756624755859375,0.0060118076354265205,0.01573167600855231,0.028659551209327762
1782814274465706800,9.776706787109376,0.08586918820440768,-0.03617956688404083,-0.002415782162657706
1782814274485788000,9.796787841796874,0.07209843700528144,0.011649959652870892,0.016613631633477052
1782814274505869800,9.816869873046874,0.06361760890781878,0.03968333722129464,0.04116809588633477
1782814274525950700,9.83695068359375,0.10972411104440688,0.003190174343436956,-0.0005412421536748297
1782814274546033000,9.857032958984375,0.10928571962714195,-0.043028117604553696,0.01949853142851498
1782814274566113800,9.87711376953125,-0.13500351372957228,0.016757073533535,0.05315453921826556
1782814274586195700,9.89719580078125,-0.23521628458499907,0.017398878568410873,0.0010399699011461052
1782814274606276900,9.91727685546875,-0.17035013692080975,0.0474972258426249,-0.005543360148259671
1782814274626358800,9.93735888671875,-0.06982289328873158,0.01580985581129789,0.07480623009267728
1782814274646439700,9.957439697265626,0.04847030865848064,-0.025854718355089425,0.018099891560792458
1782814274666521900,9.97752197265625,0.07371814716160296,-0.012624211512506008,0.004168101441535691
1782814274686602800,9.997602783203124,-0.020023966374993322,-0.00317716873139143,0.02959214218459092
1782814274706685000,10.017684814453125,-0.19627660533785818,0.09659531101062893,0.05483859244822524
1782814274726765800,10.037765869140625,-0.01513853242099285,0.022081629557162523,0.06878922569232526
1782814274746847700,10.05784765625,0.16643559382557868,-0.01291924893632531,0.12169738436751067
1782814274766928600,10.0779287109375,0.13226152154505252,-0.02154606137573719,0.04436270894287154
1782814274787010600,10.098010498046875,-0.06002513737380504,-0.016491992856562138,0.0440526337801246
1782814274807091700,10.118091796875,-0.16088672752678393,0.023208295499533415,0.009384215240305638
1782814274827173600,10.138173583984376,-0.05402618921995163,-0.020310528231412172,0.013620374951494159
1782814274847254800,10.1582548828125,-0.1711228748589754,-0.04669730763658881,0.013659969459654529
1782814274867336700,10.178336669921874,-0.42530864832997317,0.09196662829667329,-0.06670267434238922
1782814274887417900,10.19841796875,-0.20654373233020304,0.1510821034796536,0.1775410713382065
1782814274907499800,10.218499755859375,0.08152268343269825,-0.02594824185743928,0.12398412533150985
1782814274927581000,10.238580810546875,0.21259937910735605,-0.08577800278961659,-0.072195234743529
1782814274947662800,10.258662841796875,0.3848287539035082,-0.10021364763826131,-0.031081330429576337
1782814274967744000,10.278743896484375,0.39178690247833725,-0.053771922197937964,-0.00711761687779217
