time,seconds_elapsed,z,y,x
1782816217820853500,0.067853515625,-0.39238077671825883,-0.02680003638118505,-0.30971005576159805
1782816217840935400,0.087935302734375,-0.8102589827865362,0.04856675477027893,-0.24245631884112953
1782816217861017300,0.108017333984375,-0.8228355557650328,-0.20860884816646574,-0.6251838626816868
1782816217881099500,0.128099609375,-0.12153203773796557,-0.16917700148820877,-1.036259476063028
1782816217901180400,0.148180419921875,0.04464753549993038,0.3070706837013364,-0.6435637881767005
1782816217921262600,0.1682626953125,-1.1043722774982452,0.6227791396275162,-0.8568854171440005
1782816217941344500,0.188344482421875,-1.3001298273980617,1.019164475812018,-0.39346038864850996
1782816217961426400,0.208426513671875,-1.9086352347403763,1.139975505799055,-0.12850801423043012
1782816217981507300,0.22850732421875,-2.1001649378120897,1.2589429537460206,-0.039509880350530144
1782816218001589200,0.24858935546875,-1.737469105261564,1.5386106667369603,-0.18388181866705416
1782816218021671200,0.268671142578125,-0.32583062148988245,0.5414321050226688,-0.48090544786751266
1782816218041753300,0.28875341796875,1.710205250760913,-1.3620675203949213,-1.7353811930716037
1782816218061834200,0.308834228515625,3.4198376700699327,-2.21660666667372,-3.141131203326583
1782816218081916400,0.32891650390625,5.4504409958779805,-1.2429308533608914,-2.992946136462688
1782816218101998300,0.348998291015625,5.103802564159035,-1.5320625602677465,-2.248130224445462
1782816218122080300,0.369080322265625,3.1625960161596534,-1.6937623577430843,-1.9371914671391248
1782816218142161400,0.389161376953125,0.7127203995764255,-1.5126310068279505,-0.291409004189074
1782816218162243300,0.409243408203125,-1.88649120747149,0.20507950499653815,0.5185767146140337
1782816218182325200,0.4293251953125,-0.9821733002841472,2.2367867003932593,-0.6725619921892881
1782816218202407200,0.4494072265625,2.9321149434030054,1.816804800044,-1.0545718892797826
1782816218222488000,0.469488037109375,1.837655572631955,0.21143238115459678,1.5884630774036048
1782816218242570200,0.4895703125,-1.0273509971380232,0.43972208134680985,3.19098741338551
1782816218262652200,0.509652099609375,-2.4491344428271056,0.5757064228072762,0.8155173417061566
1782816218282734000,0.529734130859375,-1.9145137713849543,0.661927054797858,0.28580928448587656
1782816218302815200,0.549815185546875,-1.6192589054226874,1.0864531744480133,-0.05197130251675844
1782816218322897200,0.569897216796875,-2.762161696845293,2.567316877876222,0.050933191640675064
1782816218342979000,0.58997900390625,-2.9095009605348108,3.541323822839558,-0.2077618759483099
1782816218363061200,0.610061279296875,1.1054051276773214,3.1393916661828754,-0.8320125494331121
1782816218383142100,0.63014208984375,1.060561777344346,1.1793829486884175,-1.2888581995382904
1782816218403224300,0.650224365234375,2.7301842578262088,-1.4870442917592823,0.10892331605553626
1782816218423306200,0.67030615234375,1.3332985220283269,1.066017850793153,-0.08934986992701888
1782816218443388200,0.69038818359375,1.9823440295517443,-0.03744681034088135,1.3480515622630715
1782816218463469300,0.71046923828125,1.6451193228662013,-1.374459384456277,2.3392354136072098
1782816218483551200,0.73055126953125,2.1037363665580746,-2.5185230363518,2.0377321547746656
1782816218503633200,0.750633056640625,1.4244763380348682,-3.2881767447665333,1.7014438521564006
1782816218523715300,0.77071533203125,0.9028244537591934,-3.0525530484244228,2.5074045532271265
1782816218543796200,0.790796142578125,1.8142302733808755,-0.3436080875797197,1.1813694463305175
1782816218563878400,0.81087841796875,1.7696996422588824,-0.2941151578752324,1.6261152010582387
1782816218583960300,0.830960205078125,0.8526216222196817,-0.6923509076993912,0.20704452145919203
1782816218604042200,0.851042236328125,0.1658171696662903,-1.2258940861031413,-0.22524989410489796
1782816218624123100,0.871123046875,-0.2918786675274372,-1.04162925946787,-0.274680681825988
1782816218644205000,0.891205078125,-0.8644219501286745,-0.5070799727614969,0.09103935738392174
1782816218664287000,0.911286865234375,-0.7720014405846596,-0.18513041222235188,0.46052996464110907
1782816218684369200,0.931369140625,-0.020068390038609503,-0.42941023842990395,0.5895333611730486
1782816218704450000,0.951449951171875,0.35254794802367684,-0.726745271667093,0.8635661370169371
1782816218724532200,0.9715322265625,-2.3242519256174563,-0.7139804826401174,0.2645596487734467
1782816218744614100,0.9916142578125,-6.147160693246126,-0.2429732553873211,-0.06771620333306491
1782816218764696000,1.011696044921875,-7.60583097730577,0.16326105544269084,0.127431178779155
1782816218784777200,1.031777099609375,-8.073121156796812,0.4018234355852008,0.007301409054547548
1782816218804859100,1.051859130859375,-9.347264894545077,0.20161416697353124,-0.334031390536949
1782816218824941000,1.071941162109375,-9.926894336014985,0.17443433749452233,-0.2620066032897681
1782816218845023200,1.092023193359375,-8.514663731569051,-0.10461612038090824,-0.28157515404745936
1782816218865104100,1.112104248046875,-6.759922588989138,-0.4978144970923662,-0.917893574205786
1782816218885186300,1.132186279296875,-6.341086351543664,-0.8759978216320276,-0.8463067399844527
1782816218905268200,1.152268310546875,-6.99030312398076,0.15526991055831313,-0.49724122724905606
1782816218925350100,1.17235009765625,-5.425048780468106,0.9859018192879855,0.12929083517119289
1782816218945431300,1.192431396484375,-1.0277356125414372,0.68827342912741,0.3753438633300364
1782816218965513200,1.21251318359375,2.3330115706562995,0.591130530703999,-0.35190322037935257
1782816218985595100,1.23259521484375,1.1730705506712198,1.946407916034758,0.15636705814525484
1782816219005677300,1.25267724609375,0.25250118138492106,2.3264167024359104,1.0081064907029271
1782816219025758200,1.27275830078125,3.3019173930883405,1.6598365611352026,0.31101226093396545
1782816219045840400,1.29284033203125,6.31886341381967,0.07778548793205992,-0.8602801741488277
1782816219065922300,1.31292236328125,8.037229174682498,-0.884820302774012,-0.8785711792513727
1782816219086004200,1.333004150390625,9.213245131155848,-1.1366796791240572,0.020859668280463664
1782816219106085400,1.35308544921875,10.475359408414363,-1.0542304554309696,0.5154239496715367
1782816219126167300,1.373167236328125,11.3649362580657,-0.9728997143737971,0.20313012449443338
1782816219146249200,1.393249267578125,11.415744069761038,-0.7016001628860831,-0.10188552637323736
1782816219166331400,1.413331298828125,10.80224626095891,-0.08592179517447948,-0.3079823551861569
1782816219186412000,1.433412109375,9.830540578675269,0.8339455633223056,-0.5545737645380199
1782816219206494500,1.453494384765625,8.627968623709679,2.1661359779782594,-0.47878626375645394
1782816219226576600,1.47357666015625,7.435403098973631,2.362370936131477,-0.4043021006584167
1782816219246658600,1.493658447265625,2.3454022656738758,2.7536595336988565,-0.25830146516151725
1782816219266739700,1.51373974609375,-5.9995671625345945,3.4081276507928964,0.8538647541485727
1782816219286821600,1.533821533203125,-8.181212698203325,3.419268053488433,3.023774405446648
1782816219306903600,1.553903564453125,-4.936956051445007,2.024789671093225,3.4664015605852008
1782816219326984700,1.573984619140625,-1.9193945291638372,-0.32684389018565413,2.773985697890818
1782816219347066600,1.594066650390625,-6.181310800129175,-5.248859269869327,-0.08881444787606596
1782816219367148500,1.6141484375,-12.452367922157048,-3.8173230764508244,-4.047736344668269
1782816219387230700,1.634230712890625,-14.39982534724474,-1.7733710242480039,-4.183568710437417
1782816219407311600,1.6543115234375,-10.045347696959972,-1.569639426729083,-3.155885120344162
1782816219427393800,1.674393798828125,-5.3596787749350066,-2.8242858523249623,-2.541106039559841
1782816219447475700,1.694475830078125,-3.0749089648783205,-4.5973441573619835,-3.1004034716188906
1782816219467557600,1.7145576171875,-1.2288929756581783,-5.295176784408092,-4.173682691717148
1782816219487638800,1.734638671875,0.0351525619238615,-4.802112696713209,-3.594834463752806
1782816219507720700,1.754720703125,1.9817396339178084,-4.144334724418819,-2.0619477276206015
1782816219527802600,1.774802734375,5.091532865172624,-3.028788726477325,-0.460567008715868
1782816219547884800,1.794884765625,6.0567222974300385,-2.5127421148627995,0.8742802040591835
1782816219567965700,1.814965576171875,6.801753898024558,-2.2093350682355464,1.0387324420478194
1782816219588047600,1.835047607421875,7.399388367262482,-2.0453465753011404,0.5174263755351305
1782816219608129800,1.8551298828125,7.790789485293626,-1.4820293862067162,0.15734390382077543
1782816219628211700,1.875211669921875,8.412811376813053,-0.7723485004566609,-0.23770947137391193
1782816219648292600,1.895292724609375,8.810745696005224,-0.0003203294119914062,-0.7980086460877209
1782816219668374500,1.91537451171875,7.434525147095322,0.6009861908186227,-1.5995602254793047
1782816219688456400,1.93545654296875,3.338205681043863,2.103010682632029,-2.486282562482357
1782816219708538600,1.95553857421875,-3.772166422384977,3.5875095276921987,-1.9155355156481264
1782816219728619500,1.97561962890625,-7.631814144346118,4.338273826719821,-0.3689517511401325
1782816219748701700,1.99570166015625,-6.248619080248475,3.202982094822824,1.4919463845871388
1782816219768783600,2.01578369140625,-6.166161746314168,3.115224024131894,0.6518150453019886
1782816219788864500,2.035864501953125,-6.808526753160357,0.510823689334467,1.7566634889446198
1782816219808946700,2.05594677734375,-7.057993681415915,-1.559369523257762,0.5255879816155881
1782816219829028600,2.076028564453125,-10.124611203289032,-1.4060184519328176,-2.1801263632774353
1782816219849110500,2.096110595703125,-9.143181414848566,1.815739362769574,-2.435890491981059
1782816219869191700,2.116191650390625,-6.587420242470502,3.8587805837377904,-1.1893028696782886
1782816219889273600,2.136273681640625,-2.566431034952402,3.7811978701025244,0.22078823852092028
1782816219909355500,2.15635546875,1.398980077728629,1.6318595899291335,1.1820469072006643
1782816219929437700,2.176437744140625,4.5642350839644665,-1.8456930408760903,1.552368120063096
1782816219949518600,2.1965185546875,6.257998318490386,-2.863314378899336,0.49123964874669906
1782816219969600800,2.216600830078125,5.8220636467278,-3.0703651839688417,0.4491672244317829
1782816219989682700,2.2366826171875,5.334369561633467,-3.527369824028015,1.8672979928322135
1782816220009764600,2.2567646484375,5.410795798709988,-3.4969968975961208,2.559461780461669
1782816220029845800,2.276845703125,6.152717158329486,-2.8994208805471655,2.7085715609550474
1782816220049927700,2.296927734375,6.98347883091867,-2.2680200430467723,2.15024399684146
1782816220070009600,2.317009521484375,6.924907399484515,-1.9064172664299606,1.6566772203214466
1782816220090091800,2.337091796875,5.943239710634947,-1.2697563164442778,0.7701664802424609
1782816220110172700,2.357172607421875,4.588779158112406,-0.2723633082617074,0.20347206979990004
1782816220130254800,2.3772548828125,1.3800351387619971,1.5583815351337194,-0.24374679704308508
1782816220150336800,2.397336669921875,-6.504635576277971,2.8060224658817052,0.35993878892734643
1782816220170417700,2.417417724609375,-10.315055449211597,3.3142098884284494,1.511594211126119
1782816220190499600,2.43749951171875,-10.878810445201397,1.4626492706932126,1.8594694911636411
1782816220210581200,2.457581298828125,-11.437620386004447,0.26010241363625974,-0.8008831055454909
1782816220230663400,2.477663330078125,-11.249537608516215,0.9684092710867523,-3.7091789280742407
1782816220250744300,2.497744384765625,-12.141789230334759,-1.461069015764445,-2.5512021938994525
1782816220270826200,2.517826171875,-9.305723508366942,-1.449127233558148,-1.3573948524087667
1782816220290908400,2.537908447265625,-5.411353432592749,-0.13173747940463945,-0.8333804767854511
1782816220310990300,2.557990234375,-3.5357898618489503,-0.7149454552147537,0.6731614193871617
1782816220331071500,2.578071533203125,-1.8233067292839287,-1.355167531748116,-1.759060759344697
1782816220351153400,2.5981533203125,-3.5830461185425517,-1.7163433151245115,-4.809885668802261
1782816220371235300,2.6182353515625,-6.848325679585337,-0.025591975765675304,-3.6421804445564745
1782816220391317200,2.638317138671875,-7.125434648004174,-0.4321979694522917,-1.2652652886353433
1782816220411398400,2.6583984375,-3.8962726945251225,0.1738265808597207,-0.8596037361919879
1782816220431480300,2.678480224609375,0.5791752679616212,0.8314929094731808,-1.1168055695485324
1782816220451562500,2.6985625,4.645355616337061,1.369993491088599,-2.19151226516664
1782816220471644400,2.71864453125,7.513665319305658,1.6782235739581286,-3.158480689795315
1782816220491725600,2.7387255859375,8.637816648507117,2.4151124923683702,-3.187485250483453
1782816220511807500,2.758807373046875,8.755244758057593,3.810352068394422,-2.185078140465915
1782816220531889400,2.778889404296875,8.80038563003242,5.4646752729356285,-0.8389099077314138
1782816220551970600,2.798970458984375,8.951671000999212,6.011826340126991,-0.3904842954471707
1782816220572052500,2.819052490234375,9.003815614256263,6.880259863984584,-0.0837429806975182
1782816220592134400,2.839134521484375,8.679864815163612,7.874174455466866,1.261094871082902
1782816220612216600,2.859216552734375,7.474983414211869,6.501694262129068,3.4704113807484505
1782816220632297500,2.87929736328125,8.402797932320833,4.353220051439107,5.609796860575676
1782816220652379400,2.89937939453125,9.726776252818107,2.598071204841137,6.476237749311328
1782816220672461600,2.919461669921875,4.050011888384819,1.93075675791651,6.521425383037329
1782816220692543500,2.93954345703125,1.6225579469680784,0.4601289095595479,7.220718145763874
1782816220712624400,2.959624267578125,3.1062896070480344,0.0999029742538929,6.136178695982694
1782816220732706300,2.979706298828125,5.982922901725769,3.3885809465408325,3.407929497872293
1782816220752788200,2.999788330078125,6.409729095137119,5.37380900709629,0.4009393462270498
1782816220772870400,3.019870361328125,4.672139578366279,5.144229267093539,-1.8150643861174582
1782816220792951300,3.039951416015625,-0.0723269850641489,4.875187285274267,-1.6573098191365598
1782816220813033200,3.060033203125,-3.5677497652113437,6.388946419349312,-3.4018209518641234
1782816220833115400,3.080115478515625,-1.3183493746995925,5.413529023066163,-6.608970395499467
1782816220853197300,3.100197265625,0.11639584389328955,1.0229140376038848,-7.057417927354574
1782816220873278500,3.120278564453125,-5.7396916529893875,-0.940967283540219,-5.961662671554088
1782816220893360400,3.1403603515625,-9.469940257099271,-1.6685931374341247,-5.9396887401551
1782816220913442300,3.1604423828125,-9.087505704855918,-2.750614759175479,-4.68332732733488
1782816220933523500,3.1805234375,-6.290293737417459,-2.0483562785111364,-2.6312761398285627
1782816220953605400,3.20060546875,-3.559453061509132,-2.2439007701821625,-1.3537651176042853
1782816220973687300,3.220687255859375,-0.1772358047813177,-2.7678075937777757,-0.9373436862155795
1782816220993769500,3.24076953125,2.2516052070796486,-3.098899496796727,-1.348591368228197
1782816221013850400,3.260850341796875,2.1341613154381514,-2.403735212177038,-0.6914508901197463
1782816221033932500,3.2809326171875,0.48922436340153214,-0.9720908822089434,0.5557412008821964
1782816221054014500,3.301014404296875,-1.6446435220479965,0.4618946405904367,1.709939439431578
1782816221074096400,3.321096435546875,-3.206920311054587,0.9517572653628885,2.715765564112365
1782816221094177500,3.341177490234375,-1.8986556925177573,-0.8351733515515923,2.6195485848948357
1782816221114259500,3.361259521484375,-0.42664369632601734,-1.8260699103869498,3.3893431630849835
1782816221134341400,3.38134130859375,-2.7428730590075254,-2.365731498605758,3.121365303365886
1782816221154423600,3.401423583984375,-6.95732965966165,-1.6258184100687503,3.4444247065767644
1782816221174504200,3.421504150390625,-10.885523094582558,3.305174641318619,1.7194725530609487
1782816221194586600,3.441586669921875,-11.585837601572274,6.565757861238717,0.6129516461614519
1782816221214668500,3.46166845703125,-8.900934500974417,2.8296175687417384,-0.5077061418358236
1782816221234750500,3.48175048828125,-6.2376926125645635,-2.312350183160603,-2.5475191214725372
1782816221254831600,3.50183154296875,-7.790925678893923,-3.026076252648234,-4.973692667689919
1782816221274913500,3.52191357421875,-8.309026592689753,-2.6347078678429123,-2.9826281560659407
1782816221294995500,3.541995361328125,-3.2138556632757185,-2.0971569881677627,-1.0256380557402969
1782816221315076600,3.56207666015625,3.677336513611674,-1.6804066170856355,-0.33650647541359063
1782816221335158500,3.582158447265625,7.755562689089775,-1.939660487601161,0.19859786962596698
1782816221355240700,3.60224072265625,9.31896877438724,-1.629172396671772,0.7359008572209625
1782816221375322600,3.622322509765625,9.727918993112445,-1.0457819952331482,1.303461163777858
1782816221395403500,3.642403564453125,9.235727596598863,-0.9402638114459813,1.2415256627380846
1782816221415485700,3.662485595703125,8.809996923464537,-0.46534240642413494,0.7334612089838832
1782816221435567600,3.682567626953125,8.546329035899042,0.28169856123141945,0.40779513040594756
1782816221455649500,3.7026494140625,7.3938506068795915,2.1495471006184816,1.1291486990973352
1782816221475730400,3.72273046875,5.530846657979488,4.038810110890865,2.014117324300855
1782816221495812400,3.742812255859375,4.61268142722547,3.7415775151148436,2.1028458474591374
1782816221515894500,3.76289453125,4.492739873549342,0.23974684068672358,1.9545083665125071
1782816221535976400,3.7829765625,-1.2144821729898452,-2.6139821829393504,1.2156709443829954
1782816221556057300,3.803057373046875,-9.096538321617246,-0.8923365966882556,0.14417422378733755
1782816221576139500,3.823139404296875,-10.34707322024107,0.7209201457101851,-1.0195935879442841
1782816221596221400,3.843221435546875,-8.080833338609338,-1.217678923204541,-1.6649772850245237
1782816221616302600,3.863302490234375,-6.507358863762021,-3.7042519930660722,-3.9967102140471336
1782816221636384500,3.883384521484375,-8.187121045464277,0.5110997663294896,-4.656487835726142
1782816221656466400,3.903466552734375,-6.829343915739655,2.5686452038705347,-0.8069700242437422
1782816221676548600,3.923548583984375,-7.701850972646475,1.1231390834189952,0.8635786311723291
1782816221696629500,3.94362939453125,-7.593250312674045,-0.2080772255077958,-0.07804828532040119
1782816221716711400,3.96371142578125,-5.347863249456882,-0.5490330815456808,0.34444910498112435
1782816221736793600,3.983793701171875,0.28113164806365964,-1.294191084998846,1.2665714027978479
1782816221756875500,4.00387548828125,4.313656395074725,-1.939518448781967,1.4175776645623146
1782816221776956700,4.023956787109375,6.549730855545401,-1.6248422585129736,1.6081953673556446
1782816221797038600,4.04403857421875,8.132295814821124,-1.0289699766419826,1.872434332807362
1782816221817120500,4.06412060546875,9.12650091368258,0.3068841481532901,2.21639185487926
1782816221837202400,4.084202392578125,9.779894095021486,0.3346192003622651,2.9371874243617055
1782816221857283600,4.10428369140625,10.0320159217,0.5932240323845297,3.0534780543148514
1782816221877365500,4.124365478515625,10.048794038021564,0.9683198392376303,2.0582037187866864
1782816221897447700,4.14444775390625,9.31656112872362,0.6105622668068855,1.1133549176380038
1782816221917529600,4.164529541015625,8.04722040734291,-0.37990444924384353,0.49765086749587206
1782816221937610800,4.18461083984375,3.3527906712353226,-0.87385547584109,-0.6147259623575956
1782816221957692700,4.204692626953125,-6.606078181189298,1.7351041296958922,-2.903512533774972
1782816221977774600,4.224774658203125,-13.003318381631374,3.4361236189603805,-3.1864795805722474
1782816221997855500,4.24485546875,-9.387557157444954,1.4625726983256637,-3.064721625123918
1782816222017937400,4.2649375,-6.081208503910899,0.42810646235495803,-4.731042433711886
1782816222038019300,4.285019287109375,-5.424897973820567,-2.045331523862481,-4.099728982234001
1782816222058101500,4.3051015625,-2.75192847212255,-2.1241977014370264,-4.394754131093621
1782816222078182400,4.325182373046875,-0.024849779096245764,1.42216952239722,-5.428026919496059
1782816222098264600,4.3452646484375,-0.7304290747463703,7.454283740532397,-2.180538451209664
1782816222118346500,4.365346435546875,-7.660910474970937,9.873739084410667,3.7123102118372917
1782816222138428400,4.385428466796875,-14.479998369634151,5.972855681219697,5.0440603353798386
1782816222158509600,4.405509521484375,-15.952666199386119,3.110809714820981,2.84268864723891
1782816222178591500,4.425591552734375,-8.615906429994105,0.6866612446904182,2.64853239505589
1782816222198673400,4.44567333984375,0.140707278329134,0.4236208413735032,1.8156620597496627
1782816222218755300,4.46575537109375,6.190193194764852,0.709935152772069,1.4304386074401438
1782816222238836200,4.485836181640625,9.930166489553452,1.6404837720200418,1.5094637749686837
1782816222258918400,4.50591845703125,12.131579971009492,1.722953965435922,1.7796159099869429
1782816222279000300,4.526000244140625,13.10278530255556,2.020802501153201,1.2544744300298392
1782816222299081200,4.546081298828125,13.74813487817049,2.5020406881064177,1.3471259718507527
1782816222319163400,4.566163330078125,13.876753074777126,2.2584332995340226,1.7080029184110461
1782816222339245300,4.586245361328125,13.438455181014538,1.8127315592557192,1.5502980357907712
1782816222359327200,4.6063271484375,12.316823141157627,1.0509432504538445,1.0729232462674378
1782816222379408400,4.626408447265625,9.400511331564188,0.44908078825734554,1.384281251899153
1782816222399490300,4.646490234375,0.9683382516771555,1.6238845193967222,1.6857342418491839
1782816222419572500,4.666572509765625,-8.295784833800791,2.125316037942469,-1.517960092896223
1782816222439654400,4.686654296875,-9.690977209684252,-1.3145891453832388,-2.637840320649743
1782816222459735300,4.7067353515625,-4.827860301432013,-5.433835313513875,-3.210486479103565
1782816222479817500,4.7268173828125,-1.8072078273981809,-9.390019163644313,-4.593911260303854
1782816222499899400,4.7468994140625,-8.151375778344272,-9.20820655246675,-9.831702608191966
1782816222519981300,4.766981201171875,-17.874447915947435,-1.541686420920491,-8.80728532641828
1782816222540062500,4.7870625,-21.41080534855127,6.388135687488317,-3.6555063745975493
1782816222560144400,4.807144287109375,-19.41849989695549,6.552180002263188,3.814280640015006
1782816222580226300,4.827226318359375,-15.24080972316265,3.5071205244645474,4.902399117326736
1782816222600307200,4.84730712890625,-9.094007926356792,2.236552891637385,3.9396635079622264
1782816222620389000,4.86738916015625,-1.0872107148170471,1.243043081563711,3.7725565907463428
1782816222640471300,4.88747119140625,5.439813218879699,1.195344780191034,3.735987440022826
1782816222660553200,4.90755322265625,9.804060568028687,1.4777728978060185,3.2925551059812306
1782816222680634400,4.92763427734375,12.403774279379844,1.7241837994918225,2.467404259011149
1782816222700716300,4.94771630859375,13.59277831224203,2.21781896507293,2.0147807566456497
1782816222720798200,4.967798095703125,13.525450742900372,2.9740573115974662,-0.12783402395900337
1782816222740880100,4.987880126953125,15.804550690627098,3.974993180018663,-3.2037510333687065
1782816222760961300,5.007961181640625,16.014589279335738,2.971557311475277,-3.6520667555376884
1782816222781043200,5.028043212890625,15.550236906862258,3.2715140715181827,-2.8621342292040586
1782816222801125400,5.04812548828125,13.176187223374843,3.631027182379365,-1.0560421079628168
1782816222821207300,5.068207275390625,8.717492242768406,3.67130190962255,-0.9560526975344866
1782816222841288400,5.088288330078125,5.80443914270997,0.8186990404821932,-2.3970399523220953
1782816222861370400,5.108370361328125,-3.4892496444702146,0.04117752130180597,-3.166998635032773
1782816222881452300,5.128452392578125,-8.866970272052287,-0.37129765667915343,-1.5374112278193235
1782816222901533400,5.148533447265625,-6.536661530613899,-1.636384227746725,2.210579223077744
1782816222921615400,5.168615478515625,-3.872317818441987,-4.770653728610277,3.0447184092760082
1782816222941697300,5.188697265625,-3.290014189326763,-8.373472469115256,-0.09692103583365679
1782816222961779500,5.208779541015625,-2.767648019301891,-13.375070796340703,-6.433880955097079
1782816222981860400,5.2288603515625,-6.0849237250417465,-6.98111034822166,-10.240221449762583
1782816223001942300,5.2489423828125,-10.084854362440108,1.332599872239679,-8.36604494946301
1782816223022024400,5.2690244140625,-16.255037034833432,6.236701847961545,-3.283820595383644
1782816223042106400,5.2891064453125,-17.864776416760684,8.981274112102389,2.1478420502662656
1782816223062187500,5.3091875,-13.93403621996641,4.880033848522603,3.998391591262817
1782816223082269400,5.32926953125,-6.086527653107047,3.4134850861728188,4.420255652096867
1782816223102351400,5.349351318359375,0.409993590298295,1.6292589059114455,3.464942593948543
1782816223122432300,5.369432373046875,5.399644874620438,1.3404045546412466,2.2795552902787923
1782816223142514200,5.38951416015625,7.950123138159513,1.6868607616610825,1.3122932895310222
1782816223162596400,5.409596435546875,9.807449625945091,1.7544412828505038,0.668459233045578
1782816223182678300,5.42967822265625,11.031145032960175,2.164292103677243,0.6882351429436355
1782816223202759200,5.44975927734375,11.911022326374054,2.4988737485080956,0.9093678109880536
1782816223222841300,5.46984130859375,12.340082436192034,2.656656080278754,0.9853403860129415
1782816223242923300,5.48992333984375,12.583040128684043,2.911947476904094,0.7152646041665226
1782816223263005200,5.510005126953125,12.174070036214589,3.3101118054598566,0.5411026904052123
1782816223283086300,5.53008642578125,11.436441989874838,3.042436143557727,0.774962701543048
1782816223303168300,5.550168212890625,9.696171271196008,2.618471895574033,2.3738581064380706
1782816223323250200,5.570250244140625,2.119796689999103,1.6739401975505053,2.45862795509845
1782816223343332400,5.590332275390625,-9.398715095797181,0.8068916983105242,-1.9785341158747671
1782816223363413200,5.610413330078125,-12.10159633615613,-3.8021214156657455,-5.503218646341562
1782816223383495400,5.630495361328125,-11.568185040503739,-6.291472718068957,-5.6306777360409495
1782816223403577300,5.650577392578125,-9.470557512214778,-8.193886301815509,-5.348199934065342
1782816223423659300,5.6706591796875,-7.16634124341011,-8.1594392578125,-5.377213262581825
1782816223443740400,5.690740478515625,-8.990883067446946,-4.905098439413309,-4.908087684357166
1782816223463822300,5.710822265625,-8.259869470810889,-1.182635009286925,-5.937314996761083
1782816223483904300,5.730904296875,-8.059442760056257,1.5633711601145566,-4.897345048807561
1782816223503986400,5.750986328125,-5.122020357894897,3.616636253455281,-2.043639479122311
1782816223524067000,5.771067138671875,-0.3652548693835735,2.2248625999741254,0.6474374878048896
1782816223544149200,5.791149169921875,3.7066795124739405,1.43889430109635,1.5975338342182337
1782816223564231200,5.811231201171875,6.1323956703126425,1.3534677420929073,1.347787650629878
1782816223584313300,5.831313232421875,7.92964967445135,1.7488322107970713,0.692515815937519
1782816223604394200,5.851394287109375,9.558997427690029,2.2974841840706763,0.15767423175368456
1782816223624476200,5.87147607421875,10.962275494873523,2.9166677834242583,0.0865882231939584
1782816223644558000,5.89155810546875,11.42347963244915,3.2365973641768098,0.37310784790627655
1782816223664640300,5.91164013671875,10.85979945526123,3.7495863417863844,0.7889069096129387
1782816223684721200,5.93172119140625,9.593768881341814,4.075834311905503,1.8727860688544808
1782816223704803300,5.95180322265625,8.4318574380666,3.4302322228342295,2.5126067980453373
1782816223724885200,5.97188525390625,5.48899138354659,2.200371571187675,3.642731648698449
1782816223744967200,5.99196728515625,-0.5620002612769603,0.7425719324827194,2.8517253556534645
1782816223765048300,6.01204833984375,-3.4043624530404806,0.7828533817276359,0.7241947104014456
1782816223785130200,6.032130126953125,-4.825111879506707,-2.493389764139056,1.0475314692489803
1782816223805212200,6.052212158203125,-3.607216098681092,-6.057697279942035,1.4379010522753
1782816223825294300,6.07229443359375,-2.3784265833973883,-8.79346313729286,0.2136084100194275
1782816223845375200,6.092375244140625,-4.599779275554418,-7.823164983719587,-0.7998878839630633
1782816223865457400,6.11245751953125,-6.010818624389171,-5.5544274400532245,-1.5351405064083634
1782816223885539300,6.132539306640625,-6.115396020194888,0.20991671589463948,-3.5018320626676083
1782816223905621200,6.152621337890625,-3.6320723075181243,2.2571609415106475,-4.312418377712369
1782816223925702400,6.172702392578125,0.1090437275648117,1.8296030529491603,-3.392871337211132
1782816223945784300,6.192784423828125,0.8242103512495755,-2.1238984262295064,-3.26219445450902
1782816223965866200,6.2128662109375,-2.666594705969095,-2.1024146164350213,-5.065140532809496
1782816223985948400,6.232948486328125,-10.468225903272629,1.1488257517307996,-4.225102497830987
1782816224006029300,6.253029296875,-7.33370739608407,2.3418548023253676,-3.3908927306145427
1782816224026111500,6.273111572265625,-0.7784083850175142,2.26730604955852,0.22014153811521828
1782816224046193400,6.293193359375,4.659675818112492,1.982450997057557,2.621011935445666
1782816224066275300,6.313275390625,7.5863874411672345,1.845098874375224,2.8553157813608645
1782816224086356200,6.333356201171875,8.799125400838255,1.6936971835523842,2.868211211030185
1782816224106438100,6.353438232421875,10.341894356298447,1.1468870387531815,2.433728783902526
1782816224126520000,6.37352001953125,10.53683708268404,1.236040217064321,1.8520995469175279
1782816224146602500,6.3936025390625,10.562205332696438,1.1498858552429825,1.5540847147226333
1782816224166684400,6.413684326171875,9.906455943620204,0.45951735353246326,2.112808584677428
1782816224186765300,6.433765380859375,4.267694269844889,0.7501363763876259,1.9150817805312572
1782816224206847000,6.453846923828125,-1.836833150333166,0.5424324411716311,1.216505349380523
1782816224226929000,6.473928955078125,-5.811317211785912,-1.9347789991699158,0.7045972258102149
1782816224247011000,6.494010986328125,-7.579078579458594,-2.6443112702295184,-0.9871751271594316
1782816224267092000,6.514092041015625,-9.687037532147764,-2.522918933223188,-2.2361878577172756
1782816224287174000,6.534173828125,-10.054816951572894,-3.532838610827923,-2.7011767745286224
1782816224307256000,6.554256103515625,-9.511254848784208,-2.4917031262263656,-5.531251731649041
1782816224327338000,6.574337890625,-9.450494967395066,-0.6888612389527261,-7.666392705774307
1782816224347419100,6.594419189453125,-7.622717230176925,1.7576622907236217,-6.0327463785588735
1782816224367501000,6.6145009765625,-8.425483811381458,4.140451745505631,-2.6449220956042407
1782816224387583000,6.6345830078125,-6.228165490284562,3.0593142131224274,1.934805448785424
1782816224407665000,6.654664794921875,-2.3189830453038214,1.7071882410272954,2.13652249161154
1782816224427747000,6.6747470703125,1.0242869333922862,0.548275906502828,1.6840934889048338
1782816224447828000,6.694827880859375,3.7048295006930827,-0.2312759494613856,1.0182352321378887
1782816224467910100,6.71491015625,6.142438340899348,-0.0898874108698219,0.4332954093001783
1782816224487992000,6.734991943359375,8.451793726158142,0.17525312479780986,0.2161033686403185
1782816224508074000,6.755073974609375,10.552902082300186,0.6173159057855606,0.04445011323168874
1782816224528155100,6.775155029296875,11.800996602034568,0.8829436952471733,-0.1409625682644546
1782816224548237000,6.795237060546875,11.516334441757202,1.2965575218692422,-0.5276107196148485
1782816224568319000,6.815319091796875,10.564498996591567,1.6478515243090688,-0.5912201086835935
1782816224588401200,6.835401123046875,8.570607737109064,1.3638146563231943,-1.0428370278224348
1782816224608482000,6.85548193359375,4.262013886120915,0.20003011265248058,-0.4095641128398478
1782816224628564200,6.875564208984375,-2.2266122201204297,0.5652190771929919,-0.8460073186464607
1782816224648646100,6.895646240234375,-5.571784817567467,-0.3239212807372212,-0.5604501822907477
1782816224668728000,6.91572802734375,-6.527763938409089,0.07009323466271161,-0.2643427911523729
1782816224688809000,6.93580908203125,-5.946065289449692,-0.7430535785198211,-0.17956326134819536
1782816224708891000,6.955890869140625,-7.249719783842563,-1.5264453049078583,-0.4188318900639191
1782816224728972800,6.975972900390625,-5.887269401609897,-2.33111742747277,-0.6381540380876511
1782816224749055000,6.996054931640625,-7.131810612776875,-1.18557011289075,-0.9858600259728729
1782816224769137000,7.016136962890625,-8.243953524276614,1.4869175966396928,-2.361516511259228
1782816224789218000,7.036218017578125,-5.0525896787941456,3.4179362203627823,-2.526324065491557
1782816224809300000,7.056300048828125,-1.847349868172407,1.5605460196912289,-0.6310726284593343
1782816224829382000,7.0763818359375,2.977316021132469,-0.6822356833331287,0.6682341921180486
1782816224849464000,7.096464111328125,4.942119133296608,-2.2927669462904334,0.7285996673621237
1782816224869545000,7.116544921875,4.959500476208329,-2.3281544860139487,1.6484680487722156
1782816224889627000,7.136626953125,5.530165689978003,-2.0423539693564177,2.7435008355170485
1782816224909709000,7.156708984375,5.452919368690252,-1.5746008485287426,3.011883768905699
1782816224929791000,7.176791015625,4.640424005153775,-1.3291304425634443,2.1844493410430847
1782816224949872000,7.1968720703125,5.1090369576811785,-0.8954793516933918,2.0156335740827025
1782816224969954000,7.2169541015625,6.749125885164737,-0.6665481387272477,2.0102666402220724
1782816224990036000,7.237035888671875,7.606551108273863,-0.6291003054730594,1.4880971618130803
1782816225010118000,7.257117919921875,4.641531089612841,-0.08121734381057322,0.33387159686535595
1782816225030199000,7.277198974609375,0.3307219006627798,-0.08600603939183056,0.14802227751761673
1782816225050281000,7.297281005859375,-3.98738329051435,0.5341165213122964,-0.1676994032163173
1782816225070363100,7.317363037109375,-5.967884322547913,-0.09327040437161922,1.3726857989124952
1782816225090445000,7.337445068359375,-7.380144153088331,-1.172607609334588,1.9776991263553498
1782816225110526200,7.357526123046875,-7.713216416269541,-0.8041269097723066,0.891326469797641
1782816225130608000,7.377608154296875,-8.649176831433177,-1.790254646770656,0.4347612806016579
1782816225150690000,7.39768994140625,-8.308072068443893,-3.499383500471711,-0.2341949421806261
1782816225170772000,7.41777197265625,-12.125672792792319,-1.3950440534539519,-2.8435931948632
1782816225190853000,7.43785302734375,-13.138534661328793,1.6919098617441952,-4.422535287466645
1782816225210935800,7.457935791015625,-7.790065847194194,1.7648694456234573,-1.7345286678954959
1782816225231017700,7.478017822265625,-2.4465555322498083,0.6866507963616401,0.18839359700307248
1782816225251100000,7.498099853515625,-0.17007833424210547,0.12303053266741334,1.5118267047077416
1782816225271180800,7.518180908203125,0.9062070819348096,-1.0418988701894878,1.3467141761794685
1782816225291263000,7.538262939453125,2.284958026105165,-1.1530517719279973,0.8888441514626145
1782816225311345000,7.558344970703125,4.4978170306831595,-1.0366063167393207,1.084364677736163
1782816225331426800,7.5784267578125,7.550344067883491,-0.48035322081223125,1.4249182365834712
1782816225351507700,7.5985078125,9.729672558781504,0.15711290807649492,1.1992794892914593
1782816225371589600,7.618589599609375,10.631025770944357,0.36161899709925055,0.9483208611734211
1782816225391671600,7.638671630859375,10.323596483063698,0.5251246749527753,0.49595509642865504
1782816225411754000,7.65875390625,9.657046883031725,1.0462354380890726,-0.7427030845817179
1782816225431834600,7.678834716796875,8.421103404340148,0.8554244046807289,-1.0531547159582375
1782816225451916800,7.698916748046875,7.287864513319731,0.9195818195536732,-1.4582519125171005
1782816225471998700,7.718998779296875,4.744942364248633,0.4927526836581528,-1.1424845660105347
1782816225492080600,7.73908056640625,0.23589316093325613,0.6324816184744239,-2.2877824358761307
1782816225512161800,7.759161865234375,-5.063966812855005,-0.9542290623039007,-2.6269831188097594
1782816225532243700,7.77924365234375,-8.609054079881309,-0.6277496215164661,-1.0001710945937783
1782816225552325600,7.79932568359375,-8.16980750709176,0.23987667761147022,-1.038458155151084
1782816225572407800,7.81940771484375,-5.452448828569055,-2.0897265459060668,1.1732947148159145
1782816225592488700,7.83948876953125,-2.523419576221704,-4.493648220565915,1.4777633993253112
1782816225612571000,7.85957080078125,-6.948717898660898,-1.6447326616361737,-0.1445650132032111
1782816225632652800,7.87965283203125,-11.047655438256264,2.274279103441536,-0.35764172749873246
1782816225652734700,7.899734619140625,-6.8255795947700735,4.878399817579984,0.32947971858195957
1782816225672815900,7.91981591796875,-3.8912633419305083,3.2376632398426533,2.1833326119728387
1782816225692897800,7.939897705078125,0.7691273464530706,1.1765323815628885,2.033950736539811
1782816225712979700,7.959979736328125,3.2886873246371744,-0.7069138321895152,1.226243337932229
1782816225733062000,7.980061767578125,3.514944642218947,-1.22049478434287,1.4088672654926777
1782816225753142800,8.000142822265625,4.465417566859722,-1.2045566990420222,1.8340787370584903
1782816225773224700,8.020224609375,6.355506506562232,-0.9648208912059664,1.9077961535677312
1782816225793307000,8.040306884765625,8.089834975710511,-0.6352051251541823,0.4214552608374506
1782816225813388800,8.060388916015626,8.720969563490153,-1.0894761024657635,-0.026037016119435426
1782816225833470000,8.080469970703126,9.320959655943513,-0.9561584229312836,-0.33864505834486336
1782816225853551900,8.1005517578125,9.489985850784182,-0.6086672103079036,-0.596986892049387
1782816225873633800,8.1206337890625,7.960753837767243,-0.7257116908356547,-1.8970912196800112
1782816225893716000,8.140716064453125,4.238220338079333,-2.2045376048259437,-2.8995336932718754
1782816225913796600,8.160796630859375,-0.2576005503505468,-2.549166304157674,-2.0241724159777164
1782816225933878800,8.180878662109375,-4.8493537558376785,-0.5963533799188211,-1.3014585917837918
1782816225953960700,8.200960693359375,-7.495622297614813,0.31472127151973545,-0.545621884862706
1782816225974043000,8.22104296875,-7.0115557553678745,0.8691009747903794,-2.431288551143557
1782816225994123800,8.241123779296874,-5.525269734629989,0.22381474673524498,-2.9311402531519533
1782816226014205700,8.261205810546874,-4.376397805669903,-0.4088268846064806,-3.0625603554368017
1782816226034287600,8.28128759765625,-6.356421867841481,0.5438576516691594,-3.4981571735471486
1782816226054369800,8.301369873046875,-8.62442116036117,3.2529698223069308,-3.0402175907254216
1782816226074450700,8.32145068359375,-7.563415146380662,3.651000879871845,-1.1247221148267388
1782816226094532600,8.34153271484375,-4.656922720012068,2.4964649338006972,0.5472399145185947
1782816226114614800,8.36161474609375,-3.0688918965458867,2.045676391777396,1.739009904962778
1782816226134696700,8.38169677734375,-1.0117910244345665,2.028832516743243,2.775589333695173
1782816226154777900,8.40177783203125,1.0780565175026655,1.5806285843856631,2.5752581922695037
1782816226174859800,8.42185986328125,2.8411691825866696,0.5080982098933309,1.0708557923436164
1782816226194941700,8.441941650390625,2.041588830202818,-0.15939802333898842,-0.1722287902742624
1782816226215023000,8.462023193359375,1.707528725028038,-0.794938371796906,-1.3735076366893946
1782816226235104000,8.48210400390625,1.8241759133338926,-2.23975987098515,-1.4048140445791184
1782816226255186200,8.502186279296875,2.6883921117573975,-2.0212588666185733,-1.3699873536087572
1782816226275268000,8.52226806640625,2.141052828517556,-0.25093159398064013,-0.9041248688332736
1782816226295350000,8.54235009765625,1.8535598287284374,0.10637012444138526,-1.142613964543864
1782816226315431200,8.56243115234375,2.683018017503619,-0.6375771880477666,-0.9676679512001574
1782816226335513000,8.58251318359375,1.8491788371652365,-0.603420943684876,-0.5651362212151289
1782816226355595000,8.602594970703125,0.8014835556566715,-0.014171733215451239,-0.3158822781231254
1782816226375676000,8.622676025390625,-1.3882307201772928,0.575570813728869,-0.9106149615049361
1782816226395757800,8.6427578125,-2.4252380189329386,0.7844650547079741,-1.0195187691424041
1782816226415840000,8.662840087890626,-2.9010698167979716,1.1273302514985204,-0.5220400798756629
1782816226435922000,8.682921875,-2.3182249204128977,1.1238884404815732,0.4381368214493617
1782816226456003000,8.703003173828124,-0.33778292509019375,1.4244826216451822,0.07123111611884086
1782816226476085000,8.7230849609375,1.2002443888008594,1.2814488000646234,-0.033595980131626124
1782816226496167000,8.7431669921875,1.8716075265944003,0.7344079152494668,0.1619851354890503
1782816226516248800,8.763248779296875,2.4291537310719487,0.3960774392791092,0.06881988112549298
1782816226536330000,8.783330078125,2.1929531116247176,0.47285336657613514,0.20934087050175293
1782816226556412000,8.803411865234375,1.7137030297487974,0.5973132744595409,-0.26597738835057244
1782816226576494000,8.823494140625,1.977812815862894,0.4539683411031961,-0.6751918292362242
1782816226596576000,8.843575927734374,1.894654055660963,-0.336812618753314,-0.23903549581328407
1782816226616657000,8.863656982421874,1.8293547772765157,-0.737977298168838,-0.03062390551827848
1782816226636739000,8.883739013671875,1.1245002887696027,-0.5414715602502227,-0.1253965311463922
1782816226656821000,8.903821044921875,-0.16894903795123098,-0.1963961400642991,-0.2860316950649023
1782816226676903000,8.92390283203125,-1.4810311689496038,0.13841639091297983,-0.46726701781116425
1782816226696984000,8.943984130859375,-1.917778326138854,0.46442982162386176,-0.5782521617673337
1782816226717066000,8.96406591796875,-1.513458105301857,0.6737154000081121,-0.3526476090058684
1782816226737148200,8.984148193359376,-0.8508844231635332,0.33095644007101654,0.3073885905440897
1782816226757230000,9.00422998046875,-0.9150123196810483,0.12283332959488033,0.9902218744441866
1782816226777311000,9.02431103515625,-1.3309680332541465,0.1939462626941502,1.2446069698795676
1782816226797393200,9.04439306640625,-1.138701832601428,0.6698389969661831,0.7879429599516093
1782816226817475000,9.06447509765625,-0.5860130050271749,0.4030015394538641,0.6309763284780084
1782816226837557000,9.084556884765625,0.01978489692211151,0.10779255845993757,0.9104203887809067
1782816226857638100,9.10463818359375,0.649089346665144,-0.15054039781838655,0.7525600233379751
1782816226877720000,9.124719970703126,0.794787272888422,-0.34318390735089777,0.674211293766275
1782816226897802200,9.14480224609375,0.7426958511233329,-0.39314094743579625,0.47779666819721456
1782816226917883000,9.1648828125,0.26777006218731403,-0.5609691646635532,0.01797280599884689
1782816226937964800,9.18496484375,-0.08914426435232162,-0.6649433338791132,-0.2500994540054351
1782816226958047000,9.205046875,-0.26273557515144347,-0.3364487538769841,-0.7307147598199546
1782816226978129000,9.22512890625,-0.636297085109353,-0.32331659284234043,-0.37687735650762916
1782816226998210000,9.2452099609375,-0.8614794669359922,-0.07359379012957215,-0.1282202833302319
1782816227018292000,9.2652919921875,-0.8476222064971923,0.08737593950554728,0.018920535177737473
1782816227038374000,9.285373779296876,-0.676855305469036,0.08414455636888742,-0.057034431125223634
1782816227058456000,9.3054560546875,-0.48929216794073577,0.12195990776121615,-0.16853753454089163
1782816227078537000,9.325536865234374,-0.26224282319843767,0.13726137565895916,-0.19960238875970243
1782816227098619000,9.345618896484375,-0.04306348117887974,0.10799451077282428,-0.001996215318515897
1782816227118701000,9.365701171875,0.25997546278834344,-0.0027010756522417067,0.09187602740377188
1782816227138782000,9.385781982421875,0.2623193955659866,-0.026748013933002947,0.22546046811565756
1782816227158864100,9.405864013671875,-0.31709026567339893,0.04295227588936686,0.37357415024377405
1782816227178946000,9.425946044921876,-0.20177228014469145,0.47685149630159135,0.035360359455645085
1782816227199028000,9.446028076171874,-0.07277472883164882,0.23460370564460753,-0.01602021062634885
1782816227219109400,9.466109375,-0.05145838455855846,-0.1759457649707794,-0.1485796922046691
1782816227239191300,9.48619140625,-0.027439211067557333,-0.35288331745788454,-0.3185656719882041
1782816227259273200,9.506273193359375,-0.17285832034945486,-0.34726080140098925,-0.2286066571868956
1782816227279355400,9.52635546875,-0.30524434505701065,-0.20855609506592154,-0.2676686476394534
1782816227299436300,9.546436279296875,-0.27031390145123,-0.14753873178437352,-0.2648718565277755
1782816227319518200,9.566518310546876,-0.2658329566448927,-0.0441616516791284,-0.21237558028884232
1782816227339600400,9.586600341796874,-0.1468015035510063,0.016869155605882404,-0.09658931966125965
1782816227359681300,9.606681396484374,-0.10855623630881309,0.09533800442591309,-0.008410612405464053
1782816227379763500,9.626763427734375,0.10861936467289925,0.06265533974692225,0.10480250979848206
1782816227399845400,9.646845458984375,0.1524801337093115,0.015602058279514311,-0.009787672912329435
1782816227419927300,9.66692724609375,0.011077274331450462,-0.048545565851777786,-0.3038082478392869
1782816227440009500,9.687009521484375,0.1482879427164793,0.07301394441500306,-0.11945954231284558
1782816227460090400,9.70709033203125,0.14495149177014827,0.15749123986959457,0.09003419892936944
1782816227480172300,9.72717236328125,0.03718786714375019,0.12198752642050385,0.1907409638468176
1782816227500254500,9.74725439453125,0.126113520309329,-0.021908026555925605,0.1395024325840175
1782816227520336400,9.76733642578125,0.2781757208675146,-0.14804405095800757,0.08150858184210956
1782816227540417500,9.78741748046875,0.24647066904902457,-0.16660218256413936,0.02798471612110734
1782816227560499500,9.80749951171875,-0.051831309524178505,-0.05928440200909972,0.03327025530859828
1782816227580581400,9.827581298828125,-0.12474164743423462,-0.04741904603987932,0.07503375980481505
1782816227600663300,9.847663330078126,0.02345920152068138,-0.1569939578719437,0.10512450829446315
1782816227620744200,9.867744140625,-0.051859951096773146,-0.18464272003695367,-0.01037307158485055
1782816227640826000,9.887826171875,-0.3753676825970411,-0.088524378888309,-0.04745426348373294
1782816227660908300,9.907908203125,-0.49470542516112326,0.08483794546052813,-0.10121434911340474
1782816227680990200,9.927990234375,-0.34929333014190195,0.23954671500474214,-0.07964907158054411
1782816227701071400,9.9480712890625,-0.043428222838044164,0.20004531022161245,-0.1412752874754369
1782816227721153300,9.9681533203125,-0.04735328732728958,0.17373977935910223,-0.2532662474732846
1782816227741235200,9.988235107421875,0.02244973221719265,0.17318170708492397,-0.19760631957165894
1782816227761316400,10.00831640625,0.3510094864100218,0.17314385929256676,-0.040292189834639426
1782816227781398300,10.028398193359376,0.6864262668907642,0.1563512760542333,0.08481039986647665
1782816227801480200,10.048480224609374,0.7007955685049295,0.08163359646126628,0.04677183417752385
1782816227821562400,10.068562255859375,0.2998568067997694,0.06486205601096152,-0.00437207760438323
1782816227841643300,10.088643310546875,0.06343173094689845,0.20529607035666703,0.05032843068055808
1782816227861725400,10.108725341796875,-0.009013327538967133,0.1099948908098042,0.10281422205809503
1782816227881807400,10.128807373046875,-0.1440863993734121,0.11097118849605321,0.1516127397576347
1782816227901889300,10.14888916015625,-0.26604338452517984,0.1598009781166911,0.1328358508342877
1782816227921970400,10.168970458984376,-0.33101357708573337,0.057504094463586806,0.09200345317572355
1782816227942052400,10.18905224609375,-0.39794133345484733,-0.004480068023502827,-0.019772293168865144
1782816227962134300,10.20913427734375,-0.2896832033097744,-0.007792845833301544,-0.02853701624162495
1782816227982216400,10.229216552734375,-0.14766075072884557,-0.008137129226326941,-0.047761356671527026
1782816228002297300,10.24929736328125,-0.22043431051671503,0.005008037420362234,-0.13010193235836923
1782816228022379500,10.269379638671875,-0.11066519128680229,0.05385667787194252,-0.0447861037204042
1782816228042461400,10.28946142578125,0.04095335715711117,-0.03225786339566111,-0.03420424822308123
1782816228062543400,10.30954345703125,0.14090893838107585,-0.1089282844915986,-0.18025964611452072
1782816228082624300,10.329624267578126,-0.034010406151413916,-0.1296466628715396,-0.2399002776827663
1782816228102706400,10.34970654296875,-0.03493395073711872,-0.01433788356259465,-0.1860051309639588
1782816228122788400,10.369788330078125,0.05489829587936401,0.041470805159956214,-0.05444876201357692
1782816228142870500,10.38987060546875,0.0916588775217533,-0.012707652012258767,-0.08508698831815271
1782816228162951200,10.409951171875,0.049557519373297686,0.06770560887381434,-0.024663462743908165
1782816228183033300,10.430033447265625,0.1878144819408655,0.12525237343534826,0.04499481456764042
1782816228203115300,10.450115234375,0.1795756459057331,0.17575316500812768,-0.031494222079403694
1782816228223196000,10.47019580078125,0.3740203596413135,0.026405045714229344,0.085129366155155
1782816228243277800,10.49027783203125,0.2150678150475025,-0.1039839599572122,-0.00902755699371919
1782816228263359700,10.51035986328125,0.14649404503703117,-0.07158610356897115,-0.13374072725214065
1782816228283441700,10.530441650390625,-0.05435527504384517,-0.12142813897207379,-0.24863005730630827
1782816228303522800,10.550522705078125,-0.19407821851074694,-0.09892799174189568,-0.36910730702802536
1782816228323604700,10.570604736328125,-0.3064122197926044,-0.013110825985670089,-0.09650202497029677
