time,seconds_elapsed,z,y,x
1782816175397102600,0.0641025390625,0.09325821697711945,0.04443121701478958,-0.4200859069824219
1782816175417183700,0.084183837890625,0.3393748104572296,0.9302002787590027,-0.006947538815438747
1782816175437265700,0.104265625,0.483709454536438,2.074198007583618,0.3269679546356201
1782816175457347600,0.12434765625,0.7813153266906738,3.095688819885254,0.2820202708244324
1782816175477429500,0.144429443359375,1.1677851676940918,3.7789623737335205,0.22858189046382904
1782816175497511700,0.16451171875,1.492696762084961,4.209864616394043,0.43590718507766724
1782816175517593600,0.184593505859375,1.6946719884872437,3.967773914337158,0.6567218899726868
1782816175537675500,0.204675537109375,1.3729058504104614,2.1318490505218506,0.7542417049407959
1782816175557757700,0.2247578125,0.9017053842544556,0.11252986639738083,0.997425377368927
1782816175577839600,0.244839599609375,-0.1374923437833786,-1.5995346307754517,0.9365564584732056
1782816175597921500,0.264921630859375,-1.1918587684631348,-3.419739246368408,0.48137223720550537
1782816175618003700,0.285003662109375,-1.8320008516311646,-5.057154178619385,-0.1782594621181488
1782816175638085600,0.305085693359375,-1.968606948852539,-5.649384498596191,-0.4854101836681366
1782816175658167600,0.32516748046875,-1.9815938472747803,-1.726832628250122,-1.0189974308013916
1782816175678248700,0.345248779296875,-1.4012709856033325,-0.4479617774486542,-0.9497431516647339
1782816175698330600,0.36533056640625,-0.8703204393386841,-0.44482865929603577,-1.359912395477295
1782816175718412500,0.38541259765625,-0.17386463284492493,-0.05943850800395012,-1.4369341135025024
1782816175738494700,0.40549462890625,0.800545871257782,-1.3949891328811646,-1.0424323081970215
1782816175758576600,0.42557666015625,1.7005091905593872,-1.88458251953125,-0.31749868392944336
1782816175778658600,0.445658447265625,1.918406367301941,-2.070906400680542,0.05931771919131279
1782816175798740700,0.46574072265625,2.3002989292144775,-2.3213839530944824,0.01768835261464119
1782816175818822700,0.48582275390625,2.5450830459594727,-2.3603758811950684,-0.00603428715839982
1782816175838904600,0.505904541015625,2.241408109664917,-1.7642133235931396,0.05671553686261177
1782816175858986500,0.525986572265625,1.5202808380126953,-0.9224317669868469,0.005256558768451214
1782816175879068700,0.546068603515625,0.6508786678314209,0.000426451675593853,-0.19098277390003204
1782816175899150600,0.566150634765625,0.32521387934684753,0.2511105239391327,-0.46734511852264404
1782816175919232500,0.586232421875,0.26531463861465454,0.30695319175720215,-0.7797976732254028
1782816175939313700,0.606313720703125,0.11774072796106339,0.44279515743255615,-1.1191259622573853
1782816175959395600,0.6263955078125,0.049133703112602234,0.6112635135650635,-1.3264751434326172
1782816175979477800,0.646477783203125,0.01878657191991806,0.7350300550460815,-1.4735660552978516
1782816175999559700,0.6665595703125,-0.020584700629115105,0.8523851037025452,-1.5636928081512451
1782816176019641600,0.6866416015625,-0.15113691985607147,0.861656665802002,-1.6493579149246216
1782816176039723500,0.7067236328125,-0.25275543332099915,0.8996091485023499,-1.612626552581787
1782816176059805700,0.7268056640625,-0.3147307336330414,0.8595969676971436,-1.5196126699447632
1782816176079887600,0.7468876953125,-0.27949878573417664,0.7228571772575378,-1.441511869430542
1782816176099969500,0.766969482421875,-0.23531892895698547,0.4988761246204376,-1.371219277381897
1782816176120051700,0.7870517578125,-0.2388795018196106,0.18729190528392792,-1.1704766750335693
1782816176140133600,0.807133544921875,-0.16593724489212036,-0.03982418030500412,-0.7214606404304504
1782816176160215600,0.827215576171875,-0.04391169175505638,-0.22491107881069183,-0.2229744791984558
1782816176180297700,0.847297607421875,0.04911365732550621,-0.43526962399482727,0.09659052640199661
1782816176200379600,0.867379638671875,0.12877832353115082,-0.6807066202163696,0.25027164816856384
1782816176220460500,0.88746044921875,0.17630688846111298,-0.9315136671066284,0.26721999049186707
1782816176240542700,0.907542724609375,0.24471285939216614,-1.0075501203536987,0.2899283468723297
1782816176260624600,0.927624755859375,0.3375978171825409,-0.9329022765159607,0.4165690243244171
1782816176280706600,0.94770654296875,0.4408682584762573,-0.7557029724121094,0.6858876943588257
1782816176300788700,0.967788818359375,0.572306215763092,-0.3698996305465698,1.1657747030258179
1782816176320870700,0.98787060546875,0.6495281457901001,0.18328437209129333,1.6694308519363403
1782816176340952600,1.00795263671875,0.6723286509513855,0.5971905589103699,1.7779531478881836
1782816176361034800,1.02803466796875,0.5841760039329529,0.5230051875114441,1.443233609199524
1782816176381116700,1.04811669921875,0.7748532891273499,0.3586246967315674,1.3599634170532227
1782816176401198600,1.068198486328125,0.9699723124504089,0.2048991471529007,1.289104700088501
1782816176421280500,1.088280517578125,0.36650264263153076,-0.3323170244693756,0.8121810555458069
1782816176441362700,1.10836279296875,-0.18168452382087708,-0.49664080142974854,0.548794686794281
1782816176461444600,1.128444580078125,-0.10002775490283966,-0.09601873904466629,0.40737566351890564
1782816176481525800,1.14852587890625,0.06620718538761139,0.20071902871131897,-0.07442425191402435
1782816176501607700,1.168607666015625,-0.14702023565769196,0.10562368482351303,-0.7932459712028503
1782816176521689600,1.188689697265625,-0.7868127822875977,-0.346347838640213,-1.4345299005508423
1782816176541771800,1.208771728515625,-1.5462086200714111,-0.29813024401664734,-2.317387104034424
1782816176561853700,1.228853759765625,-2.075648784637451,0.6158232092857361,-3.2161102294921875
1782816176581935600,1.248935546875,-2.055288314819336,1.7165621519088745,-2.896702527999878
1782816176602017500,1.269017578125,-1.3550262451171875,1.9808422327041626,-1.6984537839889526
1782816176622099700,1.289099609375,-0.8133158087730408,1.061779260635376,-0.34864485263824463
1782816176642181600,1.309181640625,-0.5671703815460205,-0.146915465593338,0.9986978769302368
1782816176662263600,1.329263671875,-0.37402966618537903,-0.8703370690345764,1.8123211860656738
1782816176682345700,1.349345703125,-0.2075941264629364,-1.0548644065856934,1.9867935180664062
1782816176702427600,1.369427734375,0.006589049939066172,-0.8979663252830505,1.776365041732788
1782816176722509600,1.389509521484375,0.11790957301855087,-0.7089042663574219,1.355552077293396
1782816176742590500,1.409590576171875,0.15225163102149963,-0.652874767780304,0.9959995150566101
1782816176762672600,1.429672607421875,0.17253491282463074,-0.5289780497550964,1.0420597791671753
1782816176782754600,1.449754638671875,0.35662344098091125,-0.16766422986984253,1.2730426788330078
1782816176802836700,1.469836669921875,0.548355758190155,0.18753455579280853,1.2414096593856812
1782816176822918700,1.489918701171875,0.6075308322906494,0.38194894790649414,1.112018346786499
1782816176843000600,1.51000048828125,0.5924695730209351,0.3318290710449219,0.9946969747543335
1782816176863082800,1.530082763671875,0.5929631590843201,0.3183181583881378,1.0551965236663818
1782816176883164700,1.55016455078125,0.8777507543563843,0.5398087501525879,1.0581841468811035
1782816176903246600,1.57024658203125,1.0913482904434204,0.9705628156661987,0.574825644493103
1782816176923328500,1.59032861328125,1.2418347597122192,1.346014142036438,-0.15142764151096344
1782816176943410700,1.61041064453125,1.4931306838989258,1.401045560836792,-0.5339851975440979
1782816176963492600,1.63049267578125,1.3772575855255127,0.10388590395450592,-0.9194141030311584
1782816176983573500,1.650573486328125,0.8740515112876892,-1.1685020923614502,-0.9290088415145874
1782816177003655400,1.670655517578125,0.7191833257675171,-0.9058122634887695,-0.2643519639968872
1782816177023737300,1.6907373046875,0.741466224193573,0.018885597586631775,-0.05333340913057327
1782816177043819500,1.710819580078125,0.5678275227546692,0.5522984862327576,-0.5724115967750549
1782816177063901700,1.730901611328125,0.33830922842025757,0.597687304019928,-1.0441863536834717
1782816177083983600,1.750983642578125,-0.009817850776016712,0.15182451903820038,-1.388366937637329
1782816177104065500,1.7710654296875,-0.6419702172279358,-0.35949763655662537,-1.5765172243118286
1782816177124147700,1.791147705078125,-1.0914493799209595,-0.6819168925285339,-1.4522217512130737
1782816177144229600,1.811229736328125,-1.143558144569397,-0.9143995046615601,-0.8860843181610107
1782816177164311800,1.831311767578125,-0.8316264152526855,-0.8908377885818481,-0.06393535435199738
1782816177184394000,1.85139404296875,-0.379181444644928,-0.5818151831626892,0.5076372027397156
1782816177204475000,1.871474853515625,0.03890945017337799,-0.27130112051963806,0.6673829555511475
1782816177224556800,1.891556884765625,0.254927396774292,-0.1455550491809845,0.6265801787376404
1782816177244639000,1.911638916015625,0.11731453239917755,-0.144815132021904,0.5353120565414429
1782816177264721000,1.931720947265625,-0.0939842164516449,-0.3785093426704407,0.37389957904815674
1782816177284802800,1.951802734375,-0.21394838392734528,-0.5557210445404053,0.20108166337013245
1782816177304885000,1.971885009765625,-0.12256217747926712,-0.6289119720458984,0.10920500755310059
1782816177324967000,1.991966796875,0.09196136146783829,-0.5500649809837341,0.15764091908931732
1782816177345048800,2.012048828125,0.1816149353981018,-0.42826029658317566,0.2258385717868805
1782816177365131000,2.032131103515625,0.14839789271354675,-0.13596317172050476,0.22204507887363434
1782816177385213000,2.052212890625,0.07910764962434769,0.2433135211467743,0.15163230895996094
1782816177405294800,2.072294921875,0.1646953672170639,0.6412911415100098,0.18795914947986603
1782816177425376800,2.092376708984375,0.2891491651535034,0.9683959484100342,0.40134143829345703
1782816177445458000,2.1124580078125,0.45433083176612854,0.9766014814376831,0.5921932458877563
1782816177465539800,2.132539794921875,0.3000064492225647,0.7970859408378601,0.3537087142467499
1782816177485622000,2.1526220703125,0.6897772550582886,1.8089120388031006,0.04511278495192528
1782816177505704000,2.172703857421875,1.293999195098877,2.630528450012207,-0.14167270064353943
1782816177525785900,2.192785888671875,0.771019458770752,1.0904897451400757,-0.3732559084892273
1782816177545868000,2.212867919921875,0.32679200172424316,-0.547349750995636,-0.10731835663318634
1782816177565950000,2.232949951171875,0.034085821360349655,-0.9379256367683411,0.41345956921577454
1782816177586031900,2.253031982421875,-0.28874632716178894,-0.30107346177101135,0.09591647237539291
1782816177606113800,2.27311376953125,-0.6898190975189209,0.10444490611553192,-1.3322758674621582
1782816177626196000,2.293196044921875,-0.9527454972267151,0.06389719992876053,-2.078643560409546
1782816177646278000,2.31327783203125,-1.2341355085372925,-0.28560158610343933,-2.0791239738464355
1782816177666359800,2.33335986328125,-0.94698566198349,-0.3250996172428131,-1.6360456943511963
1782816177686441000,2.35344091796875,-0.6228294968605042,0.05051438882946968,-0.28088924288749695
1782816177706523000,2.37352294921875,-0.31302326917648315,0.2936601936817169,1.2210205793380737
1782816177726605000,2.39360498046875,0.08132095634937286,0.2571091055870056,1.9633432626724243
1782816177746687000,2.41368701171875,0.45142698287963867,0.1279006153345108,2.1550815105438232
1782816177766769000,2.433768798828125,0.5921909213066101,0.18907684087753296,2.105341911315918
1782816177786850800,2.453850830078125,0.5181062817573547,0.34097036719322205,1.6970727443695068
1782816177806933000,2.47393310546875,0.3525298535823822,0.4764859676361084,1.023214340209961
1782816177827015000,2.494014892578125,0.3301451802253723,0.5170137286186218,0.38271331787109375
1782816177847096800,2.514096923828125,0.24743634462356567,0.35283583402633667,0.023625444620847702
1782816177867179000,2.534178955078125,0.07715370506048203,0.14746655523777008,-0.03042793460190296
1782816177887261000,2.554260986328125,-0.02602285146713257,0.00186090636998415,0.01134901586920023
1782816177907342000,2.574342041015625,0.017062870785593987,0.0647716149687767,0.05461873114109039
1782816177927424000,2.594424072265625,0.1883007436990738,0.26887571811676025,0.010906396433711052
1782816177947506000,2.614505859375,0.34349188208580017,0.504051148891449,0.005475364625453949
1782816177967587800,2.634587890625,0.4074566960334778,0.4768238663673401,0.15054579079151154
1782816177987670000,2.654669921875,0.5544260740280151,0.33457571268081665,0.5952522158622742
1782816178007752000,2.674751953125,0.870801568031311,0.2605317234992981,1.0041930675506592
1782816178027833900,2.694833740234375,0.9192183017730713,0.36117884516716003,0.7505933046340942
1782816178047916000,2.714916015625,0.5267646312713623,0.6550489664077759,-0.18976619839668274
1782816178067998000,2.734998046875,0.47040075063705444,0.6704363822937012,-0.868449866771698
1782816178088080000,2.755079833984375,0.6613175868988037,-0.07328808307647705,-0.7114989757537842
1782816178108162000,2.775162109375,0.5347992777824402,-0.32313773036003113,0.20355303585529327
1782816178128244000,2.795243896484375,-0.006138275843113661,-0.8111302256584167,0.2394457757472992
1782816178148324900,2.815324951171875,-0.45026081800460815,-0.7894055843353271,-0.46158328652381897
1782816178168406800,2.83540673828125,-0.5359432101249695,-0.13540923595428467,-0.7843183279037476
1782816178188488700,2.85548876953125,-0.45780712366104126,0.3201247453689575,-0.8430380821228027
1782816178208570600,2.875570556640625,-0.6145496368408203,-0.23164275288581848,-1.0893490314483643
1782816178228652800,2.89565283203125,-0.835582971572876,-1.1314386129379272,-1.0790001153945923
1782816178248734700,2.915734619140625,-0.5872052311897278,-1.1168791055679321,-0.4667515456676483
1782816178268816600,2.935816650390625,-0.21700698137283325,-0.8134147524833679,0.11981604993343353
1782816178288898800,2.95589892578125,0.12418970465660095,-0.5134796500205994,0.4143601655960083
1782816178308980700,2.975980712890625,0.2459193468093872,-0.3440783619880676,0.3814186453819275
1782816178329062700,2.996062744140625,0.22820188105106354,-0.23725657165050507,-0.021727602928876877
1782816178349144600,3.01614453125,0.12824465334415436,-0.16282522678375244,-0.25917983055114746
1782816178369225700,3.036225830078125,0.10909503698348999,-0.31332099437713623,-0.07360832393169403
1782816178389307600,3.0563076171875,0.07352572679519653,-0.5514175891876221,0.21472004055976868
1782816178409389800,3.076389892578125,0.08247039467096329,-0.6048691868782043,0.2863463759422302
1782816178429471700,3.0964716796875,0.04253387823700905,-0.2784603238105774,0.1355990618467331
1782816178449553700,3.1165537109375,0.01478379312902689,0.13536594808101654,-0.024424802511930466
1782816178469635800,3.1366357421875,0.036440469324588776,0.3323143422603607,-0.026477567851543427
1782816178489717800,3.1567177734375,0.01167388167232275,0.28096216917037964,0.06358297914266586
1782816178509799700,3.176799560546875,-0.043406203389167786,0.09939388185739517,0.16421014070510864
1782816178529881600,3.196881591796875,-0.08492911607027054,-0.14765459299087524,0.3793110251426697
1782816178549963800,3.2169638671875,-0.2623280882835388,-0.35330909490585327,0.35602906346321106
1782816178570045700,3.237045654296875,-0.27484431862831116,-0.4065782129764557,0.07130800932645798
1782816178590127600,3.257127685546875,-0.19012197852134705,-0.3688121736049652,-0.068875253200531
1782816178610208800,3.277208740234375,-0.29775479435920715,-1.047094702720642,-0.19169992208480835
1782816178630290700,3.297290771484375,-0.2751205861568451,-0.9722080826759338,0.12945877015590668
1782816178650372900,3.317372802734375,-0.396262526512146,-0.48845845460891724,0.01573721505701542
1782816178670454800,3.337454833984375,-0.7198927402496338,-0.2643749415874481,-0.7868211269378662
1782816178690536700,3.35753662109375,-1.1137712001800537,0.36389148235321045,-1.3062727451324463
1782816178710618600,3.37761865234375,-1.0906835794448853,1.1266634464263916,-1.2948416471481323
1782816178730700800,3.39770068359375,-0.6526393890380859,1.5407330989837646,-0.8651890158653259
1782816178750782700,3.41778271484375,-0.11077140271663666,1.259684681892395,-0.07487513870000839
1782816178770864600,3.43786474609375,0.2035132795572281,0.5874515175819397,0.9159200191497803
1782816178790946800,3.45794677734375,0.3284009099006653,0.12785394489765167,1.6922036409378052
1782816178811027700,3.47802783203125,0.3969748914241791,0.052894361317157745,1.928357720375061
1782816178831110000,3.49810986328125,0.39229145646095276,0.03944060578942299,1.6711541414260864
1782816178851191800,3.51819189453125,0.3030785918235779,-0.022203683853149414,1.3062775135040283
1782816178871273700,3.538273681640625,0.08039744943380356,-0.23190054297447205,1.023573637008667
1782816178891355600,3.558355712890625,-0.10228142887353897,-0.3991663455963135,0.8622259497642517
1782816178911437800,3.578437744140625,-0.21649959683418274,-0.3311668634414673,0.7249439358711243
1782816178931519700,3.598519775390625,-0.3167894780635834,0.10884788632392883,0.4647420644760132
1782816178951601700,3.6186015625,-0.37173470854759216,0.6199132204055786,0.05896526947617531
1782816178971683800,3.638683837890625,-0.3824668526649475,1.0975871086120605,-0.2150326818227768
1782816178991765800,3.658765869140625,-0.29535749554634094,1.4329191446304321,-0.18171487748622894
1782816179011847700,3.67884765625,-0.22887735068798065,1.5317621231079102,-0.2741769254207611
1782816179031928800,3.6989287109375,-0.284749299287796,1.73594069480896,-0.6787778735160828
1782816179052010800,3.7190107421875,-0.4178026616573334,1.768700122833252,-1.055909514427185
1782816179072092700,3.7390927734375,-0.5589699745178223,1.2825491428375244,-1.0136990547180176
1782816179092174800,3.7591748046875,-0.9251182079315186,0.5004177093505859,-0.5555425882339478
1782816179112256800,3.7792568359375,-1.2229505777359009,0.5223044157028198,-0.14895278215408325
1782816179132338700,3.799338623046875,-0.9802577495574951,1.4710569381713867,-0.45327019691467285
1782816179152420900,3.8194208984375,-0.4979739487171173,1.5761959552764893,-1.2072038650512695
1782816179172503000,3.8395029296875,-0.15241190791130066,0.28869733214378357,-1.3323962688446045
1782816179192585000,3.8595849609375,-0.012606864795088768,-1.9880273342132568,-0.9390138983726501
1782816179212667000,3.8796669921875,0.4859802722930908,-2.9393341541290283,-0.15705128014087677
1782816179232749000,3.8997490234375,1.2714406251907349,-2.3736157417297363,0.703789472579956
1782816179252830000,3.919829833984375,1.5259456634521484,-1.8681589365005493,0.746562123298645
1782816179272912100,3.939912109375,1.0450046062469482,-1.9062719345092773,-0.15517312288284302
1782816179292994000,3.959994140625,0.2659383714199066,-1.8585419654846191,-1.424371600151062
1782816179313076000,3.980075927734375,0.11204758286476135,-0.9861071705818176,-1.768784761428833
1782816179333158100,4.000158203125,0.13921739161014557,-0.05033782497048378,-1.2053366899490356
1782816179353240000,4.020239990234375,0.08445076644420624,0.5516619682312012,-0.06774015724658966
1782816179373322000,4.040322021484375,-0.08519962430000305,0.5702348947525024,1.0993146896362305
1782816179393404000,4.06040380859375,-0.2823461592197418,0.2776634097099304,1.88904869556427
1782816179413486000,4.080486083984375,-0.4220474660396576,-0.13903488218784332,2.102942705154419
1782816179433568000,4.100568115234375,-0.49275141954421997,-0.3472867012023926,1.8147846460342407
1782816179453649200,4.120649169921875,-0.6340936422348022,-0.35624927282333374,1.268949270248413
1782816179473731000,4.14073095703125,-0.7367616295814514,-0.15058717131614685,0.7797876596450806
1782816179493813000,4.16081298828125,-0.7568632960319519,0.2217724621295929,0.4595264196395874
1782816179513895000,4.18089501953125,-0.6462442278862,0.772799551486969,0.23606106638908386
1782816179533977000,4.20097705078125,-0.4866447448730469,1.3263570070266724,0.10853622853755951
1782816179554059000,4.22105908203125,-0.2605186700820923,1.631882905960083,0.0787513330578804
1782816179574141000,4.241140869140625,0.01869175210595131,1.5901436805725098,0.16020870208740234
1782816179594223000,4.26122314453125,0.33947551250457764,1.179152011871338,0.14319276809692383
1782816179614305000,4.281304931640625,0.26304495334625244,-0.17625604569911957,-0.5118646025657654
1782816179634387000,4.301386962890625,0.15593823790550232,-1.2293977737426758,-1.2533237934112549
1782816179654469000,4.32146923828125,0.4528857469558716,-0.8998339176177979,-1.722896695137024
1782816179674550000,4.341550048828125,0.5067652463912964,-1.0535608530044556,-2.6170125007629395
1782816179694632000,4.3616318359375,-0.030822504311800003,-3.2201220989227295,-3.598698854446411
1782816179714714000,4.381714111328125,-0.1120263934135437,-3.593172788619995,-2.893502712249756
1782816179734796000,4.401796142578125,-0.04025186225771904,-3.6129512786865234,-2.3431918621063232
1782816179754878000,4.4218779296875,0.12851567566394806,-2.5250661373138428,-1.5277937650680542
1782816179774960000,4.441960205078125,-0.07111894339323044,-1.7900865077972412,-1.2215864658355713
1782816179795042000,4.4620419921875,-0.2780413031578064,-1.1366300582885742,-0.586293637752533
1782816179815124000,4.4821240234375,-0.3442273736000061,-0.42108047008514404,0.16536302864551544
1782816179835206100,4.5022060546875,-0.25435107946395874,0.24503333866596222,0.7133709788322449
1782816179855288000,4.5222880859375,-0.13074931502342224,0.9785751700401306,1.000365972518921
1782816179875370000,4.542369873046875,-0.039811547845602036,1.7214677333831787,1.1451536417007446
1782816179895452000,4.562451904296875,0.061543021351099014,2.071106195449829,1.3004086017608643
1782816179915533000,4.582532958984375,0.17921413481235504,2.0089075565338135,1.4875212907791138
1782816179935615000,4.602614990234375,0.28524133563041687,1.6876577138900757,1.7550733089447021
1782816179955697200,4.622697265625,0.3464365303516388,1.3297251462936401,2.067780017852783
1782816179975779000,4.642779052734375,0.37034714221954346,1.0068162679672241,2.3049540519714355
1782816179995861000,4.662861083984375,0.4178497791290283,0.7920494675636292,2.1035830974578857
1782816180015943200,4.682943115234375,0.5363109111785889,0.7079797387123108,1.4149874448776245
1782816180036025000,4.703025146484375,0.6233305335044861,0.8617278337478638,0.6375422477722168
1782816180056107000,4.72310693359375,0.698317289352417,1.0943604707717896,0.1304652839899063
1782816180076189000,4.74318896484375,0.71671062707901,1.2522780895233154,-0.1253221184015274
1782816180096271000,4.76327099609375,0.591772735118866,1.161590337753296,-0.3686000108718872
1782816180116353000,4.78335302734375,0.5897547006607056,0.9836382269859314,-0.43189871311187744
1782816180136434200,4.80343408203125,0.8749825954437256,0.765352725982666,-0.6676627397537231
1782816180156515600,4.823515625,1.1125116348266602,0.8054836988449097,-0.9829878807067871
1782816180176597500,4.843597412109375,0.542542040348053,0.408932089805603,-1.581154704093933
1782816180196679700,4.8636796875,-0.17690522968769073,0.6330050826072693,-1.6807805299758911
1782816180216761600,4.88376171875,-0.018998529762029648,0.8219446539878845,-1.2230743169784546
1782816180236843500,4.903843505859375,0.12098819017410278,-0.11513875424861908,-1.1045913696289062
1782816180256925700,4.92392578125,-0.5895099639892578,-1.5147693157196045,-1.3042868375778198
1782816180277007600,4.944007568359375,-1.1612972021102905,-1.6877737045288086,-1.0722146034240723
1782816180297089500,4.964089599609375,-1.188886046409607,-0.6608620285987854,-0.8706203103065491
1782816180317171500,4.98417138671875,-1.2066922187805176,0.39877575635910034,-1.1436810493469238
1782816180337253600,5.004253662109375,-1.1055448055267334,0.6355977058410645,-1.1937851905822754
1782816180357334500,5.02433447265625,-0.5806246995925903,-0.18616361916065216,-0.6576316356658936
1782816180377416700,5.044416748046875,0.10329008102416992,-1.2713499069213867,0.6611713171005249
1782816180397498600,5.06449853515625,0.34600961208343506,-1.7914406061172485,2.3497729301452637
1782816180417580500,5.08458056640625,0.22952373325824738,-1.59027898311615,3.3619961738586426
1782816180437662700,5.104662841796875,0.016125677153468132,-0.8609979748725891,3.3767900466918945
1782816180457744600,5.12474462890625,-0.12745140492916107,-0.049769479781389236,2.7042529582977295
1782816180477826600,5.14482666015625,0.048086926341056824,0.4293937683105469,1.824386715888977
1782816180497908500,5.164908447265625,0.30452167987823486,0.5234650373458862,1.1449823379516602
1782816180517990700,5.18499072265625,0.2966304421424866,0.388262003660202,0.47814851999282837
1782816180538072600,5.205072509765625,0.019671736285090446,0.13012172281742096,-0.010255826637148857
1782816180558154500,5.225154541015625,-0.3018234968185425,0.14565247297286987,-0.21523506939411163
1782816180578235600,5.245235595703125,-0.5193871855735779,0.30116817355155945,-0.24521449208259583
1782816180598317600,5.265317626953125,-0.447647362947464,0.7027850151062012,-0.25435617566108704
1782816180618399700,5.285399658203125,-0.2200567126274109,1.1638575792312622,-0.29206743836402893
1782816180638481700,5.305481689453125,-0.06667294353246689,1.5060524940490723,-0.4591982960700989
1782816180658563600,5.3255634765625,-0.016604136675596237,1.3068159818649292,-0.8498718738555908
1782816180678645500,5.3456455078125,0.28624099493026733,1.1118971109390259,-1.0620925426483154
1782816180698727700,5.365727783203125,0.43331924080848694,0.37210139632225037,-1.3590164184570312
1782816180718808600,5.38580859375,0.1937970072031021,-0.6454322934150696,-1.5800347328186035
1782816180738890800,5.405890869140625,-0.3891583979129791,-1.0835883617401123,-1.9452388286590576
1782816180758972700,5.42597265625,-0.47968897223472595,-1.6119736433029175,-2.556896686553955
1782816180779054600,5.4460546875,-0.3605215549468994,-2.279100179672241,-2.836460828781128
1782816180799136500,5.466136474609375,-0.1791847050189972,-1.7171850204467773,-1.6335705518722534
1782816180819218700,5.48621875,-0.12028700858354568,-1.2527823448181152,0.06788510084152222
1782816180839300600,5.506300537109375,-0.11357800662517548,-0.7158724665641785,0.3717876374721527
1782816180859382500,5.526382568359375,-0.2728655934333801,0.02968600206077099,0.011415540240705013
1782816180879464700,5.546464599609375,-0.560511589050293,0.5507384538650513,-0.21918076276779175
1782816180899546600,5.566546630859375,-0.6714396476745605,1.081956386566162,0.06991656124591827
1782816180919628500,5.586628662109375,-0.5347896218299866,1.5379189252853394,0.6654691100120544
1782816180939709700,5.606709716796875,-0.14298155903816223,1.7128698825836182,1.21082603931427
1782816180959791600,5.62679150390625,0.1680697500705719,1.547381043434143,1.6499311923980713
1782816180979873500,5.64687353515625,0.2765650451183319,0.9699341654777527,1.8671211004257202
1782816180999955700,5.666955810546875,0.2323865294456482,0.3303912580013275,1.7875819206237793
1782816181020037600,5.68703759765625,0.1554357260465622,-0.1722489297389984,1.5593905448913574
1782816181040119600,5.70711962890625,0.07317229360342026,-0.6366866230964661,1.1922260522842407
1782816181060201700,5.72720166015625,0.02813805267214775,-0.9022783041000366,0.7788898348808289
1782816181080283600,5.74728369140625,0.09051439166069031,-0.8192682862281799,0.5897696614265442
1782816181100365600,5.767365478515625,0.13103769719600677,-0.5960717797279358,0.47178858518600464
1782816181120447700,5.78744775390625,0.28488293290138245,-0.31251275539398193,0.4221635162830353
1782816181140529700,5.80752978515625,0.3414309620857239,-0.05701277405023575,0.3180272877216339
1782816181160611600,5.827611572265625,0.24656589329242706,-0.07585575431585312,0.12704238295555115
1782816181180693000,5.84769287109375,0.11487839370965958,-0.2912976145744324,-0.20589813590049744
1782816181200775000,5.86777490234375,0.2642553448677063,-0.33663445711135864,-0.44866034388542175
1782816181220856800,5.88785693359375,0.6051425337791443,0.09657405316829681,-0.4480452537536621
1782816181240939000,5.90793896484375,0.8109005093574524,0.10992500931024551,-0.8068846464157104
1782816181261021000,5.92802099609375,0.49239417910575867,-1.0634801387786865,-1.469314455986023
1782816181281102800,5.948102783203125,0.4630013406276703,-1.9783059358596802,-1.313351035118103
1782816181301184800,5.968184814453125,0.5549074411392212,-2.7923104763031006,-0.7835280895233154
1782816181321267000,5.988266845703125,0.3398137092590332,-2.718491792678833,-0.3865152597427368
1782816181341348900,6.008348876953125,0.29689985513687134,-1.3180296421051025,-0.1395905464887619
1782816181361430800,6.0284306640625,0.2850397229194641,0.007870325818657875,-0.5629367232322693
1782816181381513000,6.048512939453125,0.1446710079908371,0.9593327045440674,-1.1272697448730469
1782816181401593900,6.06859375,-0.1620120406150818,1.2374286651611328,-1.5743741989135742
1782816181421676000,6.088676025390625,-0.2998655140399933,1.3057036399841309,-1.6297240257263184
1782816181441758000,6.108758056640625,-0.36341768503189087,1.6489428281784058,-1.1781123876571655
1782816181461840000,6.12883984375,-0.38596776127815247,1.812830924987793,-0.08224416524171829
1782816181481921800,6.148921875,-0.43897950649261475,1.243453860282898,1.148038625717163
1782816181502004000,6.16900390625,-0.19156953692436218,0.9280693531036377,1.61834716796875
1782816181522086000,6.1890859375,0.11094316095113754,1.0038357973098755,1.353715181350708
1782816181542167800,6.209167724609375,0.08542225509881973,0.8665379285812378,0.942038893699646
1782816181562250000,6.22925,-0.03716620057821274,0.5305744409561157,0.7336438298225403
1782816181582332000,6.249331787109375,-0.15001867711544037,0.21812878549098969,0.7588806748390198
1782816181602413800,6.269413818359375,-0.4095875918865204,-0.0800175666809082,0.7456121444702148
1782816181622496000,6.28949609375,-0.30445659160614014,-0.19860808551311493,0.7017901539802551
1782816181642577000,6.309576904296875,-0.06939084082841873,0.045871514827013016,0.6337482333183289
1782816181662658800,6.329658935546875,0.17519861459732056,0.4128904640674591,0.36363112926483154
1782816181682741000,6.349740966796875,0.5997791886329651,1.0074200630187988,-0.17688076198101044
1782816181702823000,6.369822998046875,1.53860604763031,1.6582990884780884,-0.6575210690498352
1782816181722904800,6.38990478515625,2.241741895675659,1.7584998607635498,-0.8089872002601624
1782816181742987000,6.409987060546875,1.9298467636108398,-0.012659762986004353,-0.6479392051696777
1782816181763069000,6.43006884765625,0.7391421794891357,-2.0859830379486084,-1.2907308340072632
1782816181783150800,6.45015087890625,0.13406193256378174,-2.9184648990631104,-2.7725987434387207
1782816181803233000,6.47023291015625,0.7097456455230713,-1.4830949306488037,-2.259700298309326
1782816181823315000,6.49031494140625,-0.31234118342399597,-1.6786023378372192,-0.66212397813797
1782816181843396900,6.51039697265625,-0.7809298634529114,-1.5701308250427246,-0.8048923015594482
1782816181863478000,6.53047802734375,-0.6963574290275574,0.1639561653137207,-1.3223686218261719
1782816181883560000,6.550559814453125,-0.8292575478553772,1.5147050619125366,-1.4826456308364868
1782816181903641900,6.570641845703125,-0.9936560392379761,1.699375867843628,-1.603123426437378
1782816181923724000,6.59072412109375,-1.1475727558135986,0.7997443079948425,-1.7255537509918213
1782816181943806000,6.610805908203125,-0.744537353515625,-0.32507583498954773,-1.164922833442688
1782816181963887900,6.630887939453125,0.2170063853263855,-1.24373197555542,0.3034306764602661
1782816181983970000,6.650969970703125,0.7597399950027466,-1.4332793951034546,1.6218302249908447
1782816182004052000,6.671052001953125,0.8204726576805115,-0.33234262466430664,1.7132476568222046
1782816182024134000,6.6911337890625,0.17023980617523193,-0.0028388909995555878,1.7336918115615845
1782816182044215800,6.7112158203125,-0.09719741344451904,0.36747798323631287,1.6735687255859375
1782816182064298000,6.731298095703125,-0.012727828696370125,0.40061068534851074,1.8164405822753906
1782816182084378600,6.751378662109375,-0.06598404794931412,0.12790703773498535,1.8236602544784546
1782816182104461000,6.7714609375,-0.12920181453227997,-0.2245606780052185,1.657592535018921
1782816182124543000,6.79154296875,-0.11044736951589584,-0.3606872260570526,1.2991682291030884
1782816182144625000,6.811625,0.08105706423521042,-0.11003761738538742,0.8299216628074646
1782816182164707000,6.83170703125,0.35793402791023254,0.43725723028182983,0.394082635641098
1782816182184789200,6.851789306640625,0.5596768260002136,1.0734485387802124,0.1690795123577118
1782816182204871200,6.87187109375,0.6862150430679321,1.5977942943572998,0.4320528209209442
1782816182224953300,6.891953369140625,0.5551595687866211,1.4507197141647339,0.9910482168197632
1782816182245035500,6.912035400390625,0.08141516894102097,0.5374807119369507,1.055891513824463
1782816182265117400,6.932117431640625,-0.18303309381008148,0.1980811208486557,0.7164329886436462
1782816182285199400,6.952199462890625,0.3498115837574005,0.4648386240005493,0.9605759978294373
1782816182305280300,6.9722802734375,0.4757784307003021,0.1474156677722931,1.0813788175582886
1782816182325362200,6.992362060546875,0.4387546181678772,-0.45222142338752747,0.9134268760681152
1782816182345444000,7.012444091796875,0.8618537187576294,-1.3257691860198975,0.5614429712295532
1782816182365526300,7.0325263671875,1.3213541507720947,-3.120126724243164,-0.11004484444856644
1782816182385608200,7.052608154296875,1.3600376844406128,-4.473885536193848,-0.45049604773521423
1782816182405690000,7.072690185546875,1.005183458328247,-3.804905891418457,-0.21090450882911682
1782816182425772300,7.092772216796875,0.45089486241340637,-1.799750566482544,-0.08097580820322037
1782816182445854200,7.112854248046875,-0.14758555591106415,0.08705877512693405,-0.6080135107040405
1782816182465936100,7.13293603515625,-0.8409286737442017,1.0048075914382935,-1.494887351989746
1782816182486018300,7.153018310546875,-1.3563261032104492,1.1768966913223267,-2.209447145462036
1782816182506100200,7.173100341796875,-1.454452395439148,1.3365494012832642,-2.42264461517334
1782816182526181000,7.19318115234375,-1.1800711154937744,1.7623037099838257,-1.9459831714630127
1782816182546263300,7.21326318359375,-0.8250914216041565,1.8794466257095337,-0.9241555333137512
1782816182566345200,7.23334521484375,-0.5508272051811218,1.281851053237915,0.2568143904209137
1782816182586427100,7.25342724609375,-0.16082996129989624,0.4327751100063324,1.2703555822372437
1782816182606509300,7.27350927734375,0.230970561504364,-0.2629117965698242,1.919861078262329
1782816182626591200,7.29359130859375,0.5255663394927979,-0.8041256070137024,2.1762337684631348
1782816182646673200,7.313673095703125,0.6531723737716675,-1.1145362854003906,2.2187821865081787
1782816182666755000,7.333755126953125,0.5064861178398132,-1.147580623626709,2.0762453079223633
1782816182686837200,7.353837158203125,0.20272672176361084,-0.9118417501449585,1.6737234592437744
1782816182706919200,7.373919189453125,-0.14555279910564423,-0.5244295597076416,1.0112178325653076
1782816182727000300,7.394000244140625,-0.37352994084358215,0.002242211252450943,0.21264488995075226
1782816182747082200,7.414082275390625,-0.49296367168426514,0.27036210894584656,-0.6536739468574524
1782816182767164200,7.4341640625,-0.49561312794685364,0.18403860926628113,-1.2354611158370972
1782816182787246300,7.454246337890625,-0.3945600688457489,-0.016843482851982117,-1.39216148853302
1782816182807328300,7.474328369140625,-0.37577024102211,-0.13857096433639526,-1.4567033052444458
1782816182827410200,7.49441015625,-0.2250441610813141,-1.0948573350906372,-1.7397401332855225
1782816182847492000,7.5144921875,-0.21432536840438843,-1.7739659547805786,-1.628302812576294
1782816182867574300,7.53457421875,-0.04694756120443344,-1.3121862411499023,-0.8622296452522278
1782816182887656200,7.55465625,0.3229740560054779,-0.3105253577232361,-0.22600996494293213
1782816182907738000,7.574738037109375,0.1848788857460022,0.4298531115055084,-0.5157775282859802
1782816182927819300,7.5948193359375,-0.4352511465549469,0.44432541728019714,-1.641794204711914
1782816182947901200,7.614901123046875,-1.2570499181747437,0.7173266410827637,-2.3821637630462646
1782816182967983400,7.6349833984375,-1.34050452709198,1.3516563177108765,-1.764295220375061
1782816182988065300,7.655065185546875,-0.8788774609565735,1.1404706239700317,-0.8002092242240906
1782816183008147200,7.675147216796875,-0.49153465032577515,0.22326260805130005,-0.36833518743515015
1782816183028229000,7.69522900390625,-0.3327960669994354,-0.2643868923187256,-0.2481301873922348
1782816183048311300,7.715311279296875,-0.31366991996765137,-0.18811559677124023,-0.4055170714855194
1782816183068393200,7.735393310546875,-0.6150497794151306,0.8260984420776367,-0.3222130239009857
1782816183088475100,7.75547509765625,-0.7633292078971863,1.6092400550842285,0.12998579442501068
1782816183108557300,7.775557373046875,-0.6057284474372864,1.970706820487976,0.6171209812164307
1782816183128638200,7.79563818359375,-0.43204769492149353,1.744672417640686,1.0015275478363037
1782816183148720400,7.815720458984375,-0.17568530142307281,1.0598145723342896,1.298373818397522
1782816183168801300,7.83580126953125,-0.06996575742959976,0.38209596276283264,1.4476455450057983
1782816183188883200,7.85588330078125,-0.2632597088813782,0.05941232666373253,1.6279131174087524
1782816183208965400,7.87596533203125,-0.5419436693191528,0.07989770919084549,1.9277406930923462
1782816183229047300,7.89604736328125,-0.8027854561805725,-0.10272295027971268,2.0996127128601074
1782816183249129200,7.916129150390625,-0.8767468333244324,-0.6000427007675171,1.8982139825820923
1782816183269211400,7.93621142578125,-0.7208843231201172,-0.8972181677818298,1.303697109222412
1782816183289293300,7.956293212890625,-0.43950822949409485,-0.44973301887512207,0.7013509273529053
1782816183309375200,7.976375244140625,-0.07723499089479446,0.7515969276428223,0.50593101978302
1782816183329456400,7.996456298828125,0.3314363658428192,1.3671765327453613,0.35539495944976807
1782816183349538300,8.016538330078125,0.3356134295463562,1.4067057371139526,-0.071042001247406
1782816183369620200,8.0366201171875,-0.06479381769895554,0.438555508852005,-0.8034787178039551
1782816183389702400,8.056702392578124,-0.8567014336585999,-0.9129348397254944,-1.6809847354888916
1782816183409784300,8.076784423828125,-1.2705564498901367,-0.43405330181121826,-1.8403854370117188
1782816183429866200,8.0968662109375,-0.48954489827156067,1.47343111038208,-1.0333455801010132
1782816183449948400,8.116948486328125,0.05045152083039284,1.885776400566101,-0.7968080639839172
1782816183470030300,8.1370302734375,-0.10876202583312988,0.9429565072059631,-0.8272343277931213
1782816183490112300,8.1571123046875,-0.10900626331567764,0.138284832239151,-0.39281466603279114
1782816183510193200,8.177193115234376,0.15196843445301056,-0.16581648588180542,0.2437473088502884
1782816183530275000,8.197275146484374,0.3609035015106201,-0.09529851377010345,0.7071390151977539
1782816183550357000,8.21735693359375,0.4305567443370819,-0.10272587835788727,0.6429746150970459
1782816183570439200,8.237439208984375,0.3872550427913666,-0.34577706456184387,0.1708795577287674
1782816183590521000,8.25752099609375,0.3525378406047821,-0.354778915643692,0.09196609258651733
1782816183610603000,8.27760302734375,0.5047784447669983,-0.16872073709964752,0.4197445511817932
1782816183630685400,8.297685546875,0.6380048394203186,-0.2576339840888977,0.5543083548545837
1782816183650767400,8.317767333984374,0.5864275097846985,-0.6469422578811646,0.43953391909599304
1782816183670848300,8.33784814453125,0.4007793068885803,-1.0911024808883667,0.3681567311286926
1782816183690930200,8.35793017578125,0.28487637639045715,-1.1410374641418457,0.5825173854827881
1782816183711012000,8.37801220703125,0.2576236426830292,-0.8221465945243835,0.7601760029792786
1782816183731094000,8.398093994140625,0.07159528136253357,-0.7112925052642822,0.282275915145874
1782816183751176200,8.41817626953125,-0.2926446795463562,-0.93707674741745,-0.5511706471443176
1782816183771258000,8.438258056640626,-0.5653173923492432,-0.7189466953277588,-1.0088332891464233
1782816183791340000,8.458340087890624,-0.7616824507713318,-0.09044218808412552,-1.1701892614364624
1782816183811422200,8.478422119140625,-0.8546108603477478,0.5354062914848328,-1.0565705299377441
1782816183831503000,8.498503173828125,-0.6984381079673767,0.834096372127533,-0.7226126194000244
1782816183851585000,8.5185849609375,-0.2868918478488922,0.818020224571228,-0.29153352975845337
1782816183871667200,8.538667236328125,0.11492037028074265,0.5523053407669067,0.06340881437063217
1782816183891749000,8.5587490234375,0.15225090086460114,0.27488771080970764,0.3690130412578583
1782816183911831000,8.5788310546875,0.2118760347366333,0.10797709971666336,0.6108044385910034
1782816183931913200,8.598913330078124,0.24690409004688263,-0.30265405774116516,0.40394163131713867
1782816183951995100,8.6189951171875,0.032808709889650345,-0.9140939712524414,-0.11159148067235947
1782816183972077000,8.6390771484375,-0.2680547833442688,-0.9396067261695862,-0.3514476716518402
1782816183992158200,8.659158203125,-0.27102118730545044,-0.4270602762699127,-0.18909358978271484
1782816184012240100,8.679240234375,-0.08814390748739243,0.12417636066675186,-0.01324948575347662
1782816184032322000,8.699322021484376,0.05667776241898537,0.1984902024269104,0.14887678623199463
1782816184052404200,8.719404296875,0.15334081649780273,-0.052141185849905014,0.07602106034755707
1782816184072486100,8.739486083984374,0.30326423048973083,-0.27871423959732056,-0.4822818338871002
1782816184092568000,8.759568115234375,0.3140736520290375,-0.4246984124183655,-1.3074005842208862
1782816184112650200,8.779650146484375,0.0824648067355156,-0.43549638986587524,-1.9646029472351074
1782816184132732200,8.799732177734375,-0.0026796215679496527,-0.10182499140501022,-2.020946502685547
1782816184152813300,8.819813232421875,0.1133110374212265,1.4133031368255615,-1.3199172019958496
1782816184172896000,8.83989599609375,0.24354907870292664,1.988584041595459,-0.754368245601654
1782816184192978000,8.85997802734375,-0.09173022955656052,1.5286922454833984,-0.08363740891218185
1782816184213059800,8.880059814453125,-0.6143468618392944,0.062032025307416916,-0.011288592591881752
1782816184233142000,8.90014208984375,-1.1066076755523682,-1.4551607370376587,-0.16255991160869598
1782816184253224000,8.920223876953125,-1.1902110576629639,-0.8075168132781982,0.5948600172996521
1782816184273305900,8.940305908203126,-0.861812174320221,-0.7411869764328003,1.1352763175964355
1782816184293387000,8.960386962890626,-0.3280729651451111,-0.6753149628639221,1.6412433385849
1782816184313469000,8.980468994140624,0.1792050451040268,-0.8004888296127319,1.7131444215774536
1782816184333550800,9.00055078125,0.4731850028038025,-0.6324396133422852,1.3341389894485474
1782816184353633000,9.020633056640625,0.5112829208374023,-0.19656097888946533,0.8021658062934875
1782816184373715000,9.04071484375,0.6080735325813293,0.11039071530103683,0.3476402163505554
1782816184393796900,9.060796875,0.7035781145095825,0.15071266889572144,0.15002194046974182
1782816184413879000,9.080879150390626,0.6085758209228516,0.0608799010515213,0.20989738404750824
1782816184433960000,9.1009599609375,0.4690518081188202,0.10786768794059753,0.34946584701538086
1782816184454041900,9.121041748046874,0.4414898157119751,0.08621793985366821,0.3687450587749481
1782816184474124000,9.1411240234375,0.3994424343109131,0.059534355998039246,0.27672839164733887
1782816184494206000,9.1612060546875,0.2726057171821594,-0.06009211018681526,0.24416501820087433
1782816184514287900,9.181287841796875,0.11837049573659897,-0.16087029874324799,0.25269776582717896
1782816184534370000,9.2013701171875,-0.06002478301525116,-0.48592889308929443,0.22984637320041656
1782816184554452000,9.221451904296876,-0.0914670079946518,-0.583283007144928,0.23383647203445435
1782816184574534000,9.241533935546874,-0.02350062131881714,-0.5605692267417908,0.2599721848964691
1782816184594615000,9.261614990234374,0.0923529639840126,-0.4914137125015259,0.13557228446006775
1782816184614697000,9.281697021484375,0.13335800170898438,-0.25066423416137695,-0.03844394534826279
1782816184634779000,9.30177880859375,0.16488684713840485,0.08994654566049576,-0.16105449199676514
1782816184654861000,9.321861083984375,0.21178390085697174,0.34576866030693054,-0.15256406366825104
1782816184674943000,9.34194287109375,0.2542722821235657,0.5471457839012146,-0.00905739888548851
1782816184695025000,9.36202490234375,0.23896773159503937,0.4331177771091461,0.08718807250261307
1782816184715107000,9.382107177734374,0.25756147503852844,0.39040407538414,0.1739661544561386
1782816184735188000,9.40218798828125,0.32018691301345825,0.5090551972389221,0.23098428547382355
1782816184755270000,9.422269775390625,0.33672410249710083,0.44329795241355896,0.18438173830509186
1782816184775352000,9.44235205078125,0.28928881883621216,0.2449476718902588,0.18970857560634613
1782816184795434000,9.46243408203125,0.18587671220302582,0.1693817526102066,0.27146732807159424
1782816184815516000,9.482515869140625,0.1054535061120987,0.14034752547740936,0.259757936000824
1782816184835598000,9.50259814453125,0.12098811566829681,0.15464797616004944,0.16883644461631775
1782816184855680000,9.522679931640624,0.20190662145614624,0.26179108023643494,0.10759790241718292
1782816184875761200,9.54276123046875,0.25677689909935,0.3142566680908203,0.06759407371282578
1782816184895843000,9.562843017578125,0.22880525887012482,0.30808377265930176,0.040643319487571716
1782816184915925000,9.582925048828125,0.1705108880996704,0.2188047468662262,0.06887420266866684
1782816184936007000,9.6030068359375,0.15432818233966827,0.20924000442028046,0.17914852499961853
1782816184956089000,9.623089111328126,0.18207845091819763,0.154282808303833,0.247194305062294
1782816184976171000,9.6431708984375,0.2042216956615448,0.15915347635746002,0.20919562876224518
1782816184996253000,9.6632529296875,0.1490892618894577,0.228725403547287,0.12801231443881989
1782816185016334000,9.683333984375,0.07775746285915375,0.2556729018688202,0.06555527448654175
1782816185036416000,9.703416015625,0.06110942363739014,0.2083473801612854,0.06812068074941635
1782816185056498200,9.723498291015625,0.05922521650791168,0.11634457111358643,0.05166128650307655
1782816185076580000,9.743580078125,0.06771936267614365,0.1077156588435173,0.03585515916347504
1782816185096662000,9.763662109375,0.04419845715165138,0.06419365853071213,0.0833987146615982
1782816185116744000,9.783743896484374,0.03280044347047806,0.02202955260872841,0.161525696516037
1782816185136826000,9.803826171875,0.04660336673259735,0.05142039433121681,0.18728283047676086
1782816185156908000,9.823907958984375,0.06893393397331238,0.13320372998714447,0.1369917392730713
1782816185176988400,9.843988525390625,0.057673241943120956,0.11564352363348007,0.07282105833292007
1782816185197070300,9.8640703125,0.03263380378484726,0.0056839208118617535,0.03811192885041237
1782816185217152300,9.88415234375,0.025375932455062866,-0.018492311239242554,0.0262091513723135
1782816185237234400,9.904234375,0.021316492930054665,-0.025570645928382874,-0.019323037937283516
1782816185257316400,9.92431640625,0.0036136943381279707,-0.015441903844475746,-0.06289719045162201
1782816185277398300,9.944398193359374,-0.007235693745315075,-0.03754078596830368,-0.04047088325023651
1782816185297480400,9.96448046875,0.012230226770043373,0.05963429808616638,0.03352707624435425
1782816185317561300,9.984561279296875,0.01960921473801136,0.1108975037932396,0.07020636647939682
1782816185337643300,10.004643310546875,0.015344403684139252,0.12210281938314438,0.0724497064948082
1782816185357725400,10.024725341796875,-0.008993277326226234,0.05957510322332382,0.06313327699899673
1782816185377807400,10.044807373046876,-0.029638057574629784,-0.03211715817451477,0.05447970703244209
1782816185397889300,10.06488916015625,-0.0036535144317895174,0.006309392862021923,0.032588422298431396
1782816185417971500,10.084971435546874,0.013917123898863792,0.07019545137882233,-0.004626219626516104
1782816185438053400,10.105053466796875,-0.03589319437742233,0.0801016092300415,-0.04050325229763985
1782816185458135300,10.12513525390625,-0.03132691606879234,0.14863228797912598,-0.04076303169131279
1782816185478216400,10.145216552734375,0.011960281990468502,0.13784465193748474,-0.010959802195429802
1782816185498298400,10.16529833984375,0.020132891833782196,0.002676470670849085,0.009957835078239441
1782816185518380300,10.18538037109375,0.005659626796841621,-0.11306729167699814,0.0053122686222195625
1782816185538462500,10.20546240234375,0.015316124074161053,-0.08007969707250595,0.015808740630745888
1782816185558544400,10.22554443359375,0.027707813307642937,-0.021213192492723465,0.02225678786635399
1782816185578626300,10.245626220703125,0.025644171983003616,0.04528910294175148,0.0038704974576830864
1782816185598708500,10.26570849609375,0.025964291766285896,0.061196327209472656,-0.00979323498904705
1782816185618790400,10.285790283203125,0.04257190600037575,0.049817267805337906,0.0023489135783165693
1782816185638871600,10.30587158203125,0.04670879989862442,-0.015193982049822807,-0.0027250389102846384
1782816185658953500,10.325953369140626,0.025662263855338097,-0.060477834194898605,-0.015069862827658653
1782816185679035400,10.346035400390624,-0.000997734721750021,-0.09231806546449661,-0.018872316926717758
1782816185699117300,10.366117431640625,0.012157748453319073,-0.030357489362359047,-0.018123701214790344
1782816185719199500,10.386199462890625,0.033408213406801224,0.04852011427283287,-0.03155110403895378
1782816185739281400,10.406281494140625,0.02326798439025879,0.04489707946777344,-0.037081584334373474
1782816185759363300,10.42636328125,-0.007755711674690247,0.004199982155114412,-0.029495568946003914
1782816185779445500,10.446445556640626,-0.029117900878190994,-0.022813446819782257,-0.027470488101243973
1782816185799526400,10.4665263671875,-0.03003445453941822,-0.06063311547040939,-0.07247120887041092
1782816185819608600,10.486608642578124,0.01317538321018219,0.12753930687904358,-0.08170896768569946
1782816185839690500,10.5066904296875,0.057006653398275375,0.17451483011245728,-0.05699419230222702
1782816185859772400,10.5267724609375,0.05434112623333931,0.1282612681388855,0.03067835047841072
1782816185879854300,10.546854248046875,-0.10606279224157333,0.16475676000118256,0.19151346385478973
1782816185899936500,10.5669365234375,-0.2767077088356018,0.19370144605636597,0.3117353022098541
1782816185920018400,10.587018310546876,-0.22163699567317963,-0.005980757996439934,0.17362958192825317
1782816185940099600,10.607099609375,-0.032473333179950714,-0.004857623018324375,-0.05686657875776291
1782816185960181500,10.627181396484374,0.12481722980737686,0.09319651871919632,-0.16310076415538788
1782816185980263400,10.647263427734375,0.14121343195438385,0.10942523181438446,-0.2767522931098938
1782816186000345300,10.667345458984375,0.0036978928837925196,0.09551721066236496,-0.44166943430900574
