time,seconds_elapsed,z,y,x
1782816360088511700,0.05751171875,-0.20253040503561495,-0.020056699600815773,-0.15393663439424707
1782816360108593700,0.07759375,-0.30761808845102784,0.22653730356693266,-0.3707188704105094
1782816360128675600,0.097675537109375,0.10382219352424144,0.49453532929122446,-0.3746716631568968
1782816360148757800,0.1177578125,1.3851526279062032,0.7543889192655682,0.20051314692907035
1782816360168839700,0.137839599609375,1.1740525474458932,0.968743617607653,0.04070077063553035
1782816360188921600,0.157921630859375,0.04311959528028965,2.3051573490470645,-0.5335138061787933
1782816360209003800,0.178003662109375,0.7659510545045137,0.8062287043571472,-0.7604197238624095
1782816360229084700,0.198084716796875,1.3344102826625108,0.23004238907843827,-1.0678266537807881
1782816360249166800,0.218166748046875,0.9684335287451743,0.1728010372042656,-0.6790601220369339
1782816360269248800,0.238248779296875,0.25439561682939527,0.6867308027952909,-0.028856786247901618
1782816360289330700,0.25833056640625,0.9519722232878207,0.007354162155091762,0.764348953070119
1782816360309412600,0.27841259765625,1.7570254541248083,-0.5586445211082697,2.2248640612788497
1782816360329494800,0.298494873046875,3.3692291803389787,-1.3501510187603531,2.9544740747272966
1782816360349576400,0.318576416015625,4.22714715540111,-0.5034320447131991,0.5266061456821859
1782816360369658400,0.338658447265625,1.9007476963609455,-0.8534107267707586,0.8471569270730018
1782816360389740500,0.358740478515625,-2.5064649342894554,-0.6760514417402446,0.8864081564873456
1782816360409822500,0.378822509765625,-2.7201100230574604,0.3076398253588006,-0.1435321264915168
1782816360429904400,0.398904296875,-1.7987053719907997,0.8849892296001315,-1.0114433800406752
1782816360449985500,0.418985595703125,-1.0972533854037523,-0.555532453502342,0.6356875018436461
1782816360470067500,0.4390673828125,-0.16298165397942066,-0.31714290917608884,0.43996210064776237
1782816360490149400,0.4591494140625,1.185149695521593,-0.45022857005298134,-0.694960871002078
1782816360510231600,0.4792314453125,1.5636217738747595,-0.9020832069378346,-1.7845082120731472
1782816360530313500,0.4993134765625,3.1136621816426513,-1.0929690591480583,-0.4940712919760495
1782816360550395400,0.5193955078125,3.4047055673897266,-0.917703677656874,0.3680347824256867
1782816360570477600,0.5394775390625,1.7731255250543354,0.02203004550039768,-0.06015037118867039
1782816360590559500,0.5595595703125,-1.46574533701241,0.643271819492802,-0.050383960260078305
1782816360610641400,0.579641357421875,-4.72997217413187,0.4004546314500272,0.08315612985342741
1782816360630723600,0.5997236328125,-7.721935144776105,-0.5571654615316539,0.8856332996573298
1782816360650805500,0.619805419921875,-12.058372111457585,-1.278235244845599,2.490506025396287
1782816360670886400,0.639886474609375,-15.973066013336181,1.138574260699004,1.4143342987269163
1782816360690968600,0.659968505859375,-15.331794062423706,1.4081893662311136,0.8784743678133934
1782816360711050500,0.680050537109375,-9.843665433186292,-0.8319057280577719,1.0590814756587148
1782816360731132400,0.70013232421875,-5.668502732044458,-2.0392732467368244,-0.17262009114678947
1782816360751214600,0.720214599609375,-5.393807254508137,-1.7303087121129035,-0.5997841946177184
1782816360771296500,0.740296630859375,-4.106875931379199,-1.2876314342223107,-0.12584405571818352
1782816360791378400,0.76037841796875,-1.4862538720339535,-0.09640417235270142,-0.7439655787982046
1782816360811460600,0.780460693359375,-1.3277303665071725,0.35306846476644277,-0.7924151369296014
1782816360831542500,0.80054248046875,1.1343564968734978,-0.835565931065753,-1.528340617135167
1782816360851624400,0.82062451171875,4.281900489851832,-1.0551362451642752,-0.7040523783437908
1782816360871706400,0.840706298828125,6.805766640797257,-0.6876721752986311,0.7479360167991369
1782816360891788500,0.86078857421875,7.368444947466254,-0.2341967870778404,0.9867936535611748
1782816360911869400,0.880869384765625,7.286637017351389,-0.4512921806965023,0.46368981691151856
1782816360931951600,0.90095166015625,7.718862897723913,-0.9924284445777535,-0.8106643487170339
1782816360952033500,0.921033447265625,8.365244154474139,-0.64794499893561,-1.5471289042353629
1782816360972115500,0.941115478515625,9.007143881896138,0.5317404398307204,-1.6228773881807923
1782816360992197600,0.96119775390625,8.63156401785314,1.3311840140923856,-1.4784524045027791
1782816361012279600,0.981279541015625,6.663025810813903,1.2993177803628146,-1.3305483465373515
1782816361032361500,1.001361572265625,6.256660932406783,2.311906238785386,-1.1875859827578068
1782816361052443400,1.021443359375,6.731572108295559,2.2778641223214566,-1.5872086934283376
1782816361072525600,1.041525634765625,5.687675050026178,2.308369881352782,-2.0797548947289584
1782816361092607500,1.061607421875,4.661212526160479,0.9670659667190163,-2.403027063907683
1782816361112689400,1.081689453125,3.2162650625050064,0.8302607373297214,-2.4373121953472494
1782816361132770600,1.1017705078125,1.7540420543998478,0.2216216206051409,-1.8915975906997917
1782816361152852500,1.1218525390625,2.3300959754705426,-1.8681494950950144,-0.9380679088369012
1782816361172934700,1.1419345703125,-2.376967032238841,-2.246768872964382,0.28784396865125744
1782816361193016600,1.1620166015625,-9.351936978009343,-0.6956216729983687,-1.1746211411140859
1782816361213098500,1.182098388671875,-4.912267600390315,1.6170619799003003,1.0522597398798912
1782816361233180400,1.202180419921875,-3.8007396059185266,-1.492435775539279,-0.182685740750283
1782816361253262600,1.2222626953125,-5.529958184707165,1.411382170923054,-3.4734462183997032
1782816361273344500,1.242344482421875,-4.3857519094705575,1.4735390596285463,-2.482911040222645
1782816361293426400,1.262426513671875,-4.335908558893204,1.4864679531760512,-2.1961152289174497
1782816361313508600,1.282508544921875,-6.785927383339405,0.43412024275176225,-2.5157222997173667
1782816361333589200,1.30258935546875,-8.501669809961319,0.8780066041711717,-0.013510638958215714
1782816361353671400,1.32267138671875,-4.402172882917523,-0.13897649988061747,1.2623219286598264
1782816361373753300,1.34275341796875,-0.3594868073761463,-1.8306829571403562,2.031233732666075
1782816361393835300,1.362835205078125,0.5410977585017681,-2.464664604914188,2.9535704038858412
1782816361413917200,1.382917236328125,1.1812228774666786,-1.7218617862850427,2.204611839105934
1782816361433999400,1.402999267578125,2.4924188732802866,-1.4253605735234915,2.715897958320379
1782816361454081300,1.423081298828125,5.158792045453191,-1.9271894208237528,2.0140444051951167
1782816361474163200,1.4431630859375,7.6356281496763225,-2.4945751745313403,1.7028547418676316
1782816361494245400,1.463245361328125,7.839201926285028,-2.205848541294038,0.965385320155695
1782816361514327300,1.483327392578125,6.9582526197254655,-1.6919072313956915,0.88817165902853
1782816361534409200,1.5034091796875,7.20159083596766,-1.4788896268762648,0.5021988496564328
1782816361554490400,1.523490478515625,8.331590891197322,-1.738562161195278,0.44001390390023587
1782816361574572300,1.543572265625,5.818271268707513,-0.9728417005762457,-0.2085208045568317
1782816361594654200,1.563654296875,1.4013245950281619,-0.13862528442330657,-0.4121501107450574
1782816361614736400,1.583736328125,-1.5215402894705532,0.29972477791793645,0.654805386224389
1782816361634818300,1.603818359375,-8.86642432860732,-0.8509888333860784,2.228899015883356
1782816361654900200,1.623900146484375,-15.57451560807228,-0.6489833290074021,0.9872516264617442
1782816361674982400,1.643982421875,-18.31976241047382,-0.003736629245057702,-1.0860939126815645
1782816361695064300,1.664064208984375,-21.779325357210634,-0.5103237039230764,-3.7610166673392054
1782816361715146200,1.684146240234375,-17.408583969867227,-4.792950900614262,-4.834772857299447
1782816361735228400,1.704228515625,-11.814866137433052,-6.311953780561685,-6.309670638060569
1782816361755310300,1.724310302734375,-11.176052685588598,-3.9624318046092983,-6.219654851570725
1782816361775391200,1.74439111328125,-5.908755841752886,-0.7727442217759788,-3.187373314541578
1782816361795473400,1.764473388671875,0.39589199970960615,0.58588583498355,-0.21837109437659383
1782816361815555300,1.784555419921875,4.691327678439021,0.10142537978189066,-0.14654117211438714
1782816361835637200,1.80463720703125,6.939186100205779,0.38824875494744626,0.2394176087323576
1782816361855719400,1.824719482421875,8.172130981603264,1.702398814793676,1.6441241743490098
1782816361875801300,1.84480126953125,10.841314535021782,1.6374176624476908,2.248335683889687
1782816361895883300,1.86488330078125,12.263594239795207,1.317261287201941,1.9696984829902648
1782816361915965400,1.88496533203125,11.77052079975009,0.8740472720861434,1.2161091166045517
1782816361936047400,1.90504736328125,10.048960042238235,1.2368509489253163,0.8453783000279217
1782816361956129300,1.92512939453125,9.222049784380197,1.5021471683450043,1.090052294918522
1782816361976211200,1.945211181640625,9.826984347498417,1.60088869760409,1.1219632445726544
1782816361996292400,1.965292236328125,10.72934352183342,1.8174344762496648,0.8789929848600179
1782816362016374300,1.985374267578125,9.192139799284934,2.2509749463520943,1.0777197598289698
1782816362036456400,2.00545654296875,8.74798032001257,2.085177796560526,0.8962364536710083
1782816362056538400,2.025538330078125,5.277699579906463,1.0961617907747625,1.5823822961851954
1782816362076620300,2.045620361328125,1.8218407483845949,1.9704928482383488,0.608186696781963
1782816362096702500,2.065702392578125,-0.668088061645627,1.8372239032164215,-1.9261242758102715
1782816362116784400,2.085784423828125,-4.126894052535295,1.3415598621562121,0.3690238665282726
1782816362136866300,2.1058662109375,-10.314015000247954,2.747017903727293,1.2510749968498944
1782816362156948200,2.1259482421875,-12.234381004792452,2.458402329649031,-2.5535052101448175
1782816362177030400,2.146030517578125,-9.184901080203057,-1.7603823633372782,-3.172362207892537
1782816362197111300,2.166111328125,-3.8956630381941793,-6.337857452625036,-2.5500807886540886
1782816362217193500,2.186193359375,-5.788970355421305,-3.2872380026116965,-3.9949762298613782
1782816362237275400,2.206275390625,-11.264871955770253,1.6862250941060482,-4.980584765291214
1782816362257357300,2.226357421875,-11.185018082332611,1.8609886635549366,-3.576632159847021
1782816362277439200,2.246439208984375,-6.7718906746804715,-1.4479068979829548,-2.4051304659277197
1782816362297521400,2.266521484375,-1.413051273179054,-4.14037868026942,-1.48797645804286
1782816362317603300,2.286603271484375,1.7083184141010046,-4.332510733148456,0.35912206571698185
1782816362337686300,2.306686279296875,1.89678580699265,-2.7161320593371987,1.5139876821339129
1782816362357768200,2.326768310546875,2.7348247771084306,-1.9723335076689719,2.671941912215948
1782816362377850400,2.346850341796875,4.275349168512225,-1.9532827702403068,3.2777132184192537
1782816362397932300,2.366932373046875,5.679233969417214,-2.108643866213411,3.259356892995536
1782816362418013400,2.387013427734375,7.195626959127187,-2.728891295406222,2.3783811368204653
1782816362438095400,2.407095458984375,7.902807844755053,-2.755486749126017,1.075795002311468
1782816362458177300,2.42717724609375,7.667484008142352,-2.115838600023091,1.1752559318862854
1782816362478259200,2.44725927734375,7.2267580104500055,-0.9985978539276867,1.619437915251404
1782816362498341400,2.46734130859375,6.57953562670052,-0.21582882601525633,1.4666931392565368
1782816362518423300,2.48742333984375,5.335976412308216,0.44506161574386055,1.339245009342581
1782816362538505200,2.507505126953125,3.3271009341835973,1.1162168829403818,1.4672374752663075
1782816362558587400,2.52758740234375,-0.2444207507818937,1.6866740069173276,1.3399705471381544
1782816362578669300,2.54766943359375,-5.535568425804376,2.6900498158365487,0.49332259250059723
1782816362598751200,2.567751220703125,-10.423470231223106,3.021967648285627,0.4097452415604144
1782816362618832400,2.587832275390625,-11.040949803137778,2.142679260675609,-0.13303656103815883
1782816362638914300,2.607914306640625,-11.322446192860603,2.5188313716486097,-0.9135365480400621
1782816362658996200,2.627996337890625,-11.056652399182319,-0.3770115042813122,-1.6460548501506447
1782816362679078400,2.648078369140625,-9.315254137778282,-2.949633941219747,-5.162478625011444
1782816362699160300,2.668160400390625,-7.5358578618913885,-4.423618114267289,-7.264221771925687
1782816362719242200,2.6882421875,-8.469437519398332,-0.4320738316159695,-6.635070466917753
1782816362739324400,2.708324462890625,-2.07586285572648,1.0764084580346942,-2.7547084582298993
1782816362759406300,2.72840625,-1.7646441124349832,2.009013279160112,-1.1141036901786923
1782816362779488300,2.74848828125,-2.7359955744534727,1.3349188167065382,0.9814538999684155
1782816362799570400,2.7685703125,-1.0010726465433835,-0.1352863492589444,2.509743809829652
1782816362819651300,2.7886513671875,2.852267499706149,-1.308727998264879,3.2291578618258234
1782816362839733200,2.808733154296875,6.42847003596425,-1.563738678252697,3.9684406896352766
1782816362859815400,2.8288154296875,8.668519245284795,-1.6650731466144322,4.105765924310684
1782816362879897300,2.8488974609375,9.223690537324547,-1.502999985782057,3.378256828664243
1782816362899979300,2.868979248046875,9.166403885003923,-1.4375168752633034,2.0353899755626914
1782816362920061400,2.8890615234375,10.207402883744239,-1.5149731860399245,1.1794207964807748
1782816362940143400,2.909143310546875,10.610585040462016,-1.3926906221956015,0.8373283376283943
1782816362960225300,2.929225341796875,9.739833302789926,-1.115867338850349,0.04039250840395689
1782816362980307500,2.949307373046875,8.137513257208466,-0.8809028370693326,-0.4854315469898283
1782816363000389400,2.969389404296875,6.299120017951727,-0.6722270611464977,-0.39707755623236296
1782816363020470300,2.98947021484375,3.934586350828409,-0.32167083492930976,-0.004322724320611451
1782816363040552400,3.009552490234375,1.0001496864795685,-0.26166867657229304,1.137292696455866
1782816363060634400,3.02963427734375,-3.359915993070602,2.719774799753725,1.2253008694503456
1782816363080716300,3.04971630859375,-9.128557261690498,2.7965450279623267,4.203758096507191
1782816363100798500,3.069798583984375,-11.522443864548206,2.523004565680027,1.7392387452825904
1782816363120880400,3.08988037109375,-11.760413247233629,2.5472055254787205,-2.127200098123401
1782816363140962300,3.10996240234375,-11.554449945139885,0.15768573952838777,-5.0560751828223465
1782816363161044500,3.13004443359375,-6.19594196754992,-2.8454104734182355,-7.013950541549921
1782816363181126400,3.15012646484375,-0.30205402458310127,-4.752160625064373,-7.107481058162451
1782816363201207300,3.170207275390625,-3.4636119298666714,-1.616492071057856,-6.338535498017072
1782816363221289500,3.19028955078125,-7.668385925418138,2.9664418681576845,-4.908766314271092
1782816363241371400,3.210371337890625,-10.805946284520626,3.6207065716341136,-1.750353136754036
1782816363261453300,3.230453369140625,-4.8093280349195,2.3343526100017127,1.64030987675786
1782816363281535500,3.250535400390625,2.942451628500223,1.038446391648054,4.315795452930033
1782816363301617400,3.270617431640625,6.256547535160183,-0.22002383001968262,4.26754404771924
1782816363321699300,3.29069921875,5.574008338835835,-1.3993039028555154,4.172967236924171
1782816363341780500,3.310780517578125,5.253763993045688,-1.5725556064367294,3.90899656701982
1782816363361862400,3.3308623046875,6.454579459732771,-1.7170656380496918,3.94292163297534
1782816363381944300,3.3509443359375,7.933886873629689,-2.0306319673806428,2.8144389965713024
1782816363402025200,3.371025146484375,8.250459837430714,-2.8948487503260374,1.3305898475915192
1782816363422107100,3.391107177734375,7.437581612056493,-2.9164824899852273,0.9377529976688325
1782816363442189300,3.411189208984375,6.163567638167739,-2.1526729775540527,0.23391749521242453
1782816363462271200,3.431271240234375,2.8952181681603193,-2.2853147305883468,-0.5776278193239123
1782816363482353200,3.451353271484375,2.164956851196289,-1.3040151443988084,-0.7144662933956831
1782816363502435300,3.471435302734375,1.8838801481902598,0.428588546783477,0.6029463849756866
1782816363522517200,3.491517333984375,0.5543973850578069,0.8646548090364784,2.4623589583203196
1782816363542599200,3.51159912109375,-4.645416406613588,2.339423337394744,1.0049196773603557
1782816363562681000,3.53168115234375,-10.165578004449605,1.3297240245424211,0.45849787429161365
1782816363582762200,3.55176220703125,-11.191866340792178,3.1021999996468423,-2.518281336550414
1782816363602844200,3.57184423828125,-9.718355045953393,2.3761305814146993,-3.4670062484800814
1782816363622926300,3.59192626953125,-6.430068118810653,-0.21619579616412518,-4.401702342796326
1782816363643008300,3.61200830078125,-3.5682220588982103,-2.1765416366584596,-6.099487087923288
1782816363663090200,3.632090087890625,-3.1436662747621535,-1.6039439935214816,-5.660674814897775
1782816363683172400,3.65217236328125,-6.400687126025558,2.1543927870839834,-4.339456606763601
1782816363703254300,3.672254150390625,-5.137088163167238,2.7629470020040867,-1.0938920922771096
1782816363723336200,3.692336181640625,-2.7453888412207363,0.8275741285942494,0.4863344871789217
1782816363743418000,3.712418212890625,-0.11216156732439994,-1.2866298559643328,1.4791589453369378
1782816363763500300,3.732500244140625,2.3388772478193043,-2.2121175385609266,2.864991956722736
1782816363783581200,3.752581298828125,3.882895326557755,-2.1962368094705043,3.9579385848432778
1782816363803663400,3.772663330078125,4.3451194548308845,-1.626902405913174,4.37514488299936
1782816363823745300,3.792745361328125,4.983813079687953,-1.7483314216680823,3.8543209739804265
1782816363843827200,3.8128271484375,6.570909252652526,-1.905257136609405,3.2519536310017108
1782816363863909000,3.8329091796875,7.52317256784141,-2.0903242195382714,2.676318812125921
1782816363883991300,3.8529912109375,7.596490902030467,-2.193350001987815,1.9724055499918758
1782816363904073200,3.8730732421875,7.149913840222358,-1.822642127895355,1.7654460764676332
1782816363924155100,3.893155029296875,6.087902448591589,-1.217213059258461,1.368050686457753
1782816363944237300,3.9132373046875,6.007102818736434,-0.6060671838773414,1.1428041533537208
1782816363964318200,3.933318115234375,6.1646566024482246,-0.21132050001164898,1.0702608951903878
1782816363984400400,3.953400390625,4.9310389363557094,0.5257429164489731,0.8761306542314589
1782816364004482300,3.973482421875,1.7997545887827873,1.7471306675761937,0.7599972606666385
1782816364024564200,3.993564208984375,-1.6626806985199452,2.5924188781678676,0.9009455081447958
1782816364044646100,4.013646240234375,-7.060761977085471,0.3357737772248685,1.7464657739266751
1782816364064728300,4.033728271484375,-9.278865896579623,1.1091712752778082,-0.9130315941926092
1782816364084810200,4.053810302734375,-14.448818802994488,1.5593907121762633,-1.2980351932063698
1782816364104892200,4.07389208984375,-17.386918081504106,1.6390172065988182,-2.587324769899249
1782816364124974300,4.093974365234375,-15.630798051786423,0.15474961301125584,-5.509924281460046
1782816364145055200,4.11405517578125,-11.913314821225404,-0.5408172975925728,-4.822875206495821
1782816364165137400,4.134137451171875,-7.317807231640815,-0.5724396760962903,-2.914670472127199
1782816364185219300,4.15421923828125,-2.5811376056969166,-1.5807923966452477,-1.4137180665247142
1782816364205301200,4.17430126953125,0.6690040074467659,-2.6952663814410567,-0.9710019179284572
1782816364225383200,4.194383056640625,3.275536166641116,-3.0277152520269155,-0.1559684872817248
1782816364245465300,4.21446533203125,4.816379706996679,-2.82910231269598,0.6394466351814567
1782816364265547300,4.23454736328125,5.696120806810259,-2.483905019696057,1.1887421670556069
1782816364285629200,4.254629150390625,6.740290836802124,-2.274440869874507,1.2585355419889093
1782816364305711400,4.27471142578125,7.64335494453609,-2.17716079147011,1.121933653151989
1782816364325792300,4.294792236328125,7.979848414337635,-1.8860747356250882,1.08837069850713
1782816364345874400,4.31487451171875,8.532107618322968,-1.4271084401041267,1.2900899332903324
1782816364365956600,4.33495654296875,8.852006511676311,-1.2915841173708438,1.3009643785260616
1782816364386038500,4.35503857421875,8.698729090109467,-1.1753525241285563,1.2584667145363986
1782816364406120400,4.375120361328125,7.551350030055642,-0.9222172095585613,1.0178019552871584
1782816364426202600,4.39520263671875,5.78784047460854,-0.3384267759516835,0.5521855176946148
1782816364446284500,4.415284423828125,3.0990567331850527,0.33483244125414635,0.2076312901048921
1782816364466366500,4.435366455078125,1.5519138004243374,0.886382291393727,1.5807903508186338
1782816364486448600,4.45544873046875,-3.0077877317637203,3.2526720084041356,1.088843722846359
1782816364506529300,4.475529296875,-3.1206495563119647,3.3681106977030635,-1.1783181690011173
1782816364526611500,4.495611572265625,-0.9730150113165378,0.8492064800139516,-3.3468460836172103
1782816364546693400,4.515693359375,-1.11889180123806,0.23229966648593545,-5.7274950192391865
1782816364566775300,4.535775390625,-6.270270355564356,-0.1425416541494429,-7.069725035741925
1782816364586857200,4.555857177734375,-12.828233032882213,1.4760110027000308,-8.961741144114733
1782816364606939400,4.575939453125,-13.560717286592721,4.861289692825078,-8.015651549124717
1782816364627021300,4.596021240234375,-10.352254422271251,4.140318474514782,-3.4055709520474076
1782816364647103500,4.616103515625,-7.4235823127985,0.7579581560544669,-1.3790700931221247
1782816364667185700,4.636185546875,-7.552579864111542,-1.040142820302397,-0.3517190959841013
1782816364687266300,4.656266357421875,-7.205925650301575,-1.7068725992068647,0.8743737275615334
1782816364707348200,4.67634814453125,-5.3336716424971815,-1.9798712096974251,1.5906930284127592
1782816364727430400,4.696430419921875,-1.617935547864437,-1.6439119929030537,2.6849381719112393
1782816364747512300,4.71651220703125,3.138262369892001,-1.187462356378138,3.648421384772658
1782816364767594200,4.73659423828125,6.321852658763527,-1.0627234854228793,3.887617678904533
1782816364787676400,4.756676513671875,7.2241335071653126,-1.4759898137815295,3.294094736638665
1782816364807758300,4.77675830078125,8.023143366184831,-1.2648304043494165,3.061623659108579
1782816364827840300,4.79684033203125,7.974291364732384,-1.0715567802198231,1.7863934412978588
1782816364847922400,4.81692236328125,7.135237664616107,-1.5935564550198613,0.29732169883158055
1782816364868003300,4.83700341796875,6.834692291030287,-1.5656665775753558,-1.249131315436214
1782816364888085200,4.857085205078125,6.626671471884847,-1.301372374805063,-1.7555577196598051
1782816364908167400,4.87716748046875,5.771221348240971,-1.0832106853954493,-2.1995370200596747
1782816364928249300,4.897249267578125,3.9665462541908023,-0.3206019270561635,-1.683417781600356
1782816364948331300,4.917331298828125,1.1218600033938884,0.9640934537142515,-0.2685048975341953
1782816364968413400,4.937413330078125,-2.9169524455845353,1.159120789643377,1.9037857488825916
1782816364988495400,4.957495361328125,-4.964036366072297,1.4271183769762514,0.6729778795138001
1782816365008577300,4.977577392578125,-7.826830520489811,1.1455554978884757,-1.2394178768038748
1782816365028659500,4.997659423828125,-9.052714961981772,0.32929800533950326,-1.6453168912649154
1782816365048740400,5.017740234375,-8.686111016076802,-0.6634658086724579,-1.901959410238266
1782816365068822300,5.037822265625,-9.19408859526515,-1.0998379950694739,-3.2113796285510063
1782816365088904400,5.057904541015625,-11.20693297702074,0.37432211906686425,-2.97690393320024
1782816365108986400,5.077986328125,-7.871025051525235,1.3155417699329555,-0.11180661640688776
1782816365129068300,5.098068359375,-1.8583575843989848,-0.13394625976160168,1.7065687939547
1782816365149150500,5.118150390625,0.4246574909448623,-1.923652771130204,1.4215458375409245
1782816365169232400,5.138232421875,0.00902384893298149,-1.9046192770972847,1.3309022745415569
1782816365189314300,5.158314208984375,0.8904039481252431,-1.3549074195072055,1.6983555307522415
1782816365209395500,5.1783955078125,2.872204372319579,-0.9220341080766171,1.6306771021462976
1782816365229477400,5.198477294921875,5.1658863876283165,-0.5768516473196447,1.3348333303801714
1782816365249559300,5.218559326171875,6.788458947643638,-0.33734453367292877,0.7943427439913153
1782816365269641500,5.238641357421875,7.6634525606691835,-0.08779036552533506,0.18667479212014004
1782816365289723400,5.258723388671875,7.950892368966341,0.27292861399427054,-0.17691966977054252
1782816365309805300,5.278805419921875,8.321454112586379,0.7773116758219897,-0.25808029669150706
1782816365329887500,5.298887451171875,8.594518189528584,0.9963836119443178,-0.42426673806160686
1782816365349969000,5.318968994140625,8.655165842714906,1.421153331092,-0.5938451599575579
1782816365370677000,5.339677001953125,8.381548808065057,1.731223488870263,-0.8528452018424868
1782816365390759000,5.359759033203125,7.506538828426599,1.9805407795220613,-0.7312148913618177
1782816365410841000,5.379841064453125,5.975614040017128,2.6074533656924963,-0.22887239545099436
1782816365430923000,5.399923095703125,3.1178356679350134,1.932401602514088,0.8567375331059097
1782816365451005000,5.4200048828125,-2.4099013335913417,-0.7629226465940475,3.459673713634908
1782816365471087000,5.440087158203125,-9.041168316572904,1.807150690383464,1.6266799953341484
1782816365491167700,5.460167724609375,-12.961980993592737,2.6305793897360563,1.030881801612675
1782816365511249700,5.480249755859375,-12.460824784857033,0.09579539280459284,0.45381198149770496
1782816365531331800,5.500331787109375,-12.44557928493023,-0.6030900312300771,-3.461589191867411
1782816365551413800,5.520413818359375,-9.729375621661543,-0.712305389034748,-6.157935769760608
1782816365571495700,5.54049560546875,-5.350796964821219,-1.2201899561773986,-5.957872047099471
1782816365591578000,5.560578125,-2.1621996614426373,-0.5137172918841243,-2.928844543430209
1782816365611660000,5.580659912109375,-1.7183710215598345,1.0640542225699872,1.2152464353606105
1782816365631742000,5.600741943359375,-1.326439157652855,0.8354390167504548,3.1463036375284195
1782816365651823900,5.620823974609375,-0.013399579799175262,-0.7398898537918925,2.742337052434683
1782816365671904800,5.64090478515625,2.1783242822915314,-2.0253644022412596,2.088813084322959
1782816365692616000,5.661615966796875,4.718654661303758,-2.381367751415819,1.5740850079610942
1782816365712697900,5.68169775390625,6.684621556550264,-2.5045842351093888,1.099118521688506
1782816365732780000,5.701780029296875,7.567022815483808,-2.2864383277907967,0.5515828390937298
1782816365752860700,5.721860595703125,7.731222613081336,-2.3720684465423223,-0.0715627957586199
1782816365772942800,5.74194287109375,7.85076143117547,-2.2022388263642787,-0.5926057543557137
1782816365793024800,5.762024658203125,7.803971622949838,-1.9214969082705675,-0.6639102645043283
1782816365813106700,5.782106689453125,7.456635856616496,-1.3320745331913233,-0.47669327353257684
1782816365833188900,5.80218896484375,5.47862371878922,-0.5467415365424007,-0.07879241821859032
1782816365853271000,5.82227099609375,2.401435118541121,1.1143536463517696,-0.3158687610544264
1782816365873353000,5.84235302734375,0.5450105480313301,2.0802359562441706,-1.4179001745149493
1782816365893435000,5.862434814453125,-2.0601257728904483,2.8045111845359205,-0.5735947278829291
1782816365913517000,5.88251708984375,-5.886775480613112,0.4076588637404144,4.152507801741361
1782816365933597700,5.90259765625,-10.539189198768138,1.8312309464119374,3.3064851393952965
1782816365953680000,5.922679931640625,-13.110269520831107,1.8340999259769915,1.477255595933646
1782816365973761800,5.94276171875,-14.299163663578033,2.115015300941467,-0.7402341371849179
1782816365993843700,5.96284375,-11.469002197217941,2.693523044905066,-2.330320724137127
1782816366013926000,5.98292578125,-8.013617412948609,1.6231421765968204,-2.370842558009177
1782816366034007800,6.0030078125,-5.302038486871123,0.021086919431388376,-2.218345911556482
1782816366054089700,6.02308984375,-2.1827888604849575,-1.56275828891322,-2.008302792803198
1782816366074172000,6.043171875,-1.239385728099942,-2.297727052915841,-0.7827141924526542
1782816366094253800,6.06325390625,-1.0940122115254403,-3.562898233526945,-0.0478752653747797
1782816366114334700,6.083334716796875,-1.0876040980488062,-4.1583091814965005,-1.145246870330721
1782816366134417000,6.1034169921875,1.8447440695881843,-3.174167503748834,-1.8430612310677765
1782816366154498800,6.123498779296875,5.760953052204847,-2.6592200855478643,-1.3538563030190764
1782816366174580700,6.143580810546875,9.289898162725567,-2.4787127117499708,-0.374752473308146
1782816366194663000,6.163662841796875,9.938622183209658,-1.9368514215297996,0.4869139675673097
1782816366214744800,6.183744873046875,8.014087953069806,-1.892645638448,0.020174773022532462
1782816366234826800,6.20382666015625,7.104446220511198,-2.111433204670995,-0.1529082229282707
1782816366254909000,6.223908935546875,7.07275636626184,-3.4173461455151437,0.29486688955798745
1782816366274990800,6.243990966796875,7.053346147871017,-4.857508128459751,0.08008271375745535
1782816366295071700,6.26407177734375,5.474587010619044,-5.005155727446079,-0.26244181636925784
1782816366315154000,6.28415380859375,-4.071975298389792,-1.2796107709825038,-1.7449509854495524
1782816366335235800,6.30423583984375,-10.52605616095066,4.760363220742344,-3.5686955216288565
1782816366355318000,6.324318115234375,-11.570311531138419,4.579812007802724,-1.197750964549929
1782816366375400200,6.344400146484375,-8.947024051976204,5.067134336975217,-0.3203356408027932
1782816366395482000,6.364482177734375,-5.507753367161751,4.479907864505052,-1.0142676436811684
1782816366415564000,6.38456396484375,-2.943469865632057,2.486823245230317,-1.0236226242646573
1782816366435646000,6.40464599609375,-1.9341332486122846,2.4526667086064813,-1.3749614887595176
1782816366455728000,6.42472802734375,-4.172674391457438,2.8225252723932264,-2.587858146123588
1782816366475809000,6.44480908203125,-5.937244269612431,3.0651340053170917,-2.5577353950604795
1782816366495891200,6.46489111328125,-4.510196035262942,2.033237327573448,-0.7633046316489577
1782816366515973000,6.48497314453125,-2.2190116819888352,0.9408071976076811,0.33240590822696686
1782816366536055000,6.505054931640625,0.21633330493867395,-0.2324476053229533,0.9417539038732647
1782816366556137000,6.525136962890625,1.9216268182605505,-1.068600122371316,1.2515757859788834
1782816366576219100,6.54521923828125,3.229013484919071,-1.403808520798385,1.8252583017431199
1782816366596301000,6.565301025390625,4.410280201527476,-1.4473220838323235,1.5543281680896877
1782816366616383000,6.585383056640625,5.732141968262195,-1.5859896730273961,1.01682448855713
1782816366636464000,6.605464111328125,6.76920655016303,-1.6706766657099126,0.5348274825932458
1782816366656546000,6.625546142578125,7.565790643340349,-1.657577091770619,0.016043372306227682
1782816366676628200,6.645628173828125,7.88011612047553,-1.4986496816180646,-0.44204058742225166
1782816366696710100,6.665710205078125,7.773853548061847,-1.3629118622645735,-1.1116447527192532
1782816366716792000,6.6857919921875,7.518745399048924,-1.8252990721449256,-1.3664381366945801
1782816366736874000,6.7058740234375,7.057699666905402,-2.2046435494184493,-1.7089758550964296
1782816366756956200,6.7259560546875,4.952615392869711,-3.420628235925734,-0.6259285435691475
1782816366777038000,6.7460380859375,-0.8788596408039331,-2.6311834931090474,1.0627317417945712
1782816366797120000,6.7661201171875,-7.514450916725397,-2.523814128497243,0.13278667793031781
1782816366817201200,6.786201171875,-14.209727138280869,-1.9545587815254926,-2.0684404506407676
1782816366837283000,6.806282958984375,-13.337524617278575,-0.6102824269521981,-2.484386373472214
1782816366857365200,6.826365234375,-12.441431517601012,0.47921471830159423,-2.1053034697443245
1782816366877447200,6.846447265625,-9.5566470651716,0.07867379680760204,-0.5102860022611916
1782816366897529000,6.866529052734375,-6.27274171411395,0.982221742535755,-0.8019738964568823
1782816366917611000,6.886611083984375,-4.3530502478301525,0.7758964752618223,-1.8323492829173802
1782816366937693200,6.906693115234375,-2.1399784772843122,1.6037059469819068,-1.8661688426718115
1782816366957775000,6.926775146484375,0.9979203199923038,1.6350915575876832,-0.02743015097826719
1782816366977856300,6.946856201171875,2.3207395335823295,1.5338734090819954,2.023095142135024
1782816366997938200,6.966938232421875,-0.5003817172318696,1.48423697925359,2.020349935080111
1782816367018020000,6.98702001953125,-0.8487935883641242,1.6958178289681671,1.9631617746978998
1782816367038102300,7.007102294921875,1.150315113505721,1.9409186709687112,2.3586484084770083
1782816367058184200,7.02718408203125,4.575669501170516,2.146173678662628,3.0529779958382246
1782816367078266000,7.04726611328125,7.148574116051196,1.8607925564609467,3.178583858886361
1782816367098348000,7.06734814453125,8.255909335008264,1.665328144288808,2.1469797343485055
1782816367118430200,7.08743017578125,8.709239378207922,1.3084898055948315,1.3718752131819725
1782816367138512100,7.10751220703125,8.688168533128499,1.2193579623326658,0.9637723320011049
1782816367158593300,7.12759326171875,8.857530828055738,0.9831355694450438,0.3164585436411202
1782816367178675200,7.14767529296875,7.335605923181772,0.7067120990723371,-1.6588894895434378
1782816367198757000,7.167757080078125,4.429535521617532,0.03077683105766773,-2.024998199277371
1782816367218839300,7.18783935546875,2.0033961699306966,-0.2026709825500846,-2.3018054082706567
1782816367238921200,7.207921142578125,-2.28049169434607,-2.425415713587403,-2.320688680177927
1782816367259003100,7.228003173828125,-9.096139677688479,-3.1927140910476446,-2.6493518947452306
1782816367279085000,7.2480849609375,-12.563204962879418,-3.5202237516656516,-1.5233812411621213
1782816367299167200,7.268167236328125,-10.434290900444983,-1.2668714086577295,-1.4557590727880596
1782816367319248100,7.288248046875,-10.334917503023147,-0.48543461572974916,0.06121501387865282
1782816367339330600,7.30833056640625,-9.218487123462557,-0.3094184158712625,0.6602640900216996
1782816367359412500,7.32841259765625,-7.749564325457811,-0.6463400479570031,-1.0882311439059673
1782816367379494400,7.348494384765625,-6.716736942735314,0.13341536775529383,-1.5154560011208056
1782816367399576300,7.368576416015625,-3.7547447474628686,1.9276786656454203,-0.29752281089425087
1782816367419658500,7.388658447265625,1.340499247187376,2.6498162973865864,2.233558239866048
1782816367439740400,7.408740478515625,4.957983641904592,2.031724438792467,2.0937899959526955
1782816367459822300,7.428822265625,3.9005455495387316,0.8294947213932872,0.48902547982856626
1782816367479903500,7.448903564453125,3.0214573606759307,0.946402898722887,1.024712757588923
1782816367499985400,7.4689853515625,4.393925279054045,1.5263234320938586,1.9815425039105117
1782816367520067300,7.4890673828125,6.222845172044634,1.5283745194047689,2.064294436877221
1782816367540149500,7.5091494140625,7.111793660664558,1.3356237501055002,1.6770099603846669
1782816367560231400,7.5292314453125,7.15181412088573,1.1303206654861568,1.1221709690392017
1782816367580313300,7.549313232421875,7.234244566813111,1.4279226790964603,1.2683242378145456
1782816367600395500,7.5693955078125,7.4378195124655955,1.5931263930395245,1.1259124936550855
1782816367620477400,7.5894775390625,7.2184554615288965,1.6101348109856246,0.7322776252225041
1782816367640559400,7.609559326171875,6.1161506379544734,1.1449325436845421,0.22394166105054317
1782816367660640500,7.629640625,4.943035079097747,1.6195049891382456,0.29019878814909605
1782816367680722400,7.649722412109375,2.8621885897397994,1.735778083434701,0.12414572736769913
1782816367700804400,7.669804443359375,0.44561376973390576,1.699723604235053,-0.07063302236152813
1782816367720886500,7.689886474609375,-0.7860732205569744,0.14370646014511584,-0.02794147520100232
1782816367740968400,7.709968505859375,-2.8103292231649157,-1.9896563983917235,1.0661583552423863
1782816367761050400,7.73005029296875,-4.71339221073091,-3.0945217201039195,0.18885694019850344
1782816367781132500,7.750132568359375,-7.17059364015758,-1.8718863435357809,-0.6852100229687988
1782816367801214500,7.77021435546875,-10.513384895426034,-0.5834124671399593,-2.0380470659427345
1782816367821295600,7.790295654296875,-13.062125959908961,-0.8182987891182303,-2.2902536482952534
1782816367841377500,7.81037744140625,-13.567681280386447,-0.9223008692540228,-3.5938653264597056
1782816367861459500,7.83045947265625,-11.780956853568552,-0.8660397605888545,-1.9836438601039348
1782816367881541400,7.850541259765625,-9.18884718748033,-0.10735665126070379,0.28570114793628454
1782816367901623600,7.87062353515625,-5.2925820917397735,0.08215776646584272,1.4256713930383325
1782816367921705500,7.89070556640625,-1.2839134366124867,-0.24594850833844392,1.1152390508841723
1782816367941787400,7.910787353515625,1.0933698219686745,-1.1654587604932487,0.3936347953673452
1782816367961869600,7.93086962890625,2.400992050948739,-2.15023975905776,-0.24521299713812766
1782816367981950200,7.9509501953125,3.8119220941901206,-2.2887936587452886,-0.23704887030702082
1782816368002032400,7.971032470703125,5.2516071072727435,-1.606731578413397,0.18407277466189115
1782816368022114300,7.9911142578125,6.350294909393787,-0.5748397229753435,0.2780417922895402
1782816368042196200,8.0111962890625,6.96109631871879,0.328629020036757,-0.008231602576747536
1782816368062278100,8.031278076171875,7.143857608923316,0.6334314665451646,-0.5576659583996981
1782816368082360600,8.051360595703125,6.852803701782226,0.8124187911689281,-1.3688523582294583
1782816368102442500,8.0714423828125,6.505166322153807,1.1117328693941235,-1.553717196584493
1782816368122524400,8.0915244140625,6.47834027454853,1.5954384693741797,-1.333222972574085
1782816368142605300,8.111605224609375,6.5126785974800585,1.903583212047815,-0.8535541538294404
1782816368162687200,8.131687255859376,5.436705315992236,0.9797551332265138,-0.2553064480639994
1782816368182769400,8.151769287109374,2.063425398957729,0.08592910169810056,0.42517282005585727
1782816368202851300,8.171851318359375,-1.1282815608739851,-0.1676265571758151,1.049698876415938
1782816368222933200,8.191933349609375,-2.020086607968807,0.9775763278827071,-1.516194982919842
1782816368243015200,8.21201513671875,-2.938898904454708,-0.11948095042705535,-1.1736366601213812
1782816368263097300,8.232097412109376,-7.072446569660306,-0.15377674939110875,-0.7181563800852745
1782816368283179300,8.25217919921875,-11.274873125302792,1.8677169488966463,-1.5978976990945637
1782816368303260400,8.272260498046874,-10.150772064983844,2.2225933398678897,-1.602249026171863
1782816368323342300,8.29234228515625,-5.7841877973198885,0.6525948705680668,-0.8706270883791148
1782816368343423500,8.312423583984375,-1.5396534537881612,-1.0493087080545722,0.18739771783351897
1782816368363505700,8.332505615234375,0.47403497757613655,-1.7911320141270755,0.3700326782446354
1782816368383587600,8.352587646484375,1.9777292292326687,-1.9769059301510452,0.29250454434081913
1782816368403669500,8.37266943359375,3.4125942748129368,-2.05134347762838,0.04447700123861432
1782816368423751700,8.392751708984376,4.145681755113602,-2.437965252428502,0.14311371841635553
1782816368443833600,8.41283349609375,3.898599091646075,-1.8917114263378083,0.8625758838705718
1782816368463914800,8.432914794921874,2.91875277300477,-1.1828002097859978,0.9090125678095966
1782816368483996700,8.45299658203125,2.410171382704377,-0.5111214301720262,0.6626013007976115
1782816368504078600,8.47307861328125,1.6231033058911561,-0.17106807593181728,0.6375225352510809
1782816368524160500,8.493160400390625,0.14079963278770447,0.19076777878850698,-0.014871552047878503
1782816368544242700,8.51324267578125,-0.9771797297805547,0.2287652087494731,-1.0594910793729126
1782816368564324600,8.53332470703125,-1.0574655648946762,-0.4887149525746703,-1.723486611007899
1782816368584406500,8.553406494140624,-1.199064823627472,-0.7152864506721496,-2.249683445236832
1782816368604488700,8.57348876953125,-2.1401719540297983,-0.2255336794823408,-1.90694523582682
1782816368624569600,8.593569580078125,-2.8372382728785275,0.3794593358248472,-1.048317066668719
1782816368644651800,8.61365185546875,-2.1315999405175448,0.6806577664919197,-0.030325434028357266
1782816368664733700,8.633733642578125,-0.6234744284152984,0.43839346309155225,0.47624914649426936
1782816368684815600,8.653815673828126,0.6225234113007784,-0.1510476897533983,0.4767308655966073
1782816368704897500,8.6738974609375,1.1726362509071826,-0.806647295095399,0.5023468067597597
1782816368724979700,8.693979736328124,1.2078121937066315,-1.0872636871133,0.5494915659029036
1782816368745061600,8.7140615234375,0.29674773486852646,-0.7469368496939539,-0.1089937509432435
1782816368765143600,8.7341435546875,-0.24589257690012453,-0.28022673511318863,-0.7102700107496231
1782816368785224700,8.754224609375,0.7139771216392516,-0.06544475126974285,-0.45335400859713554
1782816368805306600,8.774306640625,1.7549919024705887,-0.3659406596906483,0.002132774244993925
1782816368825388500,8.794388427734376,0.9090338297933339,-0.9653642043024301,0.1696180232539773
1782816368845470700,8.814470703125,-0.5333090043216944,-0.11831815372537821,0.10315255063436925
1782816368865552600,8.834552734375,-1.0272820235550404,0.43977406726237384,1.4323903260298072
1782816368885634600,8.854634521484375,-1.0102677603900432,1.013935781378299,1.1460448888406156
1782816368905716700,8.874716796875,0.3076145813196897,0.3005303038808517,1.6033767150275409
1782816368925798700,8.894798583984375,0.732467887097597,-0.492754144962877,1.2952002620413898
1782816368945879800,8.9148798828125,-0.5163198755979538,-1.101921231084317,0.5147183586854487
1782816368965961700,8.934961669921876,-1.9383423907399175,-1.0628560257613657,-0.1338074358128011
1782816368986043600,8.955043701171874,-1.8746528856396674,-0.7192989011839032,-0.22781229193881153
1782816369006125600,8.97512548828125,-0.73897127764225,-0.8946347175627947,-0.2266043774537742
1782816369026207700,8.995207763671875,0.6591665040433407,-1.2067798549842088,0.036148660289123655
1782816369046289700,9.01528955078125,1.1030641175091267,-1.0931374745175242,0.342619770662114
1782816369066371600,9.03537158203125,0.6678945849001408,-0.7111340802330524,0.2631624953266233
1782816369086453800,9.055453857421876,-0.20688275502622128,-0.36154549347162246,0.10545315572693943
1782816369106534700,9.07553466796875,-1.0663836153656243,0.16239515932835638,0.04021620198898017
1782816369126616800,9.095616943359374,-1.2102122405856848,0.464920308554545,-0.13877280313521623
1782816369146698800,9.11569873046875,-0.9444242921262979,0.5858666188264265,-0.4454376094494015
1782816369166780700,9.13578076171875,-0.6587298661917448,0.6292880831301212,-0.603714885130152
1782816369186862600,9.155862548828125,-0.341879839015007,0.6147344379249959,-0.5019220785416663
1782816369206944800,9.17594482421875,-0.05693652370870113,0.7219630058266222,-0.32087614088766275
1782816369227026700,9.196026611328126,0.2811258028447628,0.7743393089476972,-0.31145525546111164
1782816369247108600,9.216108642578124,0.8979647387683392,0.7981023157205432,-0.03186192288063466
1782816369267189800,9.236189697265624,1.6361667856037616,0.5579268012929708,0.08338486057538538
1782816369287271700,9.256271728515625,1.6589035180687903,0.2576503077764064,0.0694787925587967
1782816369307353900,9.276353759765625,0.920833573180437,0.17929259118065238,-0.12802563754096627
1782816369327435800,9.296435791015625,0.5571662652492523,0.09667853231467306,-0.26578542770873753
1782816369347518200,9.316518310546876,0.5114473011255264,-0.05908939089365303,-0.33644320091903207
1782816369367599400,9.336599365234376,-0.22293840229213235,0.06547112782001495,-0.45464024901539085
1782816369387681300,9.356681396484374,-0.5924801552146672,0.34134295565932987,-0.38771209078747776
1782816369407763200,9.37676318359375,-0.13649521359205244,0.274569440003857,-0.21224830064736305
1782816369427845000,9.39684521484375,-0.06341711789965629,0.16574563880003987,-0.1302841205248609
1782816369447927300,9.41692724609375,-0.44064767175912856,0.3869682866828516,0.16570081327762454
1782816369468009200,9.43700927734375,-0.34365795460343357,0.48170372210573403,0.34960597628764806
1782816369488091100,9.457091064453126,0.14717501303851604,0.2847381481230259,0.287870162538439
1782816369508173300,9.47717333984375,0.48011517427265643,0.005698723098263144,0.06481620757523923
1782816369528254000,9.49725390625,0.30151451087892056,-0.07745879499465226,-0.09687909638807177
1782816369548336000,9.517336181640625,-0.36090953365564343,0.07586535179074853,-0.14138126860056072
1782816369568418000,9.53741796875,-0.8878490029454231,0.26496464937776326,-0.2023464267708361
1782816369588500000,9.5575,-0.7185293781161308,0.2347507494324818,-0.2034873404342681
1782816369608582100,9.57758203125,-0.019260580787062644,0.14198635835424064,-0.023397753657028078
1782816369628664300,9.597664306640626,0.17472762135267256,0.08309647208806127,0.1365388335380703
1782816369648746200,9.617746337890624,0.20512217509448527,0.09525730387251824,0.1699899618389085
1782816369668827100,9.6378271484375,0.25688392651379105,0.02814586149957031,0.10409848971497267
1782816369688910300,9.657910400390625,0.4483382262617349,-0.14153901644553987,0.04937401603255421
1782816369708991000,9.677990966796875,0.30612814215421674,-0.20265205865390598,-0.005960479306988418
1782816369729073200,9.6980732421875,0.04079319815933704,-0.08809318439681083,0.017171791814267635
1782816369749155000,9.718155029296875,-0.2707686594814062,0.09914788157027214,0.11756364556364714
1782816369769237000,9.738237060546876,-0.2980821983426809,0.15923749901503323,0.16523388988561927
1782816369789319000,9.75831884765625,-0.12207681213915347,0.007903795394487679,0.15744718153215945
1782816369809401000,9.778401123046875,-0.13412030115425586,-0.09345723218061029,0.027491964168101547
1782816369829483000,9.79848291015625,-0.33579964231848713,-0.03995977954249829,0.08620638426952064
1782816369849565000,9.81856494140625,-0.4546960708558559,0.12707958886250853,0.11579100986793636
1782816369869646000,9.83864599609375,-0.3622685470491647,0.1201948343174532,0.062006958840787406
1782816369889728000,9.85872802734375,-0.2829875050634146,0.04594842549804598,-0.08805033163577318
1782816369909810200,9.87881005859375,0.07528817295730114,0.010456621682457624,-0.01899922643713653
1782816369929892000,9.89889208984375,0.21312252619862554,-0.05023450531940907,0.012887830884754658
1782816369949974000,9.91897412109375,0.2505997316777706,-0.07735025658626109,-0.04304068482518196
1782816369970056000,9.939055908203125,0.06927168914675712,-0.0214590406794101,-0.09012582273557782
1782816369990138000,9.95913818359375,-0.018769582399725912,0.04088438357412815,-0.09924085708335041
1782816370010220000,9.979219970703125,0.20049334625005721,-0.024144370773248373,-0.019665435260906815
1782816370030301200,9.99930126953125,0.03737082249522209,-0.002263780213519931,-0.015539002980664372
1782816370050383000,10.019383056640624,-0.36435529019534585,0.11458192633911966,0.00008059095554053783
1782816370070465000,10.039465087890624,-0.4602525359392166,0.19486052799485623,0.08724434901513159
1782816370090547200,10.059547119140625,-0.15898235521018503,0.09908427828215062,0.11312843959517777
1782816370110629000,10.079629150390625,0.1859282298028469,0.11301361757647245,0.35135786145627496
1782816370130711000,10.0997109375,-0.027787586113810537,0.23026717427764087,0.3252031372413039
1782816370150793000,10.11979296875,-0.06069032328426838,0.09451097901724279,0.2004337250173092
1782816370170874000,10.1398740234375,-0.06484101322293281,-0.00999495898745954,0.14816460859775543
1782816370190956000,10.1599560546875,-0.05088379954099655,0.014223755663633346,0.20781419065743684
1782816370211038200,10.1800380859375,-0.008265139520168304,0.06739639679417014,0.1628274132657796
1782816370231120100,10.2001201171875,-0.037888124367594714,0.03644592620264739,0.08168065047338605
1782816370251202000,10.2202021484375,-0.13292612293362616,0.04724314148370176,0.06092668932341039
1782816370271284200,10.2402841796875,0.06693067897856235,-0.02691431041061878,0.11192410530671476
1782816370291366100,10.2603662109375,0.16397124953866005,-0.06548738483507185,0.09033705433346331
1782816370311448000,10.280447998046874,0.14009294582307338,-0.04928527830317616,0.0820935055905953
1782816370331529200,10.300529296875,0.040535424005985254,-0.04070208580978214,-0.009080839817225933
1782816370351610600,10.320610595703124,0.11834639343917369,-0.054917913895286614,-0.09664020959828049
1782816370371692500,10.340692626953125,0.17816636362969873,-0.03464914244636893,-0.08798895683735608
1782816370391774700,10.360774658203125,0.08936930527985096,-0.04780022737719118,-0.10145323590319603
1782816370411856600,10.380856689453125,-0.16394260796606538,0.0017852029163390396,-0.10701006631273775
1782816370431938600,10.4009384765625,-0.23982290159761904,0.11614592425283043,0.0028778204586356877
1782816370452020700,10.421020751953124,-0.22080489739477632,0.1373468619853258,-0.015030359338782728
1782816370472103000,10.44110302734375,-0.041030514046549796,0.03901310980953276,-0.08973163578622043
1782816370492183800,10.461183837890625,0.17060089681148527,-0.12247319104559719,-0.12184124981760978
1782816370512265700,10.481265625,0.20871873828172682,-0.1475076790589839,-0.09299531375728547
1782816370532347600,10.50134765625,-0.022397125247120855,-0.02668280320968479,-0.08951335339304059
1782816370552429600,10.5214296875,-0.15475918455719948,-0.05143124082330614,-0.17292294655088333
1782816370572511700,10.54151171875,0.022666005316376685,0.04319112614654004,-0.00614310586489737
1782816370592593700,10.56159375,0.1598556309133768,0.20310376621047033,0.11273841736428439
1782816370612675600,10.581675537109374,0.23169337115585803,0.1533877866061404,-0.05013208612455055
1782816370632757800,10.6017578125,0.2065934166908264,-0.03272113352585584,-0.02966669612498954
1782816370652838700,10.621838623046875,0.16993980255424976,-0.08045903625655919,-0.08568524647224694
1782816370672920600,10.641920654296875,0.06634264995753765,-0.23674499198962,-0.3623174642248079
1782816370693002800,10.662002685546875,-0.05549743081629276,-0.43887065214924514,-0.5381867298932745
