time,seconds_elapsed,z,y,x
1782816190463413200,0.064413330078125,-0.729503870010376,2.045738935470581,0.4155033230781555
1782816190483495200,0.0844951171875,-0.6197828054428101,2.109528064727783,0.41284698247909546
1782816190503577300,0.104577392578125,-1.0314602851867676,0.6988950967788696,-0.1676107794046402
1782816190523659300,0.1246591796875,-1.664590835571289,-1.759630799293518,-1.158772349357605
1782816190543741200,0.1447412109375,-1.9964609146118164,-4.156863212585449,-2.1842591762542725
1782816190563823000,0.164822998046875,-2.2779858112335205,-5.2133917808532715,-3.3956458568573
1782816190583905300,0.1849052734375,-2.0909042358398438,-2.263000011444092,-3.2787065505981445
1782816190603986200,0.204986083984375,-1.21699857711792,-0.8387576937675476,-1.7256559133529663
1782816190624068400,0.225068359375,0.10075229406356812,-1.1467849016189575,-0.8084272146224976
1782816190644150300,0.245150390625,1.3068758249282837,-1.2177363634109497,-0.47948357462882996
1782816190664232200,0.265232177734375,2.3680169582366943,-2.4169859886169434,-0.13947820663452148
1782816190684314400,0.285314453125,2.8701236248016357,-2.025886297225952,0.1666211634874344
1782816190704396300,0.305396240234375,2.947841167449951,-0.3790081739425659,0.10243003815412521
1782816190724478200,0.325478271484375,2.639630079269409,0.7233591675758362,0.07929440587759018
1782816190744559000,0.34555908203125,2.0667572021484375,0.7400691509246826,0.019257325679063797
1782816190764641000,0.36564111328125,1.3357579708099365,0.6646889448165894,0.05988849326968193
1782816190784723200,0.38572314453125,0.5689911246299744,0.45761552453041077,0.28542041778564453
1782816190804805400,0.405805419921875,0.046720076352357864,0.04544972628355026,0.5020147562026978
1782816190824887300,0.42588720703125,-0.18965764343738556,-0.6822900772094727,0.42757654190063477
1782816190844969200,0.44596923828125,-0.07783614099025726,-1.1636017560958862,0.20468871295452118
1782816190865051400,0.466051513671875,0.13916781544685364,-0.9841031432151794,-0.1533297896385193
1782816190885133300,0.48613330078125,0.18534968793392181,-0.36232084035873413,-0.506529688835144
1782816190905214000,0.5062138671875,0.25825363397598267,0.30737918615341187,-0.6503942012786865
1782816190925296000,0.526296142578125,0.2852931618690491,0.4561069905757904,-0.6459621787071228
1782816190945378000,0.5463779296875,0.3717859089374542,0.4149364233016968,-0.6414872407913208
1782816190965460000,0.5664599609375,0.614106297492981,0.5279190540313721,-0.5898863673210144
1782816190985542100,0.586542236328125,0.7214658260345459,0.4550822973251343,-0.611883282661438
1782816191005624000,0.6066240234375,0.844691276550293,0.17200054228305817,-0.7308667898178101
1782816191025706000,0.6267060546875,0.864687979221344,0.10257095098495483,-0.8203414082527161
1782816191045787100,0.646787109375,0.7708594799041748,0.08438563346862793,-0.7184568047523499
1782816191065869000,0.666869140625,0.662707507610321,0.12896661460399628,-0.3676542043685913
1782816191085951000,0.686950927734375,0.7064841985702515,0.17306487262248993,-0.10384046286344528
1782816191106033200,0.707033203125,0.7483245134353638,0.19450344145298004,-0.11711478233337402
1782816191126115000,0.727114990234375,0.7122102379798889,0.14403817057609558,-0.3858448266983032
1782816191146197000,0.747197021484375,0.6252968907356262,0.13206815719604492,-0.49820733070373535
1782816191166279200,0.767279052734375,0.5828891396522522,0.05628053843975067,-0.39735448360443115
1782816191186360300,0.7873603515625,0.6462709307670593,-0.0766860693693161,-0.19454325735569
1782816191206441500,0.80744140625,0.6993134021759033,-0.15481717884540558,-0.026626165956258774
1782816191226523400,0.8275234375,0.6672207713127136,-0.33366429805755615,-0.0802839994430542
1782816191246605300,0.847605224609375,0.5499107241630554,-0.4108757972717285,-0.21303817629814148
1782816191266687500,0.8676875,0.43860331177711487,-0.34789028763771057,-0.28624776005744934
1782816191286769400,0.887769287109375,0.35475215315818787,-0.26169002056121826,-0.2532937824726105
1782816191306851300,0.907851318359375,0.3128812313079834,-0.23596753180027008,-0.12010401487350464
1782816191326933500,0.92793359375,0.2780984044075012,-0.15898191928863525,-0.029030464589595795
1782816191347014400,0.948014404296875,0.2123170644044876,-0.09889216721057892,-0.0762391984462738
1782816191367096300,0.968096435546875,0.11724559217691422,-0.022418495267629623,-0.14228256046772003
1782816191387178500,0.988178466796875,0.061791688203811646,0.04544491693377495,-0.12045533955097198
1782816191407260400,1.008260498046875,0.04305143281817436,0.017289534211158752,-0.07008139044046402
1782816191427342300,1.02834228515625,0.03964214399456978,-0.10186298936605453,0.0027127049397677183
1782816191447424500,1.048424560546875,-0.02720465324819088,-0.3110765814781189,0.05694185197353363
1782816191467506400,1.06850634765625,-0.11437384784221649,-0.42727014422416687,0.05593284219503403
1782816191487587300,1.08858740234375,-0.15076978504657745,-0.3211093544960022,0.01934046857059002
1782816191507669200,1.108669189453125,-0.15330404043197632,-0.06687109917402267,-0.06886479258537292
1782816191527751400,1.12875146484375,-0.09530743956565857,0.15240560472011566,-0.10468192398548126
1782816191547833300,1.148833251953125,-0.0719190239906311,0.2539418041706085,-0.013578111305832863
1782816191567915500,1.16891552734375,-0.0239340178668499,0.2548837661743164,0.11321908980607986
1782816191587997400,1.18899755859375,0.025369983166456223,0.2378171682357788,0.23803149163722992
1782816191608079400,1.209079345703125,0.029297029599547386,0.22396701574325562,0.3084076941013336
1782816191628161500,1.22916162109375,0.009449399076402187,0.2255980670452118,0.34413936734199524
1782816191648242200,1.2492421875,-0.008865144103765488,0.22262468934059143,0.37336885929107666
1782816191668324400,1.269324462890625,-0.057732369750738144,0.35066458582878113,0.3722776174545288
1782816191688406300,1.28940625,-0.17721785604953766,0.5640533566474915,0.3320816457271576
1782816191708488200,1.30948828125,-0.22702401876449585,0.7136396765708923,0.2996366322040558
1782816191728570000,1.329570068359375,-0.17775563895702362,0.7424412965774536,0.3063858449459076
1782816191748652300,1.34965234375,-0.2795524597167969,0.6634971499443054,0.3862711191177368
1782816191768734200,1.369734130859375,-0.4309021532535553,0.48733949661254883,0.7242209315299988
1782816191788815400,1.3898154296875,-0.4581938683986664,0.32084059715270996,1.1894749402999878
1782816191808897300,1.409897216796875,-0.4148784279823303,-0.12472910434007645,1.2958910465240479
1782816191828979200,1.429979248046875,-0.5732582807540894,-0.8755824565887451,0.996668815612793
1782816191849061400,1.450061279296875,-0.8505871295928955,-0.982041597366333,0.9077675938606262
1782816191869143300,1.470143310546875,-0.8732154369354248,-0.07596266269683838,0.7815361618995667
1782816191889225200,1.49022509765625,-0.5745599269866943,0.7505693435668945,0.04346398636698723
1782816191909306400,1.510306396484375,-0.17819620668888092,0.6524615287780762,-0.7792409062385559
1782816191929388300,1.53038818359375,-0.0025271472986787558,-0.20529137551784515,-1.110848069190979
1782816191949470200,1.55047021484375,-0.059724949300289154,-1.0374575853347778,-0.8135261535644531
1782816191969552400,1.570552490234375,-0.14173372089862823,-1.4610345363616943,-0.6165435314178467
1782816191989634300,1.59063427734375,-0.09245971590280533,-1.5060319900512695,-0.4908798336982727
1782816192009716200,1.61071630859375,-0.10489368438720703,-1.6034072637557983,-0.4790692925453186
1782816192029798100,1.630798095703125,-0.006292566657066345,-1.2165758609771729,-0.44872134923934937
1782816192049879300,1.65087939453125,0.048107344657182693,-0.22250227630138397,-0.568320631980896
1782816192069961200,1.670961181640625,0.13976696133613586,0.7429344058036804,-0.6922078728675842
1782816192090043400,1.69104345703125,0.05335766077041626,1.2022584676742554,-0.6147832274436951
1782816192110125300,1.711125244140625,-0.14719977974891663,1.0694714784622192,-0.31081312894821167
1782816192130207200,1.731207275390625,-0.4336697459220886,0.5224313735961914,0.03694973886013031
1782816192150289400,1.751289306640625,-0.7254157662391663,0.044856589287519455,0.4781940281391144
1782816192170371300,1.771371337890625,-0.8496377468109131,-0.0809452161192894,0.9853354692459106
1782816192190452200,1.7914521484375,-0.7977575659751892,0.007055588066577911,1.3675001859664917
1782816192210534400,1.811534423828125,-0.7653369307518005,0.0803537592291832,1.4071511030197144
1782816192230616300,1.8316162109375,-0.7762142419815063,0.07661528140306473,1.1278069019317627
1782816192250698200,1.8516982421875,-0.7879745364189148,0.2567974627017975,0.7998279333114624
1782816192270780400,1.871780517578125,-0.6108410358428955,0.7072824835777283,0.7177929878234863
1782816192290862300,1.8918623046875,-0.300265908241272,1.208116054534912,0.7860296368598938
1782816192310944300,1.9119443359375,-0.014827250503003597,1.1208559274673462,0.8083407878875732
1782816192331025400,1.932025390625,0.0316174253821373,0.8076414465904236,0.49335360527038574
1782816192351107300,1.952107421875,-0.256287544965744,0.32384994626045227,-0.21109303832054138
1782816192371189200,1.972189208984375,-0.3029196858406067,0.37462759017944336,-0.5016716718673706
1782816192391271400,1.992271484375,-0.13036830723285675,-0.01717408001422882,-0.8551495671272278
1782816192411353300,2.012353271484375,-0.1834956407546997,-0.7787418961524963,-1.3940578699111938
1782816192431435300,2.032435302734375,-0.39957475662231445,-0.9301272034645081,-1.6116442680358887
1782816192451516400,2.052516357421875,-0.2737375795841217,-0.43170708417892456,-1.4259231090545654
1782816192471598300,2.072598388671875,0.3037220239639282,0.21677832305431366,-1.10990309715271
1782816192491680300,2.09268017578125,0.6825191378593445,0.12622299790382385,-1.0391992330551147
1782816192511762400,2.112762451171875,0.3906252682209015,-0.6904667615890503,-1.2294291257858276
1782816192531844400,2.13284423828125,0.00963236391544342,-1.3426895141601562,-1.4213956594467163
1782816192551926300,2.15292626953125,0.0957905724644661,-1.154312252998352,-1.007769227027893
1782816192572008400,2.173008544921875,0.5762167572975159,-0.6291803121566772,-0.23269341886043549
1782816192592089300,2.19308935546875,0.9410955309867859,-0.46501415967941284,0.17650292813777924
1782816192612171500,2.213171630859375,0.9024882912635803,-0.47203415632247925,0.1633017361164093
1782816192632253400,2.23325341796875,0.6516245007514954,-0.33540403842926025,-0.08531364053487778
1782816192652335400,2.25333544921875,0.5677714347839355,0.06371183693408966,-0.1917242556810379
1782816192672417300,2.273417236328125,0.7811266779899597,0.5686587691307068,-0.014624735340476036
1782816192692499500,2.29349951171875,0.8479145169258118,0.6171749234199524,0.12448980659246445
1782816192712580400,2.313580322265625,0.8323768377304077,0.4568198621273041,0.20277687907218933
1782816192732662500,2.33366259765625,0.7405678033828735,0.3203926682472229,0.1683594286441803
1782816192752744400,2.353744384765625,0.6952574253082275,0.2826857566833496,0.032869551330804825
1782816192772826400,2.373826416015625,0.6498187184333801,0.33952268958091736,-0.11638123542070389
1782816192792908500,2.393908447265625,0.6377239227294922,0.4686468243598938,-0.16453753411769867
1782816192812990500,2.413990478515625,0.7125316858291626,0.5682246685028076,-0.08976896107196808
1782816192833072400,2.434072265625,0.7932848334312439,0.6257882118225098,0.1819768100976944
1782816192853153500,2.454153564453125,0.8967350125312805,0.7730922102928162,0.6196737289428711
1782816192873235500,2.4742353515625,0.9912674427032471,0.8519092798233032,0.9434278607368469
1782816192893317400,2.4943173828125,0.9162266850471497,0.8744170665740967,1.0959680080413818
1782816192913399600,2.514399658203125,0.9095392227172852,1.1314458847045898,1.16403067111969
1782816192933481500,2.5344814453125,0.8448021411895752,1.115983486175537,0.9581437110900879
1782816192953563400,2.5545634765625,0.4505048990249634,0.8194087147712708,0.5893365144729614
1782816192973645600,2.5746455078125,0.1812961846590042,0.794090986251831,0.36233800649642944
1782816192993726500,2.5947265625,0.2838715612888336,0.8264610171318054,0.28827333450317383
1782816193013808400,2.614808349609375,0.7564099431037903,0.814827561378479,0.32363173365592957
1782816193033890600,2.634890625,1.2791402339935303,0.647302508354187,0.29623836278915405
1782816193053972500,2.654972412109375,1.9268194437026978,0.17295891046524048,0.2298216074705124
1782816193074054400,2.675054443359375,2.1931872367858887,-0.8882052302360535,0.031197885051369667
1782816193094136600,2.695136474609375,2.001465320587158,-1.7351347208023071,-0.3496052622795105
1782816193114217500,2.715217529296875,1.7603564262390137,-1.8056058883666992,-1.0585601329803467
1782816193134299400,2.73529931640625,1.5994678735733032,-1.237535834312439,-2.0075862407684326
1782816193154381600,2.755381591796875,1.510989785194397,-0.36979982256889343,-2.784424066543579
1782816193174463700,2.775463623046875,1.8121814727783203,0.5541021823883057,-2.232527017593384
1782816193194545700,2.795545654296875,2.323744058609009,0.6370712518692017,-1.1832449436187744
1782816193214627800,2.8156279296875,2.5248959064483643,0.13744080066680908,-0.2990521192550659
1782816193234709800,2.835709716796875,2.89501953125,-0.09521009773015976,0.2852877676486969
1782816193254790700,2.855790771484375,3.450641393661499,-0.1308680921792984,0.7303366661071777
1782816193274872800,2.875872802734375,3.810969829559326,-0.38860565423965454,1.129011631011963
1782816193294954800,2.895954833984375,3.748162269592285,-0.6691681146621704,1.443895936012268
1782816193315036700,2.91603662109375,3.813296318054199,-0.4347646236419678,1.7309470176696777
1782816193335118800,2.936118896484375,4.276661396026611,0.18699538707733154,1.6460957527160645
1782816193355200800,2.95620068359375,4.225490570068359,0.07409221678972244,1.2323137521743774
1782816193375282700,2.97628271484375,3.91461443901062,-0.8087155818939209,1.2972203493118286
1782816193395363800,2.99636376953125,4.246983528137207,-1.0885772705078125,1.8706834316253662
1782816193415445800,3.01644580078125,4.488708019256592,-0.10154476761817932,2.3615615367889404
1782816193435527700,3.036527587890625,4.424933910369873,0.898189902305603,2.463717460632324
1782816193455609900,3.05660986328125,4.701879501342773,0.8319565057754517,2.6576147079467773
1782816193475691800,3.07669189453125,4.84831428527832,-0.1511734127998352,3.0037131309509277
1782816193495773700,3.096773681640625,4.768942832946777,-0.2548206150531769,2.0083060264587402
1782816193515854800,3.116854736328125,5.122180938720703,1.3385756015777588,-0.6771643757820129
1782816193535936800,3.136936767578125,4.507311820983887,0.04490369185805321,-1.2413544654846191
1782816193556019000,3.15701904296875,3.3441290855407715,-2.676689386367798,-1.7325183153152466
1782816193576100900,3.177100830078125,2.2349655628204346,-3.3555727005004883,-2.3300294876098633
1782816193596182800,3.197182861328125,1.9115585088729858,-1.2950245141983032,-0.767530620098114
1782816193616264700,3.2172646484375,2.558650255203247,1.171298861503601,0.9079630374908447
1782816193636347000,3.237346923828125,3.0282649993896484,2.1016063690185547,1.7071453332901
1782816193656427800,3.257427734375,2.823982000350952,1.7396478652954102,2.0342183113098145
1782816193676510000,3.277510009765625,2.5593976974487305,1.2316819429397583,2.162229299545288
1782816193696592000,3.297591796875,2.5030357837677,1.103178858757019,2.155482530593872
1782816193716673800,3.317673828125,2.231257677078247,1.0777430534362793,1.9667556285858154
1782816193736756000,3.337755859375,1.7357343435287476,1.0017368793487549,1.706329345703125
1782816193756838000,3.357837890625,1.2689679861068726,0.859443724155426,1.4151800870895386
1782816193776918800,3.377918701171875,0.9091380834579468,0.7367706894874573,1.1499741077423096
1782816193797001000,3.3980009765625,0.5370485782623291,0.6209797263145447,0.9646326303482056
1782816193817083000,3.418082763671875,0.11618698388338089,0.70155930519104,0.7653468251228333
1782816193837164800,3.438164794921875,-0.0021032385993748903,0.9616762399673462,0.5424850583076477
1782816193857247000,3.4582470703125,0.23740439116954803,1.2592623233795166,0.04427528381347656
1782816193877329000,3.478328857421875,0.9143314361572266,1.2345013618469238,-0.7030313611030579
1782816193897410800,3.498410888671875,1.326858639717102,1.7203261852264404,-1.1998355388641357
1782816193917492000,3.518491943359375,1.9519410133361816,2.6430764198303223,-0.8637748956680298
1782816193937574000,3.538573974609375,2.37860369682312,2.9914588928222656,-1.2421190738677979
1782816193957655800,3.55865576171875,2.428114414215088,1.1359338760375977,-2.9582576751708984
1782816193977738000,3.578738037109375,2.001929759979248,-1.3413643836975098,-4.261674404144287
1782816193997820000,3.59881982421875,2.710329532623291,-2.605380058288574,-2.292818784713745
1782816194017901800,3.61890185546875,4.038320541381836,-4.318154811859131,0.004931925795972347
1782816194037983000,3.63898291015625,4.006811141967773,-6.588864326477051,0.5926259160041809
1782816194058065000,3.65906494140625,3.221853256225586,-5.003247261047363,1.2314532995224
1782816194078146800,3.679146728515625,2.5477488040924072,-0.7224898338317871,0.8482208251953125
1782816194098229000,3.69922900390625,1.9930249452590942,2.396665573120117,0.060795411467552185
1782816194118311000,3.719310791015625,1.710788369178772,3.2259926795959473,-0.16369570791721344
1782816194138392800,3.739392822265625,1.539318561553955,2.452296733856201,0.1175391674041748
1782816194158473700,3.7594736328125,1.3519480228424072,1.4092953205108643,0.6013153791427612
1782816194178555600,3.7795556640625,1.3497278690338135,0.7095417976379395,0.9332217574119568
1782816194198637800,3.799637939453125,1.4348416328430176,0.4535065293312073,1.0308212041854858
1782816194218719700,3.8197197265625,1.4208494424819946,0.504436731338501,0.940428614616394
1782816194238801700,3.8398017578125,1.398627519607544,0.7375719547271729,0.7651675343513489
1782816194258883800,3.8598837890625,1.4789189100265503,1.0644522905349731,0.7461272478103638
1782816194278965800,3.8799658203125,1.674404263496399,1.2869755029678345,0.8900527358055115
1782816194299046700,3.900046630859375,1.8924144506454468,1.0906286239624023,1.2473942041397095
1782816194319128800,3.92012890625,2.273824453353882,0.7408146262168884,1.613150954246521
1782816194339210800,3.940210693359375,2.5846643447875977,1.236554741859436,1.6513527631759644
1782816194359292700,3.960292724609375,2.9868855476379395,1.8175575733184814,0.9057477116584778
1782816194379374800,3.980374755859375,3.132309675216675,2.165494441986084,0.19244873523712158
1782816194399456800,4.000456787109375,3.206678867340088,1.5159245729446411,0.09770151227712631
1782816194419537700,4.02053759765625,3.050906181335449,0.4043107330799103,-0.047421444207429886
1782816194439619800,4.040619873046875,2.8685779571533203,-0.4916243851184845,-0.26252123713493347
1782816194459701800,4.06070166015625,2.707167148590088,-0.28292274475097656,-0.5333221554756165
1782816194479783700,4.08078369140625,2.6788618564605713,0.686861515045166,-0.7787477374076843
1782816194499865900,4.100865966796875,2.6673355102539062,1.3813889026641846,-1.1734747886657715
1782816194519947800,4.12094775390625,2.9357454776763916,1.4102216958999634,-1.2832001447677612
1782816194540029700,4.14102978515625,3.1968636512756348,1.1595375537872314,-0.7807498574256897
1782816194560110600,4.161110595703125,3.2058160305023193,0.914850115776062,0.14997723698616028
1782816194580192500,4.181192626953125,3.1236934661865234,0.8546987771987915,1.2228870391845703
1782816194600274700,4.201274658203125,3.0584731101989746,0.5876697897911072,1.8915362358093262
1782816194620356600,4.221356689453125,2.849595546722412,0.08494509756565094,1.983838677406311
1782816194640438500,4.2414384765625,2.4343996047973633,-0.3234120309352875,1.7014871835708618
1782816194660520400,4.2615205078125,2.0048868656158447,-0.20308884978294373,1.331693172454834
1782816194680601600,4.2816015625,1.7321027517318726,0.30885419249534607,1.1017873287200928
1782816194700683500,4.30168359375,1.6248178482055664,0.7488724589347839,1.0429340600967407
1782816194720765700,4.321765625,1.5928232669830322,0.7984461188316345,1.225199818611145
1782816194740847600,4.34184765625,1.7315317392349243,0.5235375165939331,1.7726908922195435
1782816194760929500,4.361929443359375,1.860252022743225,0.44765034317970276,2.6353917121887207
1782816194781011500,4.382011474609375,2.1931655406951904,0.8783900141716003,3.125438928604126
1782816194801092600,4.402092529296875,2.9044909477233887,1.678067684173584,2.9937145709991455
1782816194821174500,4.422174560546875,3.2731618881225586,1.804602861404419,2.4286561012268066
1782816194841256700,4.442256591796875,2.7833943367004395,0.5473666787147522,1.4028950929641724
1782816194861338600,4.462338623046875,2.318775177001953,-1.0030672550201416,-0.27996450662612915
1782816194881420500,4.482420654296875,1.9313138723373413,-1.8429147005081177,-1.7457889318466187
1782816194901502700,4.502502685546875,1.7956002950668335,-1.1486573219299316,-2.4319281578063965
1782816194921583600,4.52258349609375,2.1824610233306885,0.20841138064861298,-2.726850748062134
1782816194941665500,4.54266552734375,2.29935622215271,0.5542617440223694,-3.4502158164978027
1782816194961747700,4.562747802734375,1.71635901927948,-0.3474292755126953,-3.6659440994262695
1782816194981829600,4.58282958984375,1.520017385482788,-0.3803164064884186,-2.4457054138183594
1782816195001911600,4.60291162109375,2.163541078567505,0.6614535450935364,-1.1940174102783203
1782816195021993700,4.62299365234375,2.4840829372406006,1.5524353981018066,-0.5251563787460327
1782816195042074600,4.64307470703125,2.3280856609344482,1.4241281747817993,0.011332586407661438
1782816195062156800,4.66315673828125,2.164297103881836,0.4913516640663147,0.5172455906867981
1782816195082238700,4.68323876953125,2.0661063194274902,-0.5495370030403137,1.0935966968536377
1782816195102320600,4.703320556640625,2.0282013416290283,-0.842246949672699,1.445859432220459
1782816195122402600,4.723402587890625,1.8148008584976196,-0.5066058039665222,1.2962772846221924
1782816195142484700,4.743484619140625,1.3466895818710327,0.002454996109008789,0.8565331697463989
1782816195162565600,4.763565673828125,0.7517932653427124,0.37766653299331665,0.3842037320137024
1782816195182647000,4.78364697265625,0.3314269781112671,0.6154066324234009,0.28710052371025085
1782816195202729000,4.80372900390625,0.08976154029369354,0.49814528226852417,0.7624720335006714
1782816195222811000,4.823810791015625,0.10527898371219635,-0.2359229177236557,1.9660478830337524
1782816195242893000,4.84389306640625,0.32830771803855896,-0.8233141303062439,3.1243855953216553
1782816195262975000,4.86397509765625,0.9508383870124817,-0.25448665022850037,3.6527488231658936
1782816195283057000,4.884056884765625,1.6147273778915405,0.1458376944065094,3.0973727703094482
1782816195303138000,4.904137939453125,2.148277997970581,-0.7556403875350952,1.7606176137924194
1782816195323220000,4.924219970703125,2.5632357597351074,-2.4345507621765137,0.20954479277133942
1782816195343302000,4.944302001953125,2.5330538749694824,-3.395111560821533,-0.9352772831916809
1782816195363384000,4.964384033203125,2.3969640731811523,-2.808365821838379,-2.017397165298462
1782816195383466000,4.984466064453125,2.5759005546569824,-1.0605345964431763,-3.5141448974609375
1782816195403548000,5.0045478515625,2.394104480743408,0.9817724227905273,-5.099523544311523
1782816195423628800,5.02462890625,1.9274346828460693,2.242164134979248,-5.129700183868408
1782816195443710700,5.044710693359375,1.9388073682785034,2.806351661682129,-3.7298355102539062
1782816195463793000,5.06479296875,2.626159906387329,3.0253567695617676,-1.9905004501342773
1782816195483874800,5.084874755859375,3.443413019180298,2.6814217567443848,-0.608774721622467
1782816195503956700,5.104956787109375,3.8946166038513184,1.8571105003356934,0.2554156184196472
1782816195524039000,5.125038818359375,3.9144997596740723,0.7740888595581055,1.0131393671035767
1782816195544119800,5.145119873046875,3.647660970687866,-0.4226093590259552,1.9550377130508423
1782816195564201700,5.16520166015625,3.2932045459747314,-1.3488277196884155,2.8843867778778076
1782816195584284000,5.185283935546875,2.861689805984497,-2.136779308319092,3.5722150802612305
1782816195604365800,5.20536572265625,2.451929807662964,-2.3838813304901123,3.505131959915161
1782816195624447700,5.22544775390625,2.2098782062530518,-1.4283521175384521,3.3653175830841064
1782816195644530000,5.245530029296875,2.159287691116333,0.053912632167339325,3.093073844909668
1782816195664610800,5.26561083984375,2.186967372894287,1.8311069011688232,3.0281434059143066
1782816195684692700,5.285692626953125,2.2769830226898193,3.9060111045837402,3.2278311252593994
1782816195704775000,5.30577490234375,2.541814088821411,5.690698623657227,2.8669495582580566
1782816195724856800,5.32585693359375,2.8566977977752686,5.978532791137695,1.6145977973937988
1782816195744938800,5.345938720703125,2.839103937149048,3.869971513748169,0.2320840209722519
1782816195765021000,5.36602099609375,2.662055015563965,0.5083135962486267,-0.8952683806419373
1782816195785102800,5.386102783203125,2.227386236190796,-2.1230099201202393,-1.1481480598449707
1782816195805184000,5.40618408203125,2.254565715789795,-1.8765661716461182,-0.8476899266242981
1782816195825266000,5.426265869140625,2.988830327987671,0.20739729702472687,-0.6810770630836487
1782816195845347800,5.446347900390625,3.7850630283355713,1.8478879928588867,-0.8489267826080322
1782816195865429800,5.4664296875,4.072512626647949,2.1994502544403076,-1.2060327529907227
1782816195885512000,5.486511962890625,3.9463040828704834,1.751615047454834,-1.280088186264038
1782816195905592800,5.5065927734375,3.790327548980713,1.1328392028808594,-0.8500320315361023
1782816195925675000,5.526675048828125,3.8383655548095703,0.7335941195487976,-0.0631430447101593
1782816195945757000,5.5467568359375,3.936476707458496,0.558225154876709,0.8116338849067688
1782816195965838800,5.5668388671875,4.061415672302246,0.18985095620155334,1.629156231880188
1782816195985921000,5.586921142578125,3.9745662212371826,-0.33632445335388184,2.2824196815490723
1782816196006003000,5.6070029296875,3.73199725151062,-0.8565759658813477,2.7891581058502197
1782816196026084900,5.6270849609375,3.52356219291687,-0.9220709204673767,2.9453248977661133
1782816196046166000,5.647166015625,3.311394691467285,-0.347084641456604,2.7947373390197754
1782816196066248000,5.667248046875,2.898427724838257,0.4934466779232025,2.4594504833221436
1782816196086329900,5.687329833984375,2.2260172367095947,1.639210820198059,2.106917381286621
1782816196106412000,5.707412109375,1.5317435264587402,3.4987144470214844,1.9434759616851807
1782816196126494000,5.727493896484375,1.2624813318252563,5.907716274261475,1.5805529356002808
1782816196146576000,5.747575927734375,1.5939089059829712,7.660355091094971,0.1197088435292244
1782816196166657000,5.767656982421875,2.235105514526367,7.014204502105713,-1.8084863424301147
1782816196186739200,5.7877392578125,2.956252098083496,4.750904083251953,-2.2626779079437256
1782816196206821000,5.807821044921875,2.9220852851867676,1.2682926654815674,-1.6939901113510132
1782816196226903300,5.8279033203125,1.890586495399475,-1.6901512145996094,-1.5903913974761963
1782816196246985200,5.847985107421875,1.5700377225875854,-1.4629020690917969,-2.118828058242798
1782816196267067100,5.868067138671875,1.4048835039138794,-0.009378155693411827,-2.9933199882507324
1782816196287148300,5.888148193359375,1.2825275659561157,0.6598220467567444,-3.4904067516326904
1782816196307230200,5.908230224609375,1.5449298620224,0.14754599332809448,-3.544395923614502
1782816196327312100,5.92831201171875,1.7809231281280518,-1.0990383625030518,-3.2151761054992676
1782816196347394300,5.948394287109375,1.7930476665496826,-2.0695793628692627,-2.41371750831604
1782816196367476200,5.968476318359375,1.622334599494934,-2.2248103618621826,-1.4671553373336792
1782816196387558100,5.98855810546875,1.4643689393997192,-1.5450975894927979,-0.6301363110542297
1782816196407640300,6.008640380859375,1.4755080938339233,-0.7865952253341675,-0.11701160669326782
1782816196427721200,6.02872119140625,1.5909520387649536,-0.41892391443252563,0.24813319742679596
1782816196447803100,6.04880322265625,1.5081007480621338,-0.4972313642501831,0.3724592328071594
1782816196467885300,6.06888525390625,1.4276793003082275,-0.771054208278656,0.5820925235748291
1782816196487967200,6.08896728515625,1.4996521472930908,-0.8129630088806152,1.0033804178237915
1782816196508049200,6.109049072265625,1.8236709833145142,-0.4481574594974518,1.811853051185608
1782816196528131300,6.12913134765625,1.9857776165008545,0.14711441099643707,2.028346538543701
1782816196548213200,6.149213134765625,2.0584936141967773,0.8578386306762695,1.2776222229003906
1782816196568294100,6.169294189453125,2.2031943798065186,1.68482506275177,0.37598761916160583
1782816196588376000,6.1893759765625,2.452167510986328,2.2715036869049072,-0.09998403489589691
1782816196608458200,6.209458251953125,2.8361082077026367,2.6325178146362305,-0.07178175449371338
1782816196628540200,6.2295400390625,2.9807212352752686,1.868713617324829,-0.4274008572101593
1782816196648622300,6.249622314453125,2.796265125274658,0.4839398264884949,-1.038360595703125
1782816196668704300,6.269704345703125,2.4505887031555176,-1.6665067672729492,-1.669511079788208
1782816196688785200,6.28978515625,2.234389066696167,-3.023289203643799,-1.8528600931167603
1782816196708867000,6.3098671875,2.6707475185394287,-2.451353073120117,-1.0144914388656616
1782816196728949000,6.329948974609375,3.5717480182647705,-1.321610689163208,-0.31952592730522156
1782816196749031200,6.35003125,3.985482931137085,-0.7865240573883057,-0.11832530051469803
1782816196769113000,6.370113037109375,3.500525712966919,-0.5876608490943909,0.044731222093105316
1782816196789195000,6.390195068359375,2.700266122817993,-0.1970704197883606,0.4629954397678375
1782816196809276200,6.410276123046875,2.119748592376709,0.1423174887895584,0.8652977347373962
1782816196829358000,6.430358154296875,1.8440886735916138,0.3542928695678711,1.1549285650253296
1782816196849440000,6.45043994140625,1.733809471130371,0.3893120288848877,1.2705951929092407
1782816196869522200,6.470522216796875,1.6663427352905273,0.33330363035202026,1.1837948560714722
1782816196889604000,6.49060400390625,1.5160366296768188,0.18929171562194824,0.9772310853004456
1782816196909686000,6.51068603515625,1.2430262565612793,0.0653771236538887,0.7673212289810181
1782816196929768200,6.530768310546875,0.9445134401321411,0.1434430032968521,0.7625131011009216
1782816196949849000,6.55084912109375,0.7943629026412964,0.26536428928375244,0.7804021239280701
1782816196969931000,6.570930908203125,1.1204136610031128,0.34147948026657104,0.7859710454940796
1782816196990013200,6.59101318359375,1.357372522354126,0.14808475971221924,0.3917017877101898
1782816197010095000,6.61109521484375,1.184038519859314,0.5242024064064026,0.2802451252937317
1782816197030177000,6.631177001953125,1.1785526275634766,1.0564429759979248,0.36781689524650574
1782816197050259200,6.65125927734375,1.4937210083007812,1.9856878519058228,0.21388334035873413
1782816197070340000,6.671340087890625,2.1487514972686768,2.073197364807129,-0.5857957005500793
1782816197090422300,6.69142236328125,2.0844943523406982,0.8172502517700195,-1.1872092485427856
1782816197110504200,6.711504150390625,1.8274918794631958,-0.036068499088287354,-0.7760680913925171
1782816197130586000,6.731586181640625,2.001234531402588,0.14825104176998138,-0.23373211920261383
1782816197150668000,6.75166796875,2.2511038780212402,0.58992600440979,-0.043419249355793
1782816197170750200,6.771750244140625,2.1980032920837402,0.8264867067337036,-0.040425434708595276
1782816197190830800,6.791830810546875,2.1444778442382812,0.9413919448852539,-0.06349222362041473
1782816197210913000,6.8119130859375,2.2050235271453857,1.1017112731933594,-0.11253998428583145
1782816197230995000,6.831994873046875,2.418538808822632,1.0980238914489746,-0.029064856469631195
1782816197251076900,6.852076904296875,2.567401170730591,0.6861985325813293,0.2723950743675232
1782816197271159000,6.872158935546875,2.411947727203369,-0.00346171366982162,0.7669649124145508
1782816197291241000,6.892240966796875,2.0908091068267822,-0.5284307599067688,1.1056853532791138
1782816197311321900,6.91232177734375,1.8241920471191406,-0.7573651671409607,1.1438298225402832
1782816197331404000,6.932404052734375,1.6753573417663574,-0.7201467156410217,1.0908466577529907
1782816197351486000,6.95248583984375,1.7780866622924805,-0.7593064308166504,1.3165130615234375
1782816197371567900,6.97256787109375,1.8187042474746704,-0.8214213848114014,1.5568265914916992
1782816197391650000,6.992650146484375,1.8143949508666992,-0.6305972337722778,1.3418855667114258
1782816197411732000,7.01273193359375,1.7786723375320435,0.1405700445175171,0.9486815333366394
1782816197431813000,7.032813232421875,1.8631418943405151,1.1333701610565186,0.9707406163215637
1782816197451895000,7.05289501953125,1.859899640083313,1.6294550895690918,0.5810925960540771
1782816197471977000,7.07297705078125,1.5779870748519897,1.5082871913909912,-0.3340696096420288
1782816197492059000,7.093058837890625,1.9190013408660889,1.292125940322876,-0.6899013519287109
1782816197512141000,7.11314111328125,1.972416639328003,0.36551862955093384,-0.5976207852363586
1782816197532223000,7.133222900390625,1.6263600587844849,-0.2010064572095871,-0.1549302637577057
1782816197552304000,7.15330419921875,1.6367043256759644,0.25219061970710754,0.3311690390110016
1782816197572386000,7.173385986328125,2.0041463375091553,1.0820603370666504,0.44626328349113464
1782816197592468000,7.193468017578125,2.3433053493499756,1.4715691804885864,0.2529676556587219
1782816197612550100,7.213550048828125,2.3002915382385254,1.3140785694122314,-0.0037460043095052242
1782816197632632000,7.233632080078125,1.9954643249511719,0.9955646395683289,-0.0421241894364357
1782816197652714000,7.2537138671875,1.7559800148010254,0.9583389163017273,0.29253512620925903
1782816197672795000,7.273794921875,1.6615902185440063,0.8195269107818604,0.5444220900535583
1782816197692876800,7.293876708984375,1.725281834602356,0.7616278529167175,0.7323877215385437
1782816197712958700,7.313958740234375,1.8055692911148071,0.6244773864746094,0.7791492342948914
1782816197733041000,7.334041015625,1.8979743719100952,0.46180644631385803,0.7397119998931885
1782816197753122800,7.354122802734375,1.9250303506851196,0.0662824884057045,0.6589969396591187
1782816197773204000,7.374203857421875,1.7925827503204346,-0.4468061625957489,0.6498045325279236
1782816197793286000,7.394285888671875,1.501315712928772,0.31740453839302063,0.6540583372116089
1782816197813367800,7.414367919921875,1.5324883460998535,1.7481108903884888,0.4461763799190521
1782816197833449700,7.43444970703125,1.5939223766326904,2.777972936630249,0.10760889947414398
1782816197853532000,7.454531982421875,1.6170718669891357,2.500918388366699,-0.6111069917678833
1782816197873613800,7.47461376953125,1.4771207571029663,0.9425742626190186,-1.4989622831344604
1782816197893695000,7.494695068359375,0.9113369584083557,-0.3975362181663513,-1.732792615890503
1782816197913777000,7.51477685546875,0.8414228558540344,-0.08857937902212143,-0.606982946395874
1782816197933858800,7.53485888671875,1.3547601699829102,0.8911548852920532,0.31749242544174194
1782816197953941000,7.55494091796875,1.5981998443603516,1.456261396408081,0.6015368700027466
1782816197974023000,7.57502294921875,1.5527082681655884,1.441038966178894,0.7079519033432007
1782816197994103800,7.595103759765625,1.4273388385772705,1.2019177675247192,0.7601702213287354
1782816198014186000,7.61518603515625,1.245760202407837,0.5842325687408447,0.7636533975601196
1782816198034268000,7.635267822265625,1.0984437465667725,-0.23267188668251038,0.6803931593894958
1782816198054349800,7.655349853515625,1.0821033716201782,-0.9215360283851624,0.2395632266998291
1782816198074432000,7.675431884765625,1.1329145431518555,-1.2942463159561157,-0.737603485584259
1782816198094513000,7.695512939453125,1.397945761680603,-1.5977962017059326,-1.7309800386428833
1782816198114594800,7.7155947265625,1.3762224912643433,-2.0902225971221924,-2.637230396270752
1782816198134677000,7.735677001953125,0.7389922142028809,-2.6173646450042725,-2.7117626667022705
1782816198154759000,7.755759033203125,0.488919734954834,-0.27351054549217224,-1.8471384048461914
1782816198174840800,7.7758408203125,0.6602558493614197,0.9557852149009705,-0.6075065732002258
1782816198194923500,7.795923583984375,0.5104449987411499,-0.8276146054267883,-0.2752540707588196
1782816198215004400,7.81600439453125,0.04756075143814087,-1.9058624505996704,-1.1092959642410278
1782816198235086300,7.83608642578125,-0.10585413128137589,0.2990718185901642,-1.547681212425232
1782816198255168500,7.85616845703125,0.23811371624469757,2.4627864360809326,-1.2391477823257446
1782816198275250400,7.87625048828125,0.6873819828033447,3.4071860313415527,-0.7357766032218933
1782816198295332400,7.896332275390625,0.9535840153694153,2.920694351196289,-0.7613385915756226
1782816198315413500,7.91641357421875,1.0472619533538818,1.9839788675308228,-0.714339017868042
1782816198335495400,7.936495361328125,1.2336311340332031,1.442625880241394,-0.257942795753479
1782816198355577300,7.956577392578125,1.4938209056854248,1.0874453783035278,0.4040167033672333
1782816198375659500,7.976659423828125,1.6252226829528809,0.36041900515556335,0.9830933809280396
1782816198395741400,7.996741455078125,1.4313828945159912,0.04710448533296585,1.245086669921875
1782816198415822600,8.016822509765625,0.9754250049591064,-0.90201735496521,0.8023150563240051
1782816198435904500,8.036904541015625,0.6289865970611572,-2.0832748413085938,0.061650436371564865
1782816198455986400,8.056986328125,0.5525293350219727,-1.9844354391098022,-0.48193052411079407
1782816198476068600,8.077068603515626,0.5367522835731506,-0.7822744250297546,-0.45449793338775635
1782816198496150500,8.097150634765624,0.5199652910232544,0.20823398232460022,-0.41041114926338196
1782816198516231400,8.1172314453125,0.6743815541267395,0.9106772541999817,-0.5030094385147095
1782816198536313600,8.137313720703125,0.7396876215934753,0.990669310092926,-0.6458264589309692
1782816198556395500,8.1573955078125,0.6322423219680786,0.5144208669662476,-0.46859869360923767
1782816198576477400,8.1774775390625,0.5517832636833191,0.010856356471776962,-0.15211719274520874
1782816198596559600,8.1975595703125,0.5031177997589111,-0.3437723219394684,0.0010351086966693401
1782816198616640500,8.217640625,0.43817514181137085,-0.47172099351882935,0.04523157328367233
1782816198636722700,8.23772265625,0.4509650766849518,-0.17974258959293365,0.2105339765548706
1782816198656804600,8.2578046875,0.4696609675884247,0.22825579345226288,0.24511945247650146
1782816198676886500,8.277886474609375,0.5186024308204651,0.34523606300354004,0.05553162470459938
1782816198696968400,8.297968505859375,0.40918514132499695,0.0757656842470169,-0.16427463293075562
1782816198717049600,8.318049560546875,0.2439841479063034,-0.20466670393943787,-0.28851819038391113
1782816198737131500,8.338131591796875,0.17987430095672607,-0.12897193431854248,-0.307199627161026
1782816198757213700,8.358213623046876,0.2178400307893753,0.0134555883705616,-0.26840630173683167
1782816198777295600,8.378295654296876,0.32985687255859375,0.14959141612052917,-0.12786006927490234
1782816198797376500,8.39837646484375,0.4031611979007721,0.14112676680088043,0.033421337604522705
1782816198817458700,8.418458740234374,0.4529925286769867,0.04683373123407364,0.16608405113220215
1782816198837540600,8.43854052734375,0.5003775954246521,-0.03224661201238632,0.167678564786911
1782816198857622500,8.45862255859375,0.5409889817237854,-0.004346970468759537,0.12794077396392822
1782816198877704700,8.47870458984375,0.54986172914505,0.05949869751930237,0.2554696500301361
1782816198897785300,8.498785400390625,0.6306270360946655,0.11396754533052444,0.540177047252655
1782816198917867500,8.518867431640626,0.7387011051177979,0.08255213499069214,0.6786596775054932
1782816198937949400,8.538949462890624,0.7234370708465576,0.07307395339012146,0.6393529176712036
1782816198958031600,8.559031494140624,0.6021727919578552,0.07895579934120178,0.5620419979095459
1782816198978113500,8.579113525390625,0.5112363696098328,0.23719662427902222,0.5800461173057556
1782816198998194400,8.5991943359375,0.45469728112220764,0.244118332862854,0.6127796769142151
1782816199018276400,8.6192763671875,0.29570719599723816,-0.08354103565216064,0.47488459944725037
1782816199038358500,8.639358642578125,0.08119382709264755,-0.07256508618593216,0.3995259404182434
1782816199058440400,8.6594404296875,-0.19912812113761902,0.36827823519706726,0.30462995171546936
1782816199078522400,8.6795224609375,-0.3837788701057434,1.105608344078064,-0.12302843481302261
1782816199098603500,8.699603515625,-0.5562899708747864,1.5182349681854248,-0.7981438040733337
1782816199118685400,8.719685546875,-0.8607928156852722,0.6592084765434265,-1.2583112716674805
1782816199138767400,8.739767333984375,-0.8704982995986938,-0.851468026638031,-1.1197524070739746
1782816199158849500,8.759849609375,-0.7053287029266357,-1.701727032661438,-0.6568335890769958
1782816199178930000,8.779929931640625,-0.25721633434295654,-1.6635527610778809,-0.45377317070961
1782816199199012000,8.80001220703125,-0.03361253812909126,-1.1754181385040283,-0.6644943356513977
1782816199219094000,8.820093994140626,-0.11564929038286209,-0.9389528036117554,-1.526841640472412
1782816199239176000,8.840176025390624,-0.42948904633522034,-0.46720173954963684,-2.540771007537842
1782816199259258000,8.860258056640625,-0.6473656892776489,0.8828349113464355,-2.871445655822754
1782816199279339000,8.880339111328125,-0.2768457531929016,2.092148780822754,-2.4187064170837402
1782816199299421200,8.900421142578125,0.14440028369426727,2.0663390159606934,-1.4750529527664185
1782816199319503000,8.920503173828125,0.15965816378593445,1.0840915441513062,-0.6571567058563232
1782816199339585000,8.9405849609375,0.038336824625730515,0.030580680817365646,-0.054559867829084396
1782816199359667000,8.9606669921875,-0.07126069068908691,-0.6984023451805115,0.46550995111465454
1782816199379748000,8.980748046875,-0.17168113589286804,-1.6912273168563843,1.0432637929916382
1782816199399830000,9.000830078125,-0.1528332233428955,-2.346238136291504,1.5000298023223877
1782816199419912200,9.020912109375,-0.07419279962778091,-2.789055109024048,1.8907716274261475
1782816199439994000,9.040994140625,-0.0480864942073822,-2.398418426513672,2.191962957382202
1782816199460075300,9.0610751953125,-0.07360902428627014,-1.004497766494751,2.2407257556915283
1782816199480157200,9.0811572265625,0.0337330624461174,0.4419264495372772,2.2808680534362793
1782816199500239000,9.101239013671876,0.22725021839141846,0.3679198622703552,2.1528518199920654
1782816199520321000,9.121321044921874,0.2746458649635315,-0.5894330143928528,1.6189041137695312
1782816199540403200,9.1414033203125,0.7174158096313477,0.2035989612340927,1.6371374130249023
1782816199560484000,9.161484130859375,1.0287004709243774,0.6915523409843445,1.4643176794052124
1782816199580566300,9.181566162109375,0.7220238447189331,0.33060160279273987,0.6966014504432678
1782816199600648200,9.201648193359375,0.2537502646446228,0.17802955210208893,-0.001229042187333107
1782816199620730000,9.221730224609376,-0.12317852675914764,0.15991073846817017,-0.10981633514165878
1782816199640811000,9.24181103515625,-0.17883877456188202,0.5964556336402893,0.11678943783044815
1782816199660893000,9.261892822265626,-0.02304568514227867,0.6343376636505127,-0.053510818630456924
1782816199680974800,9.281974853515624,0.2555025815963745,0.5904298424720764,-0.29893195629119873
1782816199701057300,9.302057373046875,0.35799577832221985,0.5869710445404053,-0.5143753290176392
1782816199721139200,9.32213916015625,0.38138505816459656,0.7211726307868958,-0.6722928881645203
1782816199741220000,9.34222021484375,0.4418167769908905,0.37928131222724915,-0.7160680294036865
1782816199761302000,9.362302001953125,0.5251861810684204,0.2670324146747589,-0.38514217734336853
1782816199781384000,9.382384033203126,0.6344817876815796,0.573570191860199,0.07479742169380188
1782816199801466000,9.402466064453124,0.6910504698753357,0.6550747752189636,0.28978046774864197
1782816199821547000,9.422547119140624,0.6269807815551758,0.6480661034584045,0.2784062922000885
1782816199841629000,9.44262890625,0.5780017375946045,0.6765655875205994,0.2572018802165985
1782816199861711000,9.462711181640625,0.5695576071739197,0.6035386323928833,0.357911080121994
1782816199881793000,9.48279296875,0.5462929010391235,0.30718567967414856,0.45261314511299133
1782816199901874200,9.502874267578125,0.4958789646625519,0.04857178404927254,0.3799399733543396
1782816199921956000,9.5229560546875,0.47240450978279114,-0.09678055346012115,0.17658041417598724
1782816199942038000,9.5430380859375,0.4989776611328125,-0.09021064639091492,0.0059368545189499855
1782816199962120000,9.563119873046874,0.4540594220161438,-0.11908989399671555,-0.1022770032286644
1782816199982202000,9.5832021484375,0.2546617090702057,-0.3372676968574524,-0.2449612021446228
1782816200002283000,9.603282958984375,0.12822355329990387,-0.2377677857875824,-0.2737461030483246
1782816200022365200,9.623365234375,0.17274770140647888,0.13674674928188324,-0.2631796896457672
1782816200042447000,9.643447021484375,0.25691524147987366,0.4354493319988251,-0.23994863033294678
1782816200062529000,9.663529052734376,0.2891559600830078,0.5390749573707581,-0.20440611243247986
1782816200082611200,9.683611083984376,0.3251745104789734,0.5308859944343567,-0.08271785080432892
1782816200102693000,9.703693115234374,0.35565420985221863,0.6434885263442993,0.13326804339885712
1782816200122774000,9.72377392578125,0.15027841925621033,0.5979476571083069,0.23819339275360107
1782816200142856200,9.743856201171875,0.02750440314412117,0.24958403408527374,0.14428922533988953
1782816200162938000,9.763938232421875,0.07768623530864716,-0.18987613916397095,-0.04595039039850235
1782816200183021000,9.78402099609375,0.1829952895641327,-0.2630411982536316,-0.2014205902814865
1782816200203102000,9.80410205078125,0.17673204839229584,-0.0815134048461914,-0.23409582674503326
1782816200223184000,9.824183837890626,0.07637427747249603,0.13841158151626587,-0.18792317807674408
1782816200243265800,9.844265869140624,0.011986108496785164,0.19455048441886902,-0.11262640357017517
1782816200263348000,9.864347900390625,0.017172476276755333,0.10013405233621597,-0.0709695890545845
1782816200283428900,9.884428955078125,0.0895766168832779,-0.10674918442964554,-0.09546003490686417
1782816200303510800,9.9045107421875,0.16838209331035614,-0.19181250035762787,-0.11767604202032089
1782816200323593000,9.924593017578125,0.18396107852458954,-0.0710042268037796,-0.07472030073404312
1782816200343675000,9.9446748046875,0.17132620513439178,0.06667382270097733,0.0033602083567529917
1782816200363756800,9.9647568359375,0.1910100132226944,0.08081475645303726,0.06482142955064774
1782816200383838000,9.984837890625,0.2146071493625641,-0.0019205643329769373,0.05972683057188988
1782816200403920000,10.004919921875,0.24619890749454498,-0.0070113614201545715,0.04542088136076927
1782816200424002000,10.025001953125,0.22997651994228363,0.03674658387899399,0.04642365500330925
1782816200444084000,10.045083984375,0.19749189913272858,0.04404645413160324,0.010293025523424149
1782816200464164900,10.065164794921875,0.14746229350566864,0.07399343699216843,-0.06489739567041397
1782816200484247000,10.0852470703125,0.07672430574893951,0.13800585269927979,-0.1677548587322235
1782816200504329000,10.105328857421876,0.021020783111453056,0.17216327786445618,-0.21301600337028503
1782816200524411000,10.125410888671874,0.01890665479004383,0.15142790973186493,-0.21098951995372772
1782816200544493000,10.1454931640625,0.030453061684966087,0.15820513665676117,-0.15654924511909485
1782816200564574000,10.165573974609375,0.014845825731754303,0.24787560105323792,-0.07038705050945282
1782816200584656100,10.18565625,-0.009492071345448494,0.37041139602661133,-0.003645079443231225
1782816200604738000,10.205738037109375,-0.044431623071432114,0.4654054343700409,-0.0024195413570851088
1782816200624820000,10.225820068359376,-0.08477399498224258,0.17732302844524384,-0.06742031127214432
1782816200644901000,10.245901123046876,-0.06227920204401016,-0.1206531822681427,-0.1590978503227234
1782816200664983000,10.265983154296874,-0.04326536878943443,-0.10197878628969193,-0.19840668141841888
1782816200685065000,10.28606494140625,-0.08535272628068924,-0.013474281877279282,-0.21886533498764038
