time,seconds_elapsed,z,y,x
1782816190463413200,0.064413330078125,-0.040839959910511967,0.428936483438313,-1.4921777091249824
1782816190483495200,0.0844951171875,2.977535801362991,-0.2722279183790087,-1.3097016656026244
1782816190503577300,0.104577392578125,7.6684011229872695,-0.4108677427843213,-1.9210577862009406
1782816190523659300,0.1246591796875,9.70543594314754,2.013458422000706,-0.8209051722243428
1782816190543741200,0.1447412109375,9.716871529397368,1.857400429804623,-0.5380804565072059
1782816190563823000,0.164822998046875,8.983377806383372,1.963864077748358,-0.8490504857346415
1782816190583905300,0.1849052734375,-1.5674118138074873,-1.8868879517041146,3.7494326125293966
1782816190603986200,0.204986083984375,-4.701469717746972,-3.1647429650604724,6.338299351173639
1782816190624068400,0.225068359375,-4.075609270977973,0.8459282620608806,4.576734792314469
1782816190644150300,0.245150390625,-3.3454151740312574,4.551583107662201,-0.25830866208728404
1782816190664232200,0.265232177734375,-4.949519764941931,3.546460308945179,0.06127387705957517
1782816190684314400,0.285314453125,-8.208397642248869,3.7651983369380235,-2.4734178202122448
1782816190704396300,0.305396240234375,-8.588741359692811,3.061147566029429,-3.6149344179734584
1782816190724478200,0.325478271484375,-6.485313620692491,1.711186078491807,-4.260490914337336
1782816190744559000,0.34555908203125,-2.3461709119588137,0.3084484017953276,-3.642938861708343
1782816190764641000,0.36564111328125,0.364847457626462,-0.9284944631971418,-2.296119179327786
1782816190784723200,0.38572314453125,1.3096031736642122,-1.5718427819922565,-0.8759013755202293
1782816190804805400,0.405805419921875,2.62523861322999,-1.2692711632758378,-0.27992994412370026
1782816190824887300,0.42588720703125,3.8912317777484655,-1.0464876592844723,0.576590804426372
1782816190844969200,0.44596923828125,4.200588818821311,-0.38988632955402136,1.6443682122379542
1782816190865051400,0.466051513671875,3.360673533439636,-0.46688159869015217,2.092071647727489
1782816190885133300,0.48613330078125,2.407422376257181,0.12464096353873609,1.1602207137092948
1782816190905214000,0.5062138671875,0.602958294609189,0.7138787758313119,0.5058396903768182
1782816190925296000,0.526296142578125,0.15761983468532562,0.6237474001377821,0.4418889770571142
1782816190945378000,0.5463779296875,0.1600029304295778,0.5134490694019943,0.5499795686155557
1782816190965460000,0.5664599609375,-0.6199164436727762,0.9737064276468008,0.47883967444412406
1782816190985542100,0.586542236328125,-0.9564461538314819,0.37581681460402905,0.33371815986931325
1782816191005624000,0.6066240234375,-0.4239958121657371,0.28257629391402006,0.48295843487456436
1782816191025706000,0.6267060546875,-1.2444079401761292,0.07272237758990377,-0.13270729255117475
1782816191045787100,0.646787109375,-2.054244313636422,-0.08876505577638745,-0.701290658545494
1782816191065869000,0.666869140625,-2.7272610638558863,-0.14934302299367264,-0.7803904256802052
1782816191085951000,0.686950927734375,-2.0498066234499217,-0.01594614074314013,-0.2543451287511736
1782816191106033200,0.707033203125,-0.6246504864573479,-0.397430717051588,-0.07947152305655181
1782816191126115000,0.727114990234375,0.8769920933663845,-0.899840688708052,-0.077392159499228
1782816191146197000,0.747197021484375,0.6214139887541532,-1.028283163421601,-0.2692180690385401
1782816191166279200,0.767279052734375,0.0014110358417034148,-0.8330571631152183,-0.2921116725657135
1782816191186360300,0.7873603515625,-0.3290279562264681,-0.6227120657406747,0.079466043163836
1782816191206441500,0.80744140625,-0.04098375229537487,-0.7180578150816261,0.005263546551391482
1782816191226523400,0.8275234375,0.9086819476157426,-1.2171886554695666,-0.2959953090660274
1782816191246605300,0.847605224609375,0.9174363319575786,-1.591188556844741,-0.7145352669786661
1782816191266687500,0.8676875,0.24800386996567247,-1.5713590901285408,-0.8770639164935797
1782816191286769400,0.887769287109375,-0.39190906755328175,-1.4247928566381334,-0.7416267605870962
1782816191306851300,0.907851318359375,-1.0449725785464048,-1.133551756361872,-0.5608486070238053
1782816191326933500,0.92793359375,-1.182193768325448,-1.08405794987455,-0.5125823695700615
1782816191347014400,0.948014404296875,-0.7742436665534973,-1.217003069769591,-0.42800811654701826
1782816191367096300,0.968096435546875,-0.8778741368979215,-1.2049785777159034,-0.3698335024107247
1782816191387178500,0.988178466796875,-1.2809522487193346,-0.977032868655771,-0.09689780108854174
1782816191407260400,1.008260498046875,-1.3560603889346121,-0.6949122095547616,0.26330102701447905
1782816191427342300,1.02834228515625,-1.383430041897297,-0.4026408163826912,0.4200301234051585
1782816191447424500,1.048424560546875,-1.4217396065473555,-0.2547168846730143,0.14574381119161844
1782816191467506400,1.06850634765625,-1.52885733448565,-0.04412811473570764,-0.045985652235895395
1782816191487587300,1.08858740234375,-1.7458038028866052,0.23800704781468957,0.014744564667344093
1782816191507669200,1.108669189453125,-1.4901888733953237,0.4175853971341625,0.18106062376648185
1782816191527751400,1.12875146484375,-1.3103829258650541,0.5841036277418956,0.464381744698435
1782816191547833300,1.148833251953125,-1.2975193526387214,0.5444924789739772,0.4572597838640213
1782816191567915500,1.16891552734375,-0.958005073711276,0.5165009677859023,0.6870737710140645
1782816191587997400,1.18899755859375,-0.4976303726971149,0.48692964006047695,0.8077197466325015
1782816191608079400,1.209079345703125,0.1362269180446863,0.328311916911602,0.7391920807860791
1782816191628161500,1.22916162109375,0.8093459595948457,0.2180064257826656,0.678170187459886
1782816191648242200,1.2492421875,1.3182909225106239,0.21925156700555234,0.39385786353349683
1782816191668324400,1.269324462890625,1.83378603772223,0.22682974717486648,0.2217032344739884
1782816191688406300,1.28940625,2.5508406671106814,0.2644358031980693,0.15573635902628302
1782816191708488200,1.30948828125,3.17728037507236,0.2200607279639691,0.09105725836679339
1782816191728570000,1.329570068359375,3.846217162501812,0.34996056187897917,0.06977196681909263
1782816191748652300,1.34965234375,3.975995635059476,0.4079811544973403,-0.2940295619510114
1782816191768734200,1.369734130859375,2.367188565546274,0.37491314376257356,-0.6721149790741503
1782816191788815400,1.3898154296875,0.8742460095286368,0.87626830913648,-0.5543056881863624
1782816191808897300,1.409897216796875,0.5316612371146678,0.7830439358636736,-0.091568660221342
1782816191828979200,1.429979248046875,-0.8221072414904832,-0.20554441909454763,-0.27554467824418094
1782816191849061400,1.450061279296875,-6.5726166410923,-0.5956695989057421,-1.1886693940803408
1782816191869143300,1.470143310546875,-10.630846907246113,-0.23857947740778326,-1.4414878247208893
1782816191889225200,1.49022509765625,-8.989016689053177,-0.19804712214171885,-0.29974395754244176
1782816191909306400,1.510306396484375,-7.24778676995337,-1.7622778216950594,0.5692066855244338
1782816191929388300,1.53038818359375,-8.316568094110488,-3.1349624515637755,0.11737988649457692
1782816191949470200,1.55047021484375,-10.762711538428068,-2.6830337995946407,-1.349142718500644
1782816191969552400,1.570552490234375,-9.675635263645649,-1.0384435421038418,-1.8384943615436553
1782816191989634300,1.59063427734375,-6.563163753092288,0.6081112203929573,-1.1075854673910885
1782816192009716200,1.61071630859375,-2.1164766056656834,0.9602589170526713,-0.44236178220063443
1782816192029798100,1.630798095703125,0.3937245925426483,1.2075176677394657,-0.3493964982554316
1782816192049879300,1.65087939453125,3.219136234027147,1.2213171335764228,-0.3963055489465594
1782816192069961200,1.670961181640625,5.878418571156263,1.4027224791273474,0.12152590025812386
1782816192090043400,1.69104345703125,7.961698425140977,0.8250242979809641,0.4589369232960045
1782816192110125300,1.711125244140625,9.532627891680598,-0.11664555347119457,0.7062392208635807
1782816192130207200,1.731207275390625,10.26803417031765,-0.7717266422312706,0.6052752663146704
1782816192150289400,1.751289306640625,9.73245897462964,-0.5113554215909913,0.3071569737453013
1782816192170371300,1.771371337890625,8.55021435289979,0.3388637791294604,0.3071305971950292
1782816192190452200,1.7914521484375,8.490899409621953,1.335476450589299,0.7577125837955624
1782816192210534400,1.811534423828125,9.701399234977364,1.805812573647499,0.7953538937952369
1782816192230616300,1.8316162109375,10.97265192745924,1.9186817047193645,0.9490422342505306
1782816192250698200,1.8516982421875,10.708132391500472,2.044514362260699,0.9346166724044829
1782816192270780400,1.871780517578125,8.441587389442324,2.556533618055284,1.2787830879867077
1782816192290862300,1.8918623046875,6.810186210805178,2.8529338546603915,1.6741089782461522
1782816192310944300,1.9119443359375,5.310097290164232,2.2396432588681576,1.831135230952501
1782816192331025400,1.932025390625,3.3787282455682752,0.8312916878126562,1.1528740772735326
1782816192351107300,1.952107421875,0.8082838833212852,-1.833138387468457,1.171267373706773
1782816192371189200,1.972189208984375,-6.891985373091697,-2.9632623613387343,2.546423142929375
1782816192391271400,1.992271484375,-9.882539645981788,-1.060846731765568,1.1461926998134702
1782816192411353300,2.012353271484375,-11.9017249211967,-1.1792493854366242,-0.18989274951964616
1782816192431435300,2.032435302734375,-13.978630563974379,-0.8605106949690728,-1.5353785529479385
1782816192451516400,2.052516357421875,-14.071550839734076,0.697996804631874,-1.1325674214996397
1782816192471598300,2.072598388671875,-10.679345857477188,0.21626042236555365,1.5629690090544521
1782816192491680300,2.09268017578125,-5.065757203403115,-1.7570619867429136,2.344383444020152
1782816192511762400,2.112762451171875,-0.3441927921324968,-2.9236551580935717,0.41356034286916254
1782816192531844400,2.13284423828125,1.2257494169354437,-2.757728390572965,0.10336115188375115
1782816192551926300,2.15292626953125,-1.5704706168562172,-1.1075050956312567,0.7147609654933214
1782816192572008400,2.173008544921875,-2.523794839274883,0.19407825504336504,1.6077943853393195
1782816192592089300,2.19308935546875,-0.03293371683061123,-0.19140972995385527,1.7160916784510016
1782816192612171500,2.213171630859375,1.921504653185606,-1.156296526002884,0.6326870048534124
1782816192632253400,2.23325341796875,2.4978332995444537,-1.7749919034481048,0.27678806590139865
1782816192652335400,2.25333544921875,1.1813315985381603,-0.9910030148845166,0.7257309800580144
1782816192672417300,2.273417236328125,-0.5280202502638102,0.3942997255494818,1.5678814771458505
1782816192692499500,2.29349951171875,-0.2751239320814609,0.6318608562275767,1.3308958448007702
1782816192712580400,2.313580322265625,0.3128185797035694,0.7143553073018789,1.39445558604151
1782816192732662500,2.33366259765625,1.0504822818785906,0.45192003027126193,1.3530388491563499
1782816192752744400,2.353744384765625,1.6902742233663797,0.43775458066612477,1.649568118968606
1782816192772826400,2.373826416015625,1.9946727652490137,0.6855738878451287,1.4196771210595964
1782816192792908500,2.393908447265625,1.8376731082886457,0.9570695464268326,1.2615512365482746
1782816192812990500,2.413990478515625,1.7749796284884214,1.3980116710878907,1.2439471907965838
1782816192833072400,2.434072265625,1.715734243315458,1.6484063817128538,0.8444847852542996
1782816192853153500,2.454153564453125,2.0760972490042446,1.7837267063066362,0.39160880596507336
1782816192873235500,2.4742353515625,3.443469890069961,1.8469333963260053,-0.24083368607535957
1782816192893317400,2.4943173828125,4.32015627848804,1.4463655137598515,-1.4443486209794878
1782816192913399600,2.514399658203125,3.425612746340036,1.2777163355380297,-1.732195987164229
1782816192933481500,2.5344814453125,2.5576234591186044,0.8695145970925688,-1.5050421591341494
1782816192953563400,2.5545634765625,0.23951485856175422,-0.5603140252230688,-1.5272165815412997
1782816192973645600,2.5746455078125,-3.6811008345812555,-1.2657801062896847,-0.11490034463852643
1782816192993726500,2.5947265625,-7.4740294744879,0.5325196805749088,0.4960501908335834
1782816193013808400,2.614808349609375,-10.321971512210368,1.6535484207764266,1.8464222319334744
1782816193033890600,2.634890625,-10.654709428870678,1.2612051995895803,2.261255955739319
1782816193053972500,2.654972412109375,-10.169123714232445,0.5481400051634758,2.8253672178208826
1782816193074054400,2.675054443359375,-8.384577800497413,-1.1694473186727612,2.329552954635024
1782816193094136600,2.695136474609375,-7.036756832119822,-2.4821593450725077,1.051219290916249
1782816193114217500,2.715217529296875,-5.30336885869205,-2.132630744870007,0.16076536616943776
1782816193134299400,2.73529931640625,-2.617427647218108,-1.0591621396794915,-0.3912145824830979
1782816193154381600,2.755381591796875,0.39587914022803306,0.31783567721322176,-0.3715101669186726
1782816193174463700,2.775463623046875,-2.1645652215301987,2.7565318742647764,0.56648270392064
1782816193194545700,2.795545654296875,0.36605157271921634,2.9753108187898993,1.6222253540128468
1782816193214627800,2.8156279296875,5.587881965887546,1.9205784782513975,1.518247385405004
1782816193234709800,2.835709716796875,9.112758219534157,1.7370935499474405,1.7585776520028709
1782816193254790700,2.855790771484375,10.897048697203397,1.7864707443177699,2.3011847921542823
1782816193274872800,2.875872802734375,11.971783376806973,1.5404711999118328,1.6535200714647769
1782816193294954800,2.895954833984375,12.532731498682498,1.61802804845348,-0.04554210971947759
1782816193315036700,2.91603662109375,11.355062514305114,2.400372750006616,-0.24451513280076906
1782816193335118800,2.936118896484375,10.679069963145256,4.4739492483615875,0.8167032635550946
1782816193355200800,2.95620068359375,12.248256385409832,4.325222037445008,-0.0880869738517329
1782816193375282700,2.97628271484375,9.87250223609209,3.85657985882312,-0.23220696496749296
1782816193395363800,2.99636376953125,4.524297625851631,5.283634815174341,1.7349153291255235
1782816193415445800,3.01644580078125,-1.0114332970380782,5.779543186384439,1.60167619471997
1782816193435527700,3.036527587890625,-4.513655235806107,2.9067361719965934,0.980406436742097
1782816193455609900,3.05660986328125,-6.825593038773536,0.48383974775373934,2.6182252273365854
1782816193475691800,3.07669189453125,-9.92431191830635,-3.9738703134685753,4.178459112338722
1782816193495773700,3.096773681640625,-9.340667980498075,-6.561947363039851,1.9902128632307052
1782816193515854800,3.116854736328125,-9.151929369449615,-9.823649065595864,-0.5608616126358509
1782816193535936800,3.136936767578125,-15.112565620565414,-9.750319625490903,-1.4632047126188874
1782816193556019000,3.15701904296875,-8.160815806862711,-6.829889859184623,-2.395041471981257
1782816193576100900,3.177100830078125,-6.453432627785205,-0.055240679576247925,-6.418223367238045
1782816193596182800,3.197182861328125,-17.574013016998766,6.402171811625361,-6.522463493913412
1782816193616264700,3.2172646484375,-14.789537781536579,9.153398272958396,-1.2637854253411291
1782816193636347000,3.237346923828125,-5.096379720681905,8.358535596746206,0.7051309673607349
1782816193656427800,3.257427734375,2.319233805194497,6.468963374394178,0.08892010020762682
1782816193676510000,3.277510009765625,6.06891659309268,6.072583298906683,0.44721302162408827
1782816193696592000,3.297591796875,7.8554492967307565,6.5462792537868015,0.8592571147114038
1782816193716673800,3.317673828125,9.305096316379307,5.649607477438449,0.467825601541996
1782816193736756000,3.337755859375,10.002050991547106,4.627413424672186,0.20890315493792294
1782816193756838000,3.357837890625,10.340416684961319,4.150110969732702,0.6273965702950954
1782816193776918800,3.377918701171875,10.292263771688937,4.227177842800319,1.0161433744251727
1782816193797001000,3.3980009765625,10.088426960229873,4.16141503855735,0.7773862023629248
1782816193817083000,3.418082763671875,10.048380196523667,4.280351506844163,0.375025591161102
1782816193837164800,3.438164794921875,9.166047911173104,5.171887089347839,1.3171541735656558
1782816193857247000,3.4582470703125,8.642502760496734,5.667123260384797,2.1192712048202753
1782816193877329000,3.478328857421875,6.102970253863931,4.81081125921458,3.2585973067998886
1782816193897410800,3.498410888671875,0.7346136669546365,2.9410119510859247,2.268014343958348
1782816193917492000,3.518491943359375,-7.790401947280764,-0.16926584881544113,3.2215026708975434
1782816193937574000,3.538573974609375,-7.200412439838051,-1.746995643019676,3.185217305551469
1782816193957655800,3.55865576171875,-1.8672996002674103,-1.804563158108294,1.5290186625272035
1782816193977738000,3.578738037109375,-4.857213821688294,-0.045674248199164866,-1.6768414719499647
1782816193997820000,3.59881982421875,-18.223002994942664,7.093894431358575,-2.5298762050151824
1782816194017901800,3.61890185546875,-16.238112788039444,8.39202519389391,-2.0321452945530414
1782816194037983000,3.63898291015625,-8.875311399418115,3.134111095431447,-7.5968714257806536
1782816194058065000,3.65906494140625,-13.222718672925232,-0.6447559936359525,-12.985412138062715
1782816194078146800,3.679146728515625,-10.304559774160385,-2.270669096250832,-10.49465096886158
1782816194098229000,3.69922900390625,-2.4665286452203987,-2.8135002544164656,-5.231856697142124
1782816194118311000,3.719310791015625,2.802070513385534,-2.84925282806009,-0.19797697951495646
1782816194138392800,3.739392822265625,6.540073969405889,-2.9660648515388366,2.5825401659712193
1782816194158473700,3.7594736328125,8.517878017440438,-3.0158854057624933,3.898640008178353
1782816194178555600,3.7795556640625,9.714724580496549,-2.1295295639842746,4.962559279257059
1782816194198637800,3.799637939453125,10.295621265423298,-1.2770305452309547,5.39894929357171
1782816194218719700,3.8197197265625,10.513566097211838,-0.8172681308962404,4.911346978414058
1782816194238801700,3.8398017578125,10.211377632594107,-0.1609452527809888,4.645910035349428
1782816194258883800,3.8598837890625,9.013269086778163,0.8712315570782869,4.615760396279394
1782816194278965800,3.8799658203125,7.5110554290682074,2.049352449941635,4.4366035603076215
1782816194299046700,3.900046630859375,4.475276697573065,3.4633161617904897,3.724446639832854
1782816194319128800,3.92012890625,-0.6634510494947433,4.190845423442125,3.5790552953407166
1782816194339210800,3.940210693359375,-5.929901505634188,4.194950520673394,2.4789497353762386
1782816194359292700,3.960292724609375,-8.628353239113093,2.3438769558027386,2.4790514421850443
1782816194379374800,3.980374755859375,-13.587494234359264,2.323478603157401,0.5668184021484106
1782816194399456800,4.000456787109375,-16.823372344350815,4.2805663186386225,-2.0458917880937455
1782816194419537700,4.02053759765625,-16.474389395332334,2.4151710906878114,-2.283373387262225
1782816194439619800,4.040619873046875,-16.08487452943921,2.508942138057947,-3.01124780908972
1782816194459701800,4.06070166015625,-13.666995056575535,3.3959459223508834,-4.0241818660795685
1782816194479783700,4.08078369140625,-9.183115365830064,3.419428212486207,-3.073591452538967
1782816194499865900,4.100865966796875,-1.953226656138897,2.7307816391974686,-2.085324803815782
1782816194519947800,4.12094775390625,2.491560210624337,2.24352346130237,-0.6322060164034367
1782816194540029700,4.14102978515625,3.2865216710358856,1.7833293775521217,-1.2197425046708434
1782816194560110600,4.161110595703125,3.91203666536808,1.6812553428694605,-2.5059379878059027
1782816194580192500,4.181192626953125,5.226048887646198,1.351595810741186,-2.647383225020766
1782816194600274700,4.201274658203125,8.93770618853271,1.129654895053804,-2.0283970479354263
1782816194620356600,4.221356689453125,12.629936319893599,0.6831505331557244,-1.7889530626527963
1782816194640438500,4.2414384765625,14.11554078810811,0.34364363381713625,-1.99815373923257
1782816194660520400,4.2615205078125,13.024031499314308,0.6272913563549518,-1.9100395485803483
1782816194680601600,4.2816015625,11.018010826098918,1.301810473961383,-1.5081021312266587
1782816194700683500,4.30168359375,9.626143210723995,2.204563762180507,-0.8182624756958335
1782816194720765700,4.321765625,8.345347029349208,3.0540245822817087,-0.41905346039272845
1782816194740847600,4.34184765625,5.5090235332280395,4.521919206282496,0.030693746750941497
1782816194760929500,4.361929443359375,0.9964461557865142,5.153090034419298,-0.776843546853587
1782816194781011500,4.382011474609375,-3.846173323360085,5.385234656473994,-0.6930061567377299
1782816194801092600,4.402092529296875,-7.821736996743082,4.051261011663079,0.9709029875986277
1782816194821174500,4.422174560546875,-7.8465657330513,-0.7222630116865039,1.004679950320348
1782816194841256700,4.442256591796875,-5.297389199760556,-3.5322254473656414,-1.8320194664411247
1782816194861338600,4.462338623046875,-3.23337986343503,-7.6250196619004,0.21815155160808936
1782816194881420500,4.482420654296875,-7.530396089354157,-7.84537038578689,-0.19671784629933534
1782816194901502700,4.502502685546875,-11.455235537672042,-4.103112779453396,-2.0556020118556915
1782816194921583600,4.52258349609375,-11.165449458509682,-0.431685489885509,-1.839348201894015
1782816194941665500,4.54266552734375,-4.3876071819484235,-0.7814031829193234,-1.4635498727947474
1782816194961747700,4.562747802734375,-1.6726842061400413,-1.5190914350137115,-2.832632240387797
1782816194981829600,4.58282958984375,-6.260670752570033,0.5068740018606186,-3.039252545085549
1782816195001911600,4.60291162109375,-6.270305426877736,2.027223766372353,0.16312515410333872
1782816195021993700,4.62299365234375,-1.40901164239943,1.1046163153871893,0.8000206434972584
1782816195042074600,4.64307470703125,3.6682273244827983,0.005647285171970725,0.35307781711667774
1782816195062156800,4.66315673828125,7.849695847770572,-0.47303266866579646,0.7806435236584395
1782816195082238700,4.68323876953125,9.470774954357744,-0.5063325884602964,0.8948794861041008
1782816195102320600,4.703320556640625,9.407442007610202,-0.35421398153975603,1.1902552019670605
1782816195122402600,4.723402587890625,9.914197351527214,-0.2877367454171181,0.43689357992261646
1782816195142484700,4.743484619140625,9.997835419678687,-0.9056132076948881,-0.2257921842880547
1782816195162565600,4.763565673828125,9.418772964441775,-0.8912010898523032,-0.45174423531293867
1782816195182647000,4.78364697265625,6.783374191725254,0.09195084620565175,0.15962357572317123
1782816195202729000,4.80372900390625,2.7198101633280514,1.7410468176178633,0.5011231832489371
1782816195222811000,4.823810791015625,-2.839189991468191,3.5029818172246214,0.8153634663186967
1782816195242893000,4.84389306640625,-6.369977514985203,3.9568887835294007,1.2960479649119079
1782816195262975000,4.86397509765625,-7.480876563903689,2.7566911564797163,2.9078169529706237
1782816195283057000,4.884056884765625,-6.030972939145565,0.8092302242606878,3.35459538256973
1782816195303138000,4.904137939453125,-3.388860932525992,-0.24493191517442464,1.907697661629319
1782816195323220000,4.924219970703125,-3.5571640737891195,-3.31516938111037,1.8717825909003614
1782816195343302000,4.944302001953125,-6.18281126782,-4.50073467169553,-0.49497547427415844
1782816195363384000,4.964384033203125,-6.031831017279624,-2.0534636846527454,-3.446986081497371
1782816195383466000,4.984466064453125,-2.6615450213640925,0.5605526928171515,-2.2747978666186333
1782816195403548000,5.0045478515625,0.7656617161691188,1.8747024238698184,-1.3005959836050867
1782816195423628800,5.02462890625,-2.372868949270248,3.3659619952365754,-0.9407713225767016
1782816195443710700,5.044710693359375,-5.1000949418127535,3.1387197582706805,1.2680869219273327
1782816195463793000,5.06479296875,-3.0716315506428478,2.849341675387323,4.1208857520312066
1782816195483874800,5.084874755859375,0.40061552110016346,2.355769638170302,4.993818340873718
1782816195503956700,5.104956787109375,3.7665707943350073,1.1297855356961488,3.8259947509452696
1782816195524039000,5.125038818359375,5.1224055578202,0.17696020271033047,2.193148049674928
1782816195544119800,5.145119873046875,5.078609086191654,-0.33563027710095045,1.0455573926970363
1782816195564201700,5.16520166015625,5.256083375903963,-0.4247255146797746,0.8180386768773198
1782816195584284000,5.185283935546875,5.308290533003211,0.03719645230900496,1.1208937887102366
1782816195604365800,5.20536572265625,5.702538857159018,1.026608508207649,1.284605218268931
1782816195624447700,5.22544775390625,2.470124039363861,1.660053272625804,1.415339676377177
1782816195644530000,5.245530029296875,-1.0086375288397074,2.4335125108033417,1.3548179876580833
1782816195664610800,5.26561083984375,-4.5981513820916415,3.3040859692990776,0.3717296183556318
1782816195684692700,5.285692626953125,-7.8820473807990545,3.7607685377970337,-0.5050464941725135
1782816195704775000,5.30577490234375,-6.649384238952398,3.5315967940732835,-1.3257099665954708
1782816195724856800,5.32585693359375,-2.989288782998919,0.18285627501159904,-0.49503619148544964
1782816195744938800,5.345938720703125,-0.6320476109713316,-1.465530817478895,-0.6147872640907764
1782816195765021000,5.36602099609375,-2.608506674137711,-3.8748715945780274,1.6901903444752095
1782816195785102800,5.386102783203125,-9.372385891798139,-2.9051152927964923,0.8352762274041772
1782816195805184000,5.40618408203125,-14.321656065893173,1.7168839978724717,-1.281693422475457
1782816195825266000,5.426265869140625,-13.14006844676733,5.150470791831612,-0.7023389254894107
1782816195845347800,5.446347900390625,-7.087496254754066,5.1099014655560255,0.4980328160181641
1782816195865429800,5.4664296875,-0.5884843635767698,3.4955502059191463,0.28809308457411825
1782816195885512000,5.486511962890625,2.5336399414628743,2.5778666212022303,-0.2854609825048596
1782816195905592800,5.5065927734375,3.2725176956027746,3.096199005666375,-0.6665930007822811
1782816195925675000,5.526675048828125,3.513495612454414,3.873011645925045,-0.4530535643458366
1782816195945757000,5.5467568359375,4.5162575272589915,4.193049070966244,-0.4001683253219351
1782816195965838800,5.5668388671875,6.113163146576285,4.1848423836350435,-0.25141327655036
1782816195985921000,5.586921142578125,7.700795326113701,3.8818697829023003,-0.40801169576607643
1782816196006003000,5.6070029296875,8.503999129691719,3.8348464581817385,0.012525683041475713
1782816196026084900,5.6270849609375,8.457141516926884,4.177393236672878,0.7520181715462356
1782816196046166000,5.647166015625,7.108771682494878,4.477688142628968,1.4301651973262428
1782816196066248000,5.667248046875,5.740371451947093,4.079368915772438,1.4503934541016816
1782816196086329900,5.687329833984375,3.2276386894345284,2.484131229667365,1.5539467675566672
1782816196106412000,5.707412109375,-0.09360299732685089,1.599593250966072,1.221058628770709
1782816196126494000,5.727493896484375,-2.0448457861721514,0.634461978636682,1.4549993404619395
1782816196146576000,5.747575927734375,-0.39468320844173427,-2.1440292139798403,3.5534450532659885
1782816196166657000,5.767656982421875,0.29711773722469803,-6.3726820977687835,8.17038618376255
1782816196186739200,5.7877392578125,-6.093847036209702,-6.009447920557856,9.989924500423669
1782816196206821000,5.807821044921875,-10.350414347362518,-6.413392878341674,8.098673531204462
1782816196226903300,5.8279033203125,-10.632302366751432,-6.1478983598709105,4.248999506247043
1782816196246985200,5.847985107421875,-11.556716721028089,-0.37400633111596104,1.023446390914917
1782816196267067100,5.868067138671875,-8.307327387556434,3.462478541922569,-2.151311187681556
1782816196287148300,5.888148193359375,-4.182777852320671,5.369998508897424,-3.0864068027094005
1782816196307230200,5.908230224609375,-0.3801654382675886,5.8324354031383985,-2.230060168617219
1782816196327312100,5.92831201171875,2.264361228278279,5.195158074820041,-2.706151640331745
1782816196347394300,5.948394287109375,2.508610129624605,4.76050233695209,-3.8711464365750548
1782816196367476200,5.968476318359375,2.66932676128149,4.683170675468444,-4.471991684553027
1782816196387558100,5.98855810546875,3.4551802016079423,4.199935031087696,-3.8189983161866663
1782816196407640300,6.008640380859375,5.5422892584919925,3.9346600005865096,-2.233214833255857
1782816196427721200,6.02872119140625,7.341132577648758,3.3948750782489774,-0.689541549367085
1782816196447803100,6.04880322265625,8.795466293808817,2.5749253070533276,-0.3506835789239034
1782816196467885300,6.06888525390625,8.064107829257845,2.4672151661798356,0.5538289009874686
1782816196487967200,6.08896728515625,5.588216312408447,3.491490993656218,1.8487392767041921
1782816196508049200,6.109049072265625,1.250893210542202,5.069716170161962,3.3697663559556004
1782816196528131300,6.12913134765625,1.276100132513046,5.359948239526152,2.7243869697242973
1782816196548213200,6.149213134765625,2.4261083720266816,3.8496173263341187,2.82153947622627
1782816196568294100,6.169294189453125,0.5423667555242777,2.54101485414505,3.1261370478123425
1782816196588376000,6.1893759765625,-3.028635289481282,1.7145047015205024,2.7843329043820497
1782816196608458200,6.209458251953125,-7.075297282916307,0.6915063466340303,2.8518267702013254
1782816196628540200,6.2295400390625,-5.93737695608139,0.9038232555381953,0.9378275242097676
1782816196648622300,6.249622314453125,-5.196376802960038,-1.946283851263672,1.5133730573669075
1782816196668704300,6.269704345703125,-6.235491887649894,-1.808904694443941,0.6177308432620018
1782816196688785200,6.28978515625,-9.472786878702044,1.2121381671469658,-1.4517970372892914
1782816196708867000,6.3098671875,-13.776783465027808,4.511099706104398,-2.649320622824132
1782816196728949000,6.329948974609375,-9.638207158005237,4.584186861886084,-1.527339038877189
1782816196749031200,6.35003125,-3.1802818949759004,2.089497559455782,-2.4303486399449405
1782816196769113000,6.370113037109375,0.6544388909995555,-0.08597926098275929,-4.871508889022469
1782816196789195000,6.390195068359375,2.0558026489943266,-1.2740969759970904,-5.083627791136503
1782816196809276200,6.410276123046875,4.140080866366625,-1.102753005733341,-2.9602129106402395
1782816196829358000,6.430358154296875,6.253059693044424,-0.42690822901371867,-0.8647421219937503
1782816196849440000,6.45043994140625,8.24175922910273,0.05670220349617302,0.3923771234564483
1782816196869522200,6.470522216796875,9.713152801135182,-0.0732275871656835,1.133776651158929
1782816196889604000,6.49060400390625,10.488238763731717,-0.21896832961738108,1.053682977616042
1782816196909686000,6.51068603515625,10.486130977797508,-0.46334845612794157,0.9943091437578201
1782816196929768200,6.530768310546875,8.971706657811998,-0.20074483679309485,0.8199186454050242
1782816196949849000,6.55084912109375,7.29814099266231,0.8683033216066658,1.1781216965809465
1782816196969931000,6.570930908203125,4.941200849407911,1.8289371363863347,2.513549924114346
1782816196990013200,6.59101318359375,2.8160487698554992,1.5165240687437354,2.5455437297463415
1782816197010095000,6.61109521484375,-4.548385772925615,0.72607467892915,0.8935361086711286
1782816197030177000,6.631177001953125,-13.596292457842827,-0.9942875164479017,1.9434364990085362
1782816197050259200,6.65125927734375,-17.592161252629754,2.168197586683184,1.6314789200484752
1782816197070340000,6.671340087890625,-14.97275499881506,2.3635005246832965,3.753311499789357
1782816197090422300,6.69142236328125,-13.797339930844306,1.9957355721749364,1.3448907601445912
1782816197110504200,6.711504150390625,-16.752764438164235,2.78972219620496,0.2284513204947114
1782816197130586000,6.731586181640625,-14.504742350268364,4.840397126922011,0.3503078409466892
1782816197150668000,6.75166796875,-7.441917010912299,4.474915463045239,0.9054841744877398
1782816197170750200,6.771750244140625,-0.3858259482473135,3.5951509823560714,-0.41160672458335756
1782816197190830800,6.791830810546875,4.449371271944046,3.1368817291885613,-0.671014835812524
1782816197210913000,6.8119130859375,7.690938533487915,2.7191122441917654,-0.7751857697091996
1782816197230995000,6.831994873046875,9.41167628417909,2.390113514059782,-0.35476376090962436
1782816197251076900,6.852076904296875,10.181162527072429,1.5646046474322677,-0.05732902102447115
1782816197271159000,6.872158935546875,10.602455510020256,0.8382023439839482,-0.6847833219893277
1782816197291241000,6.892240966796875,11.412994478791951,0.2387836216777563,-1.1691967049125582
1782816197311321900,6.91232177734375,12.009192777746915,0.40901524678543205,-0.8219226056385784
1782816197331404000,6.932404052734375,11.277851848852634,1.0133201336979865,-0.4042302409986034
1782816197351486000,6.95248583984375,8.653507554113864,2.2012762649424373,0.38500228383950885
1782816197371567900,6.97256787109375,5.698907222658395,2.700750658071041,-0.16778130934610963
1782816197391650000,6.992650146484375,1.9456670345395801,2.5678864944577215,-0.7613606579743325
1782816197411732000,7.01273193359375,-4.514505130633712,2.046659849856794,-1.4005012959465384
1782816197431813000,7.032813232421875,-11.142405267530679,0.956155061930418,-1.8438373300068078
1782816197451895000,7.05289501953125,-11.557325792837142,-0.9661278821513056,-0.41104499904736874
1782816197471977000,7.07297705078125,-9.534962472108006,1.5389537810862064,-2.91132992952764
1782816197492059000,7.093058837890625,-12.55507192530632,0.9792316938742994,0.22020872159991411
1782816197512141000,7.11314111328125,-13.829734133970737,0.5518269500479102,-0.7529634165070951
1782816197532223000,7.133222900390625,-13.69649236921668,0.7314294839605688,-3.095474783045053
1782816197552304000,7.15330419921875,-10.208754298353195,1.3809841100499034,-2.0583764450050888
1782816197572386000,7.173385986328125,-3.9152883606404063,1.4484952192649245,-0.5390537585187704
1782816197592468000,7.193468017578125,2.471308865234256,0.5941746841728687,-0.28077202097103
1782816197612550100,7.213550048828125,7.027739997449517,-0.4272591978758573,-0.8749196710065007
1782816197632632000,7.233632080078125,8.898255637153982,-0.10641688619256019,-1.8339847751647234
1782816197652714000,7.2537138671875,8.636160113471746,0.6510182689011097,-1.8659965548448263
1782816197672795000,7.273794921875,9.68982628608346,1.4303826394692063,-1.0479311360910535
1782816197692876800,7.293876708984375,10.103290182840823,2.160382382887602,-0.4208172186622396
1782816197712958700,7.313958740234375,10.814336511725188,2.4684002843111754,-0.22519608155842868
1782816197733041000,7.334041015625,10.059438181632757,2.808867041657865,-0.2037074129257351
1782816197753122800,7.354122802734375,7.425581962183117,3.119384650942683,-0.49527942565679545
1782816197773204000,7.374203857421875,1.3484417306244372,1.9755609452828764,-1.1645089124225079
1782816197793286000,7.394285888671875,-6.2268964932620525,0.9280252382501959,-1.6892343589246273
1782816197813367800,7.414367919921875,-9.234134189927577,-0.03662263447642326,-0.48756585560478266
1782816197833449700,7.43444970703125,-8.487164899268747,-0.9835206232398748,0.4983719848446548
1782816197853532000,7.454531982421875,-3.9816286725103853,-0.2787988212019205,0.8583720024399459
1782816197873613800,7.47461376953125,-1.7209984474539757,-1.5314190016672014,2.018645615380257
1782816197893695000,7.494695068359375,-5.679425108075142,-0.9968202497959137,0.16081786354165523
1782816197913777000,7.51477685546875,-13.341038762879371,2.3377248629137872,-0.9719414638008922
1782816197933858800,7.53485888671875,-11.101701501220465,4.104422693008185,-0.09502846355270594
1782816197953941000,7.55494091796875,-4.448783242923021,3.165528270219266,-0.7688716181263328
1782816197974023000,7.57502294921875,0.6995721641898155,2.1349349301591514,-1.5096661656729875
1782816197994103800,7.595103759765625,4.3066912322372195,1.6029884463623165,-1.3349024500936268
1782816198014186000,7.61518603515625,6.998097723379731,1.2051435590192674,-1.1861655215006321
1782816198034268000,7.635267822265625,8.238371924751997,1.0960817112758756,-0.9734371091861277
1782816198054349800,7.655349853515625,9.1009672439754,0.869769740897417,0.4659913718521595
1782816198074432000,7.675431884765625,10.638130049991608,2.0234537463143467,0.7014658689819276
1782816198094513000,7.695512939453125,10.309147101950645,2.4374428359895943,1.2929589128553867
1782816198114594800,7.7155947265625,8.774502416235208,2.540500182621181,-1.0700151768010109
1782816198134677000,7.735677001953125,2.6429975572824476,0.6857751095056533,-4.469245600715279
1782816198154759000,7.755759033203125,-6.052182900434732,-2.3413990213818847,-0.5460660484336316
1782816198174840800,7.7758408203125,-9.369197909411788,-1.1764711528949439,0.41234314909912645
1782816198194923500,7.795923583984375,-7.0695590315252534,3.062435267752409,-3.7638703032046554
1782816198215004400,7.81600439453125,-4.6144028441905975,6.082919984003901,-5.160591788351535
1782816198235086300,7.83608642578125,-6.667603786253928,3.440999408303201,-3.339459188236296
1782816198255168500,7.85616845703125,-7.073157348278165,2.0804969452679156,-1.436144271735847
1782816198275250400,7.87625048828125,-4.542174643325805,2.3972673313371837,-0.29001236219890414
1782816198295332400,7.896332275390625,1.4638006326854227,1.4367141805782913,-0.0071741431128000835
1782816198315413500,7.91641357421875,3.3870693729341026,0.2093646715024486,-0.8406367315240204
1782816198335495400,7.936495361328125,1.8287363531172274,-0.3736962057208642,-0.22216931761577724
1782816198355577300,7.956577392578125,1.0245406158924102,-0.2778394015852362,-0.155355469949916
1782816198375659500,7.976659423828125,0.5052367560476064,-0.36869602281339464,-0.7916289549879729
1782816198395741400,7.996741455078125,0.1463046599447727,-1.7170977867536246,-0.5062593770936131
1782816198415822600,8.016822509765625,2.094898395586014,-1.5666913905784488,-1.4581199567005036
1782816198435904500,8.036904541015625,2.0985206777364014,-1.5712002463050185,-0.7466470729671418
1782816198455986400,8.056986328125,-0.7938859401345253,-0.14224077150672673,-1.3771720044158398
1782816198476068600,8.077068603515626,-4.0510944229245185,0.7976801447857171,-2.4214272284731266
1782816198496150500,8.097150634765624,-3.306478417393565,1.2428021124146877,-2.5283620010599495
1782816198516231400,8.1172314453125,-0.5352794276118278,0.609368819238618,-1.3459991597779095
1782816198536313600,8.137313720703125,1.5547516541987656,-0.6871752586271613,-0.8712624636732041
1782816198556395500,8.1573955078125,1.462632757949829,-1.26865639237836,-1.0539543419033288
1782816198576477400,8.1774775390625,1.499554083111882,-0.8265363830443471,-1.0794921032637357
1782816198596559600,8.1975595703125,1.6235148093014955,-0.501726190643385,-0.9053807141132653
1782816198616640500,8.217640625,0.7208084289640188,-0.4735794158283621,-0.8447082918118685
1782816198636722700,8.23772265625,-0.6626613604217767,-0.4068181751325726,-0.3739912431446835
1782816198656804600,8.2578046875,-0.2514361825019121,-0.09194894650951027,-0.1304937629538588
1782816198676886500,8.277886474609375,0.7766343610823154,-0.7003253937099129,0.6026461233874782
1782816198696968400,8.297968505859375,1.1074994696080684,-0.8659870805535465,0.32796522236578163
1782816198717049600,8.318049560546875,0.13894728291928768,-0.7156499502222985,0.14704813525583593
1782816198737131500,8.338131591796875,-1.2420295206069945,-0.3466690460529178,0.47632761855795974
1782816198757213700,8.358213623046876,-1.470311037492752,0.04027870929855853,0.9478590888805687
1782816198777295600,8.378295654296876,-1.690735995659232,0.033930801576562225,1.247006432236731
1782816198797376500,8.39837646484375,-1.36910107229352,-0.03119370476286858,1.156650454007089
1782816198817458700,8.418458740234374,-0.9957628496974706,-0.05988474252242595,1.0810294688988475
1782816198837540600,8.43854052734375,-0.5352502015173435,-0.06366718367058784,0.9009463118623942
1782816198857622500,8.45862255859375,-0.39920273169279097,-0.15610986851379274,0.6733679017446935
1782816198877704700,8.47870458984375,-0.8698585882246493,-0.18984730294272303,0.44869737843032925
1782816198897785300,8.498785400390625,-0.7356745741844177,0.11354871083386242,0.5650140196075663
1782816198917867500,8.518867431640626,0.3845610428780317,-0.009341098188608885,0.7339286072999238
1782816198937949400,8.538949462890624,1.4392097967863082,-0.2448406566943973,0.11478583314707502
1782816198958031600,8.559031494140624,2.0830869617611167,-0.3099506230518222,-0.49638577946349977
1782816198978113500,8.579113525390625,2.3283014932692048,0.02111760683059692,-0.6319399128131568
1782816198998194400,8.5991943359375,3.3427538458675143,0.5803482572637498,-0.9615959378100931
1782816199018276400,8.6192763671875,4.374840054833888,0.8070248231709003,-1.878134005753696
1782816199038358500,8.639358642578125,3.2070594272643325,0.5921485851727426,-2.6809076012209054
1782816199058440400,8.6594404296875,1.1823498356699942,0.41750966501682996,-3.5566187148660418
1782816199078522400,8.6795224609375,-0.3096440413206816,-0.38019086496978993,-2.659061680115759
1782816199098603500,8.699603515625,-1.6417267578184604,-2.446792555876076,-0.4946437581017613
1782816199118685400,8.719685546875,-3.1978216433197257,-4.249470630890131,0.8868732897810637
1782816199138767400,8.739767333984375,-5.733570539760589,-2.185848101925105,1.0365050483219325
1782816199158849500,8.759849609375,-8.045234201961755,-1.417191003332287,0.6766490423072129
1782816199178930000,8.779929931640625,-8.775040760895608,-1.9722069586798547,0.9852350259423255
1782816199199012000,8.80001220703125,-6.7288260244578115,-2.3435920013815164,0.436625503570959
1782816199219094000,8.820093994140626,-2.1033675332456827,-1.9402974703304467,-0.2480967906798236
1782816199239176000,8.840176025390624,0.43589843140542506,-1.306423666845262,-1.8044288642041384
1782816199259258000,8.860258056640625,-0.6983727252721786,0.02249740728382021,-2.682980608102679
1782816199279339000,8.880339111328125,-0.7987883252233267,1.3262716921314597,-0.95310181183964
1782816199299421200,8.900421142578125,1.790291763910651,0.38881943097487087,0.48124158448670057
1782816199319503000,8.920503173828125,4.673792606270313,-1.1446357526950537,-0.48647396871484816
1782816199339585000,8.9405849609375,6.078959848201275,-1.7263501837454736,-0.3386760014723986
1782816199359667000,8.9606669921875,6.634588236358762,-1.8498491376422344,-0.7799210546027868
1782816199379748000,8.980748046875,6.081410163962841,-1.6200453796252607,-0.1912648415904492
1782816199399830000,9.000830078125,4.817890696081519,-0.8657644507788121,0.8030699480652809
1782816199419912200,9.020912109375,4.5001270611912005,0.17951368658542632,1.5277173706702887
1782816199439994000,9.040994140625,4.786322422385216,1.5498174126669764,0.8940846093993633
1782816199460075300,9.0610751953125,3.9073002844959497,4.362669140046835,-0.2796427246801555
1782816199480157200,9.0811572265625,2.6933172931998968,4.861586629945039,-0.11860869763717055
1782816199500239000,9.101239013671876,1.686849509614706,3.2038258521705862,1.777669598224759
1782816199520321000,9.121321044921874,-0.01421791044473648,3.021639731505513,2.066138165047765
1782816199540403200,9.1414033203125,-4.29354299685061,2.004192581005394,2.5054390983730555
1782816199560484000,9.161484130859375,-4.571676632142067,-0.1920214321114123,2.1096581578224898
1782816199580566300,9.181566162109375,-1.671442681646347,-1.1243322387263177,-0.8181935751780867
1782816199600648200,9.201648193359375,-2.289408575773239,-2.00019035962671,-1.7286705895170569
1782816199620730000,9.221730224609376,-5.34281298032999,-2.0072421778343617,-1.5445274895653127
1782816199640811000,9.24181103515625,-6.028086570054293,-0.39292774307653305,-0.43222997202575203
1782816199660893000,9.261892822265626,-3.0076936237394807,0.122400345005095,0.6006080782212316
1782816199680974800,9.281974853515624,-1.6726812835305929,-1.1804055697344242,1.4145631390467286
1782816199701057300,9.302057373046875,-0.5554693982034922,-1.6341455089092254,0.9418441394399851
1782816199721139200,9.32213916015625,0.2047504191726446,-1.2008246729068457,0.3715418041659519
1782816199741220000,9.34222021484375,0.26839900774061676,-0.8051042303718626,0.20604378345143048
1782816199761302000,9.362302001953125,-1.2158622291713952,0.06765490159988403,-0.2603041467534378
1782816199781384000,9.382384033203126,-1.3797042993724344,0.574318329449743,-0.30942057129573075
1782816199801466000,9.402466064453124,0.4141419421494007,0.28924671158865095,-0.21374400083152575
1782816199821547000,9.422547119140624,2.0803549064487217,-0.026076836673170328,-0.5399859613349661
1782816199841629000,9.44262890625,2.392440495702624,-0.02489654084742069,-0.3767629728803411
1782816199861711000,9.462711181640625,1.9513304671287535,0.15654942897483706,0.02019340465776622
1782816199881793000,9.48279296875,1.9802496876209974,0.32410978904664517,0.20129682638635857
1782816199901874200,9.502874267578125,2.057019623568654,0.2593260589689016,0.11875917549114674
1782816199921956000,9.5229560546875,1.9278923083961008,0.15196911544725297,0.03273903450872749
1782816199942038000,9.5430380859375,1.2068880645990372,0.01070508001819253,-0.06852585748182609
1782816199962120000,9.563119873046874,0.7396955002635717,-0.14713190454915165,-0.4442761279219761
1782816199982202000,9.5832021484375,0.173527597913146,-0.4216157851614058,-1.2465709634289144
1782816200002283000,9.603282958984375,-1.2434054851353167,-0.05317965539321303,-1.1917319234561174
1782816200022365200,9.623365234375,-1.7378028672605752,0.44051206268072124,-0.7780003156732768
1782816200042447000,9.643447021484375,-1.417826232495904,0.5608711111165583,-0.5655431215155869
1782816200062529000,9.663529052734376,-0.9742027597963809,0.31331834591925145,-0.617252631291002
1782816200082611200,9.683611083984376,-0.9382090708732604,0.17411036623716353,-0.3795683491572737
1782816200102693000,9.703693115234374,-1.0396119282960892,-0.052463616078346965,-0.19203465691916644
1782816200122774000,9.72377392578125,-0.16286533412337303,-0.848184954946488,-0.82469638120085
1782816200142856200,9.743856201171875,1.0682891567260027,-0.7661934849582612,-0.40689189795590935
1782816200162938000,9.763938232421875,1.615253761434555,-0.40194150900691744,0.4816628421060741
1782816200183021000,9.78402099609375,0.841889800325036,-0.022056056724488734,0.39281036377456036
1782816200203102000,9.80410205078125,-0.2023147164583206,0.016044541350007057,-0.3204303333489224
1782816200223184000,9.824183837890626,-0.6784428669214249,-0.09608882279321551,-0.7220170741014182
1782816200243265800,9.844265869140624,-0.519476878324151,-0.08019494196027517,-0.3420540996033698
1782816200263348000,9.864347900390625,0.03726385498940944,0.08172741222456097,0.14747618794217704
1782816200283428900,9.884428955078125,0.369094009155035,0.24236790990531443,0.6146086926534772
1782816200303510800,9.9045107421875,0.06741057144999504,0.3001154577359557,0.5597565009381622
1782816200323593000,9.924593017578125,-0.5834931311607361,0.21593641457557677,0.14659067381191998
1782816200343675000,9.9446748046875,-0.7671995932608843,0.15392930960431694,-0.10280457744691521
1782816200363756800,9.9647568359375,-0.4334165514618158,0.15479016421735287,0.09652969842851161
1782816200383838000,9.984837890625,0.022854221364855765,0.041014878086000676,0.11818904745299369
1782816200403920000,10.004919921875,0.08026713041365147,-0.06680033059716224,0.06389624318610876
1782816200424002000,10.025001953125,0.10306231506764889,-0.2044390151359141,-0.23912607843987643
1782816200444084000,10.045083984375,0.3577425940573215,-0.3118685855023563,-0.31309451056811954
1782816200464164900,10.065164794921875,0.44777533168196676,-0.37347836171910165,-0.42613797529358416
1782816200484247000,10.0852470703125,0.37864217422306534,-0.43837665808722376,-0.5695470964599401
1782816200504329000,10.105328857421876,0.08008592862784862,-0.36465281183719633,-0.48620450412370264
1782816200524411000,10.125410888671874,-0.08440086921751498,-0.1748918720036745,-0.2623153404453769
1782816200544493000,10.1454931640625,-0.3283072407364845,-0.091390874235332,-0.2403108312450349
1782816200564574000,10.165573974609375,-0.36218203780949115,-0.16464841814786194,-0.4184470919974148
1782816200584656100,10.18565625,-0.09688625678122043,-0.2574422910489142,-0.4281649145439267
1782816200604738000,10.205738037109375,0.35612580651044845,-0.3914617621771991,-0.4101870670437813
1782816200624820000,10.225820068359376,1.1256892062932253,-0.38106604036912317,-0.07439217396564782
1782816200644901000,10.245901123046876,1.025121046128869,-0.46162060942202804,0.2227828464042395
1782816200664983000,10.265983154296874,0.6369073259621858,-0.41907472237646576,-0.05225136156715452
1782816200685065000,10.28606494140625,0.49236499951481816,-0.5119185718990862,-0.31614779719151553
