time,seconds_elapsed,z,y,x
1782816136241373200,0.076373291015625,0.17230793833732605,0.07220552861690521,-0.45961228013038635
1782816136261455400,0.096455322265625,0.1485081911087036,-0.07980943471193314,-0.5107024908065796
1782816136281537300,0.116537353515625,0.119771309196949,-0.030804840847849846,-0.6468122601509094
1782816136301619200,0.136619140625,-0.011501277796924114,-0.09938808530569077,-0.8340853452682495
1782816136321701400,0.156701416015625,-0.23824740946292877,-0.25269338488578796,-1.3104643821716309
1782816136341783300,0.176783203125,-0.15267492830753326,0.13253377377986908,-1.987682580947876
1782816136361865200,0.196865234375,0.11770316958427429,-0.0016488493420183659,-2.552304983139038
1782816136381947400,0.216947509765625,0.2924079895019531,-1.1267712116241455,-3.0644237995147705
1782816136402029300,0.237029296875,0.16142186522483826,-2.0894598960876465,-3.4141039848327637
1782816136422111200,0.257111328125,0.17647355794906616,-2.021803855895996,-2.8624701499938965
1782816136442193200,0.277193115234375,1.2953075170516968,-2.88563871383667,-1.9744030237197876
1782816136462275300,0.297275390625,1.7678985595703125,-3.6497557163238525,-1.1820048093795776
1782816136482357200,0.317357177734375,1.3286956548690796,-2.332397937774658,-0.6325867176055908
1782816136502439200,0.337439208984375,0.9399535059928894,-0.774474561214447,-0.572888970375061
1782816136522522000,0.357522216796875,0.11566012352705002,0.6770948767662048,-0.7213889360427856
1782816136542604300,0.377604248046875,-0.6513651013374329,2.2231132984161377,-0.39552393555641174
1782816136562686200,0.397686279296875,-0.4672411382198334,2.012195110321045,0.502873957157135
1782816136582768000,0.41776806640625,0.29696789383888245,1.4061219692230225,1.419124722480774
1782816136602850300,0.437850341796875,0.4506165087223053,0.7897806167602539,2.0881083011627197
1782816136622932200,0.45793212890625,0.21199390292167664,0.6185517311096191,2.1406490802764893
1782816136643014100,0.47801416015625,-0.028838900849223137,0.9652697443962097,1.7834585905075073
1782816136663096000,0.498095947265625,-0.18231959640979767,0.888940691947937,1.2700214385986328
1782816136683178200,0.51817822265625,-0.1459965854883194,0.2891868054866791,0.9109414219856262
1782816136703260200,0.53826025390625,-0.24260124564170837,-0.526502251625061,0.7476866841316223
1782816136723342000,0.558342041015625,-0.444763720035553,-1.0502654314041138,0.5039125680923462
1782816136743424300,0.57842431640625,-0.4616195857524872,-1.1171433925628662,0.43687930703163147
1782816136763506200,0.598506103515625,-0.34537357091903687,-0.6718146800994873,0.546581506729126
1782816136783588000,0.618588134765625,-0.19140605628490448,-0.15261657536029816,0.7387901544570923
1782816136803670300,0.638670166015625,-0.13610908389091492,0.13978353142738342,0.801139235496521
1782816136823752200,0.658752197265625,-0.15531446039676666,0.16688720881938934,0.77325040102005
1782816136843834000,0.678834228515625,-0.2113076150417328,0.048291563987731934,0.761715292930603
1782816136863916000,0.698916015625,-0.2823271155357361,-0.07385659217834473,0.7582626938819885
1782816136883998200,0.718998291015625,-0.24309711158275604,-0.12509438395500183,0.6735662817955017
1782816136904080100,0.739080078125,-0.12370727211236954,-0.1232793927192688,0.5523024797439575
1782816136924163000,0.7591630859375,-0.061052676290273666,-0.14340567588806152,0.4596666395664215
1782816136944245000,0.779244873046875,-0.0610802099108696,-0.29949870705604553,0.37950408458709717
1782816136964327200,0.7993271484375,-0.025140557438135147,-0.5694026947021484,0.2383257895708084
1782816136984409000,0.8194091796875,-0.02670535445213318,-0.6515730023384094,0.1345311552286148
1782816137004491000,0.839490966796875,0.004131860565394163,-0.5282006859779358,0.17511869966983795
1782816137024573200,0.8595732421875,-0.04539550840854645,-0.2796880304813385,0.3860699236392975
1782816137044655400,0.8796552734375,-0.07767119258642197,0.07122032344341278,0.4419652223587036
1782816137064737300,0.8997373046875,0.07296288758516312,0.22833558917045593,0.31165385246276855
1782816137084819200,0.919819091796875,0.12741366028785706,0.09668352454900742,0.11174169182777405
1782816137104901400,0.9399013671875,0.1271873116493225,-0.08689376711845398,-0.15358611941337585
1782816137124982500,0.959982421875,-0.022166933864355087,-0.33102744817733765,-0.5391868352890015
1782816137145064700,0.980064697265625,-0.17100030183792114,-0.4676606059074402,-0.7290632128715515
1782816137165146600,1.000146728515625,-0.25018492341041565,-0.7930396199226379,-0.6051952838897705
1782816137185228500,1.020228515625,-0.12123042345046997,-0.5520281791687012,-0.2291632890701294
1782816137205310500,1.040310546875,-0.10496219992637634,-0.1618259698152542,-0.031118182465434074
1782816137225392600,1.060392578125,-0.25964242219924927,0.4167199432849884,-0.007487080059945583
1782816137245474600,1.080474609375,-0.2076016366481781,1.1661700010299683,-0.2523632347583771
1782816137265556500,1.100556396484375,0.049498412758111954,2.150782346725464,-0.5123279094696045
1782816137285638700,1.120638671875,0.3112404942512512,2.6272552013397217,-0.44500818848609924
1782816137305720600,1.140720458984375,0.28946977853775024,1.7783753871917725,-0.21252892911434174
1782816137325802500,1.160802490234375,0.11940572410821915,-0.02074519544839859,-0.060749221593141556
1782816137345884700,1.180884765625,0.1062593013048172,-0.8950675129890442,0.11080048233270645
1782816137365966600,1.200966552734375,0.46058008074760437,-0.2273750603199005,0.19739285111427307
1782816137386049500,1.221049560546875,1.0370967388153076,0.9662655591964722,-0.057171858847141266
1782816137406131500,1.24113134765625,1.4310330152511597,1.2717596292495728,-0.7019290924072266
1782816137426213600,1.261213623046875,1.2837791442871094,0.1946917027235031,-1.1962045431137085
1782816137446295800,1.2812958984375,1.1080318689346313,-0.838607668876648,-0.9912156462669373
1782816137466377700,1.301377685546875,1.1041607856750488,-1.025374412536621,-0.28002944588661194
1782816137486459600,1.321459716796875,1.1651707887649536,-0.7219447493553162,0.661444365978241
1782816137506541800,1.341541748046875,1.058754801750183,-0.5173183083534241,1.5147700309753418
1782816137526623700,1.361623779296875,0.8000369668006897,-0.4657984972000122,1.8622463941574097
1782816137546705700,1.38170556640625,0.5944562554359436,-0.49395954608917236,1.637810230255127
1782816137566787800,1.401787841796875,0.4043298363685608,-0.4191143810749054,1.0294252634048462
1782816137586869800,1.421869873046875,0.19096796214580536,-0.3506915867328644,0.3516457974910736
1782816137606951700,1.44195166015625,0.10023647546768188,-0.2639956772327423,-0.11299531161785126
1782816137627033600,1.46203369140625,0.02467886544764042,-0.19048528373241425,-0.11553201079368591
1782816137647115800,1.48211572265625,-0.05637044459581375,-0.14810049533843994,0.11335819959640503
1782816137667197700,1.50219775390625,-0.10278657078742981,-0.009045585989952087,0.24888522922992706
1782816137687279600,1.522279541015625,-0.15606120228767395,0.10242830216884613,0.29001009464263916
1782816137707361800,1.54236181640625,-0.34920915961265564,-0.09805318713188171,0.4602532386779785
1782816137727443700,1.562443603515625,-0.5559818744659424,-0.4256174564361572,0.12028088420629501
1782816137747525600,1.582525634765625,-0.6983531713485718,-1.1903595924377441,-0.5099483132362366
1782816137767607800,1.60260791015625,-0.5469347834587097,-1.2622873783111572,-0.773030698299408
1782816137787689700,1.622689697265625,-0.05380459874868393,-0.6385393142700195,-0.12646065652370453
1782816137807771600,1.642771728515625,0.30919426679611206,0.1318214237689972,0.11336352676153183
1782816137827853600,1.662853515625,0.27390819787979126,0.21261805295944214,-0.3646242916584015
1782816137847935700,1.682935791015625,-0.1315235197544098,0.24266348779201508,-1.0179076194763184
1782816137868017700,1.703017578125,-0.7240373492240906,1.4417685270309448,-1.8062059879302979
1782816137888100600,1.7231005859375,-0.6685925126075745,2.131770133972168,-1.3529820442199707
1782816137908182500,1.7431826171875,-0.6368164420127869,1.9932866096496582,-0.11570519208908081
1782816137928264700,1.7632646484375,-0.9205839037895203,1.40309739112854,0.8691020607948303
1782816137948346600,1.7833466796875,-0.8085731267929077,0.44670364260673523,1.0409636497497559
1782816137968428500,1.803428466796875,-0.2181731015443802,-0.5283342003822327,0.3686770796775818
1782816137988510700,1.8235107421875,0.18624946475028992,-1.2244610786437988,-0.16748173534870148
1782816138008592600,1.843592529296875,0.3130127787590027,-1.4387747049331665,-0.25922447443008423
1782816138028674600,1.863674560546875,0.4636898636817932,-1.122041940689087,-0.18024061620235443
1782816138048756500,1.883756591796875,0.5703384876251221,-0.5757021903991699,-0.15602149069309235
1782816138068838700,1.903838623046875,0.5597610473632812,-0.21139104664325714,-0.09739112108945847
1782816138088920600,1.923920654296875,0.4869878888130188,-0.025189120322465897,0.01634112372994423
1782816138109002500,1.94400244140625,0.34367164969444275,0.013147568330168724,0.21993307769298553
1782816138129084700,1.964084716796875,0.1682569980621338,-0.04026193171739578,0.46426674723625183
1782816138149166600,1.98416650390625,0.15878541767597198,-0.16060060262680054,0.46146726608276367
1782816138169248500,2.00424853515625,0.12361615151166916,-0.48232904076576233,0.4470616579055786
1782816138189330700,2.02433056640625,-0.1489744633436203,-1.0180392265319824,0.3647315502166748
1782816138209412600,2.04441259765625,-0.5419679880142212,-1.3887617588043213,0.11423773318529129
1782816138229494500,2.06449462890625,-0.7047001719474792,-1.3227465152740479,0.02817406691610813
1782816138249576400,2.084576416015625,0.06206012889742851,-0.2821933627128601,0.12262322008609772
1782816138269658600,2.10465869140625,0.5340990424156189,1.0961155891418457,0.5614959001541138
1782816138289740500,2.124740478515625,0.3005495071411133,2.123981237411499,0.5321031808853149
1782816138309822500,2.144822509765625,-0.07991724461317062,2.096147060394287,0.18075092136859894
1782816138329904600,2.164904541015625,-0.05835984647274017,1.7994123697280884,-0.33510416746139526
1782816138349986600,2.184986572265625,0.15518492460250854,1.6122162342071533,-1.0873621702194214
1782816138370068500,2.205068359375,-0.12027132511138916,1.3026963472366333,-0.6988562941551208
1782816138390151400,2.2251513671875,-0.42567771673202515,1.1964527368545532,0.05539441108703613
1782816138410233600,2.245233642578125,-0.6625837683677673,1.113053560256958,0.11895202845335007
1782816138430315500,2.2653154296875,-0.6834508776664734,0.5282252430915833,-0.3606038987636566
1782816138450397400,2.2853974609375,-0.48858803510665894,-0.3206983804702759,-0.7551334500312805
1782816138470479600,2.305479736328125,-0.4325934648513794,-1.2160590887069702,-0.7519887685775757
1782816138490561500,2.3255615234375,-0.8483681082725525,-1.7068899869918823,-0.5034092664718628
1782816138510643500,2.3456435546875,-1.2830383777618408,-1.7106350660324097,-0.24056850373744965
1782816138530725400,2.365725341796875,-1.2791095972061157,-1.451337456703186,-0.207708939909935
1782816138550807600,2.3858076171875,-0.9595993161201477,-1.0900530815124512,-0.3869549632072449
1782816138570889500,2.405889404296875,-0.6231541633605957,-0.8312920331954956,-0.5244956612586975
1782816138590971400,2.425971435546875,-0.439205527305603,-0.7328605055809021,-0.3974858820438385
1782816138611053600,2.446053466796875,-0.5207266807556152,-0.777313768863678,-0.1872326284646988
1782816138631135500,2.466135498046875,-0.6526125073432922,-0.9291220903396606,0.0035146288573741913
1782816138651217700,2.4862177734375,-0.8123558163642883,-0.949113667011261,0.37801462411880493
1782816138671299600,2.506299560546875,-0.8226010203361511,-0.7584019303321838,0.878658652305603
1782816138691381800,2.5263818359375,-0.8210201859474182,-0.47356387972831726,1.3187288045883179
1782816138711463700,2.546463623046875,-0.8473050594329834,-0.5883527994155884,1.4176088571548462
1782816138731545600,2.566545654296875,-0.41230273246765137,-0.29863879084587097,0.751623809337616
1782816138751627800,2.586627685546875,0.2700929045677185,-0.12516090273857117,0.33898183703422546
1782816138771709700,2.606709716796875,0.580046534538269,-0.4012986719608307,0.04049564152956009
1782816138791791600,2.62679150390625,0.3841273784637451,-0.9583818316459656,-0.27612581849098206
1782816138811873800,2.646873779296875,-0.17228072881698608,-0.8702360987663269,-0.22198054194450378
1782816138831955700,2.666955810546875,-0.4925217628479004,0.1815880984067917,0.29321467876434326
1782816138852037600,2.68703759765625,-0.08274463564157486,1.1332833766937256,0.9601948261260986
1782816138872119600,2.70711962890625,0.17732354998588562,0.7005217671394348,1.4242393970489502
1782816138892201700,2.72720166015625,-0.24293294548988342,-0.24909892678260803,1.5797897577285767
1782816138912283600,2.74728369140625,-0.6975648999214172,-0.41695109009742737,1.7854278087615967
1782816138932365600,2.767365478515625,-0.5157392621040344,0.20755036175251007,2.0838582515716553
1782816138952448500,2.787448486328125,0.06825802475214005,0.6567856073379517,2.0429446697235107
1782816138972530700,2.80753076171875,0.4683479070663452,0.704949140548706,1.6318904161453247
1782816138992612600,2.827612548828125,0.6947354078292847,0.5185348987579346,1.0460833311080933
1782816139012694500,2.847694580078125,0.879335343837738,0.38318514823913574,0.3146394193172455
1782816139032776700,2.867776611328125,1.1315282583236694,0.35687488317489624,-0.4811304211616516
1782816139052858600,2.887858642578125,1.2271177768707275,0.4464800953865051,-0.9750775098800659
1782816139072940500,2.9079404296875,1.2269299030303955,0.47774186730384827,-1.1101926565170288
1782816139093022500,2.9280224609375,1.1263586282730103,0.4044179618358612,-1.0926742553710938
1782816139113104600,2.948104736328125,1.0073561668395996,0.29031604528427124,-1.1197062730789185
1782816139133187000,2.96818701171875,0.9040404558181763,0.2624153196811676,-1.0919309854507446
1782816139153269000,2.98826904296875,0.7265803217887878,0.3506472706794739,-0.9512638449668884
1782816139173351200,3.00835107421875,0.41367924213409424,0.7538094520568848,-0.7405104041099548
1782816139193433000,3.02843310546875,-0.24577879905700684,0.8483902215957642,0.019879456609487534
1782816139213515000,3.048514892578125,-1.089158058166504,-0.25989875197410583,1.1923075914382935
1782816139233597000,3.068596923828125,-1.235243558883667,-0.45971018075942993,1.3475056886672974
1782816139253679000,3.08867919921875,-0.8241335153579712,-0.16423006355762482,0.7482059001922607
1782816139273761000,3.108760986328125,-0.4652613699436188,0.9614289402961731,-0.198093980550766
1782816139293843000,3.128843017578125,-0.007243804167956114,1.8176740407943726,-0.9799836277961731
1782816139313925000,3.148925048828125,0.5764800310134888,2.091881513595581,-1.809455156326294
1782816139334007000,3.169007080078125,1.0072776079177856,1.8562991619110107,-2.841414213180542
1782816139354089000,3.1890888671875,0.8406202793121338,1.1131471395492554,-3.2540242671966553
1782816139374171100,3.209171142578125,0.5773470997810364,0.7294537425041199,-3.2476532459259033
1782816139394253000,3.229253173828125,0.41424089670181274,0.5169489979743958,-2.981478691101074
1782816139414335000,3.2493349609375,-0.015115629881620407,0.21403534710407257,-2.3174242973327637
1782816139434417000,3.2694169921875,-0.7280673980712891,-0.47585901618003845,-1.03935706615448
1782816139454499000,3.2894990234375,-1.4027178287506104,-1.3096472024917603,0.40485095977783203
1782816139474581000,3.3095810546875,-1.617564082145691,-1.7644474506378174,1.3923639059066772
1782816139494663000,3.329662841796875,-1.297163963317871,-1.221495509147644,1.6143512725830078
1782816139514745000,3.3497451171875,-0.9446609616279602,-0.28677865862846375,1.3020069599151611
1782816139534827000,3.369826904296875,-0.8392581939697266,0.35930877923965454,0.7821120023727417
1782816139554910000,3.389909912109375,-0.8439605832099915,0.6091912388801575,0.2894790768623352
1782816139574992000,3.409991943359375,-0.7092734575271606,0.47355830669403076,-0.19772087037563324
1782816139595074000,3.430073974609375,-0.46455085277557373,0.25881415605545044,-0.7187115550041199
1782816139615156000,3.450156005859375,-0.33831116557121277,-0.14695246517658234,-0.9046915173530579
1782816139635238000,3.47023779296875,-0.3312934935092926,-0.40912431478500366,-0.7348815202713013
1782816139655319800,3.49031982421875,-0.19797900319099426,-0.43935301899909973,-0.2747812569141388
1782816139675402000,3.510402099609375,-0.15070556104183197,-0.8581423163414001,0.485310435295105
1782816139695484000,3.53048388671875,-0.28857290744781494,-1.4302728176116943,1.0802342891693115
1782816139715565800,3.55056591796875,-0.08064629137516022,-0.8550616502761841,1.19918954372406
1782816139735648000,3.57064794921875,0.38814476132392883,0.03535298630595207,1.0088473558425903
1782816139755730000,3.59072998046875,0.2691837251186371,0.35669195652008057,0.577800989151001
1782816139775811800,3.610811767578125,-0.032155513763427734,0.8085575103759766,0.07211225479841232
1782816139795894000,3.63089404296875,0.0007484162342734635,1.6118897199630737,-0.4005637764930725
1782816139815976000,3.650975830078125,0.12850068509578705,2.0987491607666016,-0.7066259384155273
1782816139836057900,3.671057861328125,0.20182059705257416,2.0790867805480957,-1.1489951610565186
1782816139856139800,3.691139892578125,0.04396817833185196,1.8211801052093506,-1.546116828918457
1782816139876222000,3.711221923828125,-0.20480279624462128,1.549283504486084,-1.5241564512252808
1782816139896303900,3.731303955078125,-0.19709257781505585,0.8684806823730469,-1.019919514656067
1782816139916385800,3.7513857421875,0.13352224230766296,-0.3941352367401123,-0.1663193553686142
1782816139936468000,3.771468017578125,0.5655429363250732,-1.4394304752349854,0.6848180294036865
1782816139956550000,3.7915498046875,0.7871017456054688,-1.646949291229248,1.1309694051742554
1782816139976631800,3.8116318359375,0.8542414903640747,-1.451988697052002,1.2552498579025269
1782816139996714200,3.83171435546875,0.8578567504882812,-1.2286577224731445,1.1722241640090942
1782816140016796200,3.851796142578125,0.8680395483970642,-0.9969950318336487,0.9292606711387634
1782816140036878000,3.871878173828125,0.9046447277069092,-0.8210135698318481,0.6511164307594299
1782816140056960000,3.8919599609375,0.8773062825202942,-0.6854614615440369,0.4786384701728821
1782816140077042200,3.912042236328125,0.7813476324081421,-0.6153593063354492,0.43947634100914
1782816140097124000,3.9321240234375,0.649803102016449,-0.5665991902351379,0.4364711344242096
1782816140117206000,3.9522060546875,0.5603698492050171,-0.43162673711776733,0.2506331503391266
1782816140137288000,3.972287841796875,0.4746072292327881,-0.1755063682794571,-0.13491542637348175
1782816140157369900,3.992369873046875,0.09950371831655502,-0.26267778873443604,-0.2673436105251312
1782816140177451800,4.01245166015625,-0.45395195484161377,-0.9887300133705139,0.03774416819214821
1782816140197534000,4.032533935546875,-0.7187119722366333,-1.3223642110824585,0.5066699385643005
1782816140217616000,4.052615966796875,-0.42707204818725586,-0.680182695388794,0.7462143898010254
1782816140237698800,4.07269873046875,-0.007186566479504108,0.842169463634491,0.5017850399017334
1782816140257780700,4.09278076171875,0.18329709768295288,1.8348368406295776,0.319261759519577
1782816140277863000,4.11286279296875,0.2700946629047394,2.238858222961426,0.4005487859249115
1782816140297944800,4.13294482421875,0.4075973331928253,2.5124130249023438,0.3170626163482666
1782816140318026800,4.15302685546875,0.6024882197380066,2.120751142501831,-0.024131763726472855
1782816140338108700,4.173108642578125,0.22430457174777985,1.4720646142959595,-0.23649172484874725
1782816140358190800,4.19319091796875,-0.5868232846260071,1.2248705625534058,-0.2848086357116699
1782816140378272800,4.213272705078125,-1.0646429061889648,1.2379943132400513,-0.22057576477527618
1782816140398354700,4.233354736328125,-0.9577410817146301,0.8973420858383179,-0.29572781920433044
1782816140418436900,4.253436767578125,-0.7360743880271912,0.4629792869091034,-0.2563345730304718
1782816140438518800,4.273518798828125,-0.7318256497383118,0.027364790439605713,0.06743526458740234
1782816140458600700,4.2936005859375,-0.8397558927536011,-0.3411187529563904,0.4456307291984558
1782816140478683000,4.313682861328125,-0.8726053237915039,-0.5844671130180359,0.40430572628974915
1782816140498764800,4.333764892578125,-0.7789913415908813,-0.6616828441619873,-0.14609874784946442
1782816140518846700,4.3538466796875,-0.7468975186347961,-0.6469681859016418,-0.6562739014625549
1782816140538928600,4.3739287109375,-0.49794507026672363,-0.7298365235328674,-0.8390581607818604
1782816140559010800,4.3940107421875,-0.15664780139923096,-0.7667850255966187,-0.821144163608551
1782816140579092700,4.4140927734375,0.012989453971385956,-1.1194730997085571,-0.6495474576950073
1782816140599174700,4.434174560546875,0.05204281955957413,-1.3354074954986572,-0.5112332105636597
1782816140619256800,4.4542568359375,0.05316029116511345,-1.0322020053863525,-0.32045382261276245
1782816140639338800,4.4743388671875,-0.5566314458847046,-1.4076660871505737,-0.8443744778633118
1782816140659420700,4.494420654296875,-1.2047202587127686,-1.6633491516113281,-1.0928280353546143
1782816140679502800,4.5145029296875,-0.08304540067911148,-1.261284351348877,-0.2752971649169922
1782816140699584800,4.534584716796875,1.2239471673965454,-0.4662826657295227,0.0743149071931839
1782816140719666700,4.554666748046875,1.378680944442749,-0.35953158140182495,0.21453066170215607
1782816140739748600,4.57474853515625,1.0802966356277466,-0.16699311137199402,0.021978162229061127
1782816140759830800,4.594830810546875,0.73198002576828,0.37074190378189087,0.2959315776824951
1782816140779913000,4.614912841796875,0.2200811356306076,1.541590929031372,0.9443651437759399
1782816140799995000,4.634994873046875,0.14236223697662354,2.3071482181549072,1.2030669450759888
1782816140820077000,4.6550771484375,0.35861465334892273,2.029872179031372,0.48421692848205566
1782816140840159000,4.675158935546875,0.22856248915195465,1.1319397687911987,-0.36109864711761475
1782816140860241000,4.695240966796875,0.025242343544960022,0.35657480359077454,-0.604951024055481
1782816140880322800,4.71532275390625,-0.10885708779096603,-0.15886099636554718,-0.3185098469257355
1782816140900405000,4.735405029296875,-0.1623256504535675,-0.4265825152397156,0.05855110287666321
1782816140920487000,4.75548681640625,-0.237018421292305,-0.6610255241394043,0.32128483057022095
1782816140940568800,4.77556884765625,-0.36965832114219666,-0.960275411605835,0.5644717812538147
1782816140960651000,4.795651123046875,-0.42832377552986145,-1.1843520402908325,0.746532142162323
1782816140980733000,4.81573291015625,-0.7060085535049438,-1.4004167318344116,0.7120358943939209
1782816141000814800,4.83581494140625,-0.7591162323951721,-1.4751789569854736,0.4259878993034363
1782816141020897800,4.855897705078125,-0.6342275142669678,-1.3499350547790527,0.1585943102836609
1782816141040980000,4.87597998046875,-0.4674812853336334,-1.3513298034667969,0.09281156212091446
1782816141061062000,4.896061767578125,-0.3135742247104645,-1.298642635345459,0.15966546535491943
1782816141081143800,4.916143798828125,-0.2738633453845978,-1.2079243659973145,0.24335409700870514
1782816141101225700,4.936225830078125,-0.23358134925365448,-0.8393763899803162,0.21740475296974182
1782816141121308000,4.956307861328125,-0.004479321651160717,0.11918004602193832,0.08256249129772186
1782816141141389800,4.976389892578125,0.13180233538150787,0.9168160557746887,-0.06471282243728638
1782816141161471700,4.9964716796875,-0.2566320598125458,0.2653726637363434,0.19645212590694427
1782816141181554000,5.016553955078125,-0.36350759863853455,0.2578983008861542,0.6872031092643738
1782816141201636000,5.036635986328125,-0.02115941420197487,1.0683718919754028,0.8340901732444763
1782816141221718000,5.056718017578125,0.3327189087867737,2.3496897220611572,0.34238243103027344
1782816141241800200,5.07680029296875,0.712653636932373,2.730952739715576,-0.30736109614372253
1782816141261882000,5.096882080078125,1.178666114807129,2.594097852706909,-1.074989914894104
1782816141281964000,5.116964111328125,1.6898059844970703,2.0033369064331055,-1.6171811819076538
1782816141302046000,5.1370458984375,1.3435444831848145,0.8851212859153748,-1.3975322246551514
1782816141322128100,5.157128173828125,0.512926459312439,-0.5798338651657104,-0.9579863548278809
1782816141342210000,5.1772099609375,0.022957297042012215,-1.8644424676895142,-0.5692349076271057
1782816141362292000,5.1972919921875,-0.0012217069743201137,-2.6607041358947754,-0.30940720438957214
1782816141382374100,5.2173740234375,0.01636066474020481,-3.041023015975952,0.053415704518556595
1782816141402456000,5.2374560546875,-0.3695361018180847,-2.9649951457977295,0.6314133405685425
1782816141422538000,5.2575380859375,-0.8731310367584229,-2.604658365249634,1.1773158311843872
1782816141442620200,5.2776201171875,-1.0808449983596802,-1.99666166305542,1.4330451488494873
1782816141462702000,5.2977021484375,-0.9127473831176758,-1.260581374168396,1.2982895374298096
1782816141482784000,5.317783935546875,-0.4657615125179291,-0.5279918909072876,0.8730021715164185
1782816141502866000,5.337865966796875,-0.13530705869197845,0.08222020417451859,0.36608371138572693
1782816141522948000,5.357947998046875,0.07917921990156174,0.39184993505477905,-0.02042016014456749
1782816141543030000,5.378030029296875,0.23824778199195862,0.4411066472530365,-0.2529079020023346
1782816141563112000,5.39811181640625,0.33484411239624023,0.2917247414588928,-0.39659902453422546
1782816141583194000,5.418194091796875,0.2902291715145111,0.11791304498910904,-0.46887949109077454
1782816141603276000,5.438276123046875,0.15402492880821228,0.15975745022296906,-0.5056775808334351
1782816141623358000,5.45835791015625,-0.19809773564338684,0.21921591460704803,-0.30664876103401184
1782816141643440000,5.478440185546875,-0.430397629737854,-0.06986913084983826,-0.08431223034858704
1782816141663522000,5.49852197265625,0.3938433527946472,0.5352509617805481,-0.4225306212902069
1782816141683604000,5.51860400390625,0.8131288290023804,0.6318636536598206,-0.5063213109970093
1782816141703686000,5.538685791015625,0.3546547591686249,0.2950243055820465,-0.6093670725822449
1782816141723768000,5.55876806640625,-0.05849013105034828,0.5322932004928589,-0.6874715685844421
1782816141743850000,5.57885009765625,-0.037603382021188736,1.7043159008026123,-0.568481981754303
1782816141763932000,5.598931884765625,0.16650794446468353,2.734234094619751,-0.6455232501029968
1782816141784014000,5.61901416015625,0.05415508896112442,2.915639638900757,-0.8717635273933411
1782816141804096000,5.639095947265625,0.008645129390060902,2.7219419479370117,-1.1441888809204102
1782816141824178000,5.659177978515625,-0.07762733101844788,2.67378568649292,-1.0832359790802002
1782816141844260000,5.679260009765625,-0.1670958548784256,2.3344125747680664,-0.49456509947776794
1782816141864342000,5.699342041015625,-0.10601911693811417,1.4019196033477783,0.3320853114128113
1782816141884424000,5.719423828125,-0.005730007775127888,0.2011912763118744,1.0416717529296875
1782816141904505900,5.739505859375,-0.00807375367730856,-0.7824735045433044,1.2917903661727905
1782816141924588000,5.759588134765625,-0.1462983787059784,-1.2213151454925537,1.0761362314224243
1782816141944670000,5.779669921875,-0.09159670025110245,-1.1928597688674927,0.6874614357948303
1782816141964752000,5.799751953125,0.23213809728622437,-0.8869014978408813,0.3914288580417633
1782816141984834000,5.819833984375,0.6894866228103638,-0.5745229125022888,0.37387600541114807
1782816142004916000,5.839916015625,0.9949984550476074,-0.48314169049263,0.5979598760604858
1782816142024998000,5.859997802734375,1.029911756515503,-0.6249068379402161,0.7459590435028076
1782816142045080000,5.880080078125,0.8401268720626831,-0.772792398929596,0.5285429954528809
1782816142065162000,5.900161865234375,0.6126843094825745,-0.8011311888694763,0.2714412808418274
1782816142085244000,5.920243896484375,0.023352008312940598,-1.1613099575042725,0.42024388909339905
1782816142105325800,5.940325927734375,-0.6713542342185974,-1.802147626876831,0.3132372498512268
1782816142125408500,5.960408447265625,-0.32617777585983276,-1.5230363607406616,-0.8487474322319031
1782816142145490400,5.980490478515625,0.2914276719093323,-1.1315478086471558,-1.4572715759277344
1782816142165572400,6.000572265625,-0.0931464284658432,-0.7298116087913513,-1.7879893779754639
1782816142185654500,6.020654541015625,-0.35886359214782715,-0.09011243283748627,-1.9954583644866943
1782816142205736400,6.040736328125,0.062031280249357224,0.66789710521698,-1.6644119024276733
1782816142225818400,6.060818359375,0.4603702127933502,1.084578037261963,-1.4381886720657349
1782816142245900300,6.080900390625,0.3601784408092499,0.5814071297645569,-1.4023088216781616
1782816142265982500,6.100982421875,0.008678079582750797,0.10138591378927231,-1.5541142225265503
1782816142286064400,6.121064453125,-0.36653339862823486,0.22098873555660248,-1.5315474271774292
1782816142306146300,6.141146240234375,-0.5406544208526611,0.31413260102272034,-1.0312044620513916
1782816142326228500,6.161228515625,-0.5450088381767273,-0.11870384961366653,-0.16283036768436432
1782816142346310700,6.181310546875,-0.7233498692512512,-0.7550126910209656,0.6025378108024597
1782816142366392600,6.201392578125,-1.3808820247650146,-1.1357264518737793,1.1226712465286255
1782816142386474500,6.221474609375,-2.1298489570617676,-1.0330544710159302,1.2133190631866455
1782816142406556700,6.241556640625,-2.2351629734039307,-0.8533079624176025,0.8697245717048645
1782816142426638600,6.261638671875,-1.6405322551727295,-0.7340986132621765,0.34831610321998596
1782816142446720500,6.281720458984375,-0.8181928992271423,-0.3583022952079773,-0.10580732673406601
1782816142466802700,6.301802734375,-0.04513650760054588,0.10768812149763107,-0.21479882299900055
1782816142486884600,6.321884521484375,0.41536441445350647,0.4423656761646271,0.10205962508916855
1782816142506966500,6.341966552734375,0.27393361926078796,0.5458734631538391,0.5894801020622253
1782816142527048700,6.362048583984375,-0.14050665497779846,0.7349547743797302,1.0237367153167725
1782816142547130600,6.382130615234375,-0.47028183937072754,0.8800696134567261,1.1401413679122925
1782816142567212500,6.402212646484375,-0.24571426212787628,1.1447408199310303,0.9964095950126648
1782816142587294500,6.42229443359375,0.21903099119663239,1.1584820747375488,0.9776699542999268
1782816142607376600,6.442376708984375,0.15060114860534668,1.2004369497299194,0.7041106224060059
1782816142627458600,6.46245849609375,-0.022308167070150375,1.2706483602523804,0.10960794985294342
1782816142647540500,6.48254052734375,0.13043415546417236,2.0756421089172363,-0.24910937249660492
1782816142667622700,6.50262255859375,0.43199077248573303,3.2675697803497314,-0.23067635297775269
1782816142687704600,6.52270458984375,0.6074998378753662,2.819612503051758,-0.039979126304388046
1782816142707786500,6.542786376953125,0.6724256277084351,1.4307290315628052,-0.040910299867391586
1782816142727868700,6.56286865234375,0.661562442779541,0.5064903497695923,-0.13189806044101715
1782816142747950600,6.58295068359375,0.7193726897239685,-0.021158305928111076,0.06192160025238991
1782816142768032500,6.603032470703125,0.9383313059806824,-0.6965323090553284,0.3909284174442291
1782816142788114400,6.623114501953125,1.0252019166946411,-1.1959837675094604,0.5594378709793091
1782816142808197400,6.643197265625,0.9231582880020142,-1.4014148712158203,0.7487821578979492
1782816142828279600,6.663279541015625,0.5907575488090515,-1.3783665895462036,1.0359538793563843
1782816142848361500,6.683361572265625,0.46175864338874817,-1.1754124164581299,1.2359625101089478
1782816142868443400,6.703443359375,0.6159180998802185,-0.9477346539497375,1.2870221138000488
1782816142888525600,6.723525634765625,0.8014735579490662,-0.8081545233726501,1.2856191396713257
1782816142908607500,6.743607421875,0.702958345413208,-0.684478223323822,1.3481171131134033
1782816142928689400,6.763689453125,0.5271698832511902,-0.5584596991539001,1.3886582851409912
1782816142948771600,6.783771484375,0.4354490637779236,-0.46927309036254883,1.2601643800735474
1782816142968853500,6.803853515625,0.4628976285457611,-0.40800216794013977,0.8888875246047974
1782816142988935400,6.823935302734375,0.4604569375514984,-0.49324581027030945,0.3928878605365753
1782816143009017300,6.844017333984375,0.24764716625213623,-0.5113415718078613,-0.07851950079202652
1782816143029099500,6.864099609375,-0.05858432874083519,0.3024701178073883,-1.0747389793395996
1782816143049181400,6.884181396484375,0.6417348980903625,1.1767698526382446,-2.9281837940216064
1782816143069263400,6.904263427734375,0.9538347125053406,0.8334937691688538,-3.627951145172119
1782816143089345500,6.924345458984375,1.0730196237564087,1.0656921863555908,-3.1149356365203857
1782816143109427500,6.944427490234375,1.1944431066513062,2.0285348892211914,-1.4174067974090576
1782816143129509400,6.96450927734375,1.3536591529846191,2.6012816429138184,-0.7294910550117493
1782816143149591600,6.984591552734375,0.7798205018043518,2.099592447280884,-1.1018191576004028
1782816143169673500,7.004673583984375,0.3276171386241913,0.47551441192626953,-0.9776382446289062
1782816143189755400,7.02475537109375,0.2229858934879303,-0.02493598870933056,-0.21224664151668549
1782816143209837300,7.04483740234375,0.3457968235015869,0.5500618815422058,0.5579044818878174
1782816143229919500,7.06491943359375,0.6592960357666016,0.8621549010276794,1.1177217960357666
1782816143250001400,7.08500146484375,0.554540753364563,0.7969874143600464,1.1820231676101685
1782816143270083300,7.105083251953125,0.33445632457733154,0.20479673147201538,0.8006239533424377
1782816143290165500,7.12516552734375,0.14955492317676544,-0.4638242721557617,0.39002344012260437
1782816143310247400,7.145247314453125,-0.016108067706227303,-0.8697579503059387,0.07840791344642639
1782816143330329300,7.165329345703125,-0.09191048890352249,-1.1221622228622437,-0.03610154613852501
1782816143350411500,7.18541162109375,-0.05773092806339264,-1.401549220085144,0.06709365546703339
1782816143370493400,7.205493408203125,-0.15036709606647491,-1.4690996408462524,0.19818241894245148
1782816143390575400,7.225575439453125,-0.2406298965215683,-1.0951248407363892,0.20824465155601501
1782816143410657300,7.2456572265625,-0.09788356721401215,-0.5963016152381897,0.21232949197292328
1782816143430739500,7.265739501953125,0.053145043551921844,-0.334530770778656,0.5009635090827942
1782816143450821400,7.2858212890625,0.046135313808918,-0.6016441583633423,1.0328646898269653
1782816143470903300,7.3059033203125,-0.24030056595802307,-0.9083327651023865,1.1868891716003418
1782816143490985500,7.3259853515625,-0.3284987509250641,-0.25485581159591675,0.5903679132461548
1782816143511067400,7.3460673828125,0.13514545559883118,0.41555055975914,0.3363337218761444
1782816143531149300,7.3661494140625,0.6881443858146667,0.9205130338668823,0.35346633195877075
1782816143551231500,7.3862314453125,0.7768825888633728,0.13753436505794525,0.28717702627182007
1782816143571313400,7.4063134765625,0.46232473850250244,-1.1678234338760376,-0.43191125988960266
1782816143591395300,7.426395263671875,0.5055539011955261,-1.5977658033370972,-1.2001867294311523
1782816143611477200,7.446477294921875,0.4306170642375946,-1.1320371627807617,-1.2096529006958008
1782816143631559400,7.466559326171875,0.140143483877182,-0.43029844760894775,-0.6294249892234802
1782816143651641300,7.486641357421875,-0.09894989430904388,0.35472753643989563,0.031565576791763306
1782816143671724300,7.506724365234375,-0.19397875666618347,0.9033340811729431,0.2799104154109955
1782816143691806200,7.52680615234375,-0.17924168705940247,1.1389566659927368,0.3168589174747467
1782816143711888400,7.546888427734375,-0.034927234053611755,1.036309003829956,0.35636016726493835
1782816143731970300,7.56697021484375,0.07908061146736145,0.7054497003555298,0.18753129243850708
1782816143752052200,7.58705224609375,0.1424412876367569,0.012785977683961391,-0.1565139889717102
1782816143772134400,7.607134521484375,-0.049095187336206436,-0.5255670547485352,-0.4477669894695282
1782816143792216300,7.62721630859375,-0.31192368268966675,-0.7785570025444031,-0.37456366419792175
1782816143812298200,7.64729833984375,-0.5192124247550964,-0.7379084825515747,0.022670703008770943
1782816143832380400,7.66738037109375,-0.6551612615585327,-0.45102009177207947,0.40338388085365295
1782816143852462300,7.68746240234375,-0.6515665054321289,-0.11821679770946503,0.3319595158100128
1782816143872544300,7.707544189453125,-0.5906155705451965,0.07913320511579514,-0.08365426957607269
1782816143892626200,7.727626220703125,-0.49294236302375793,0.04631076008081436,-0.4272684156894684
1782816143912708400,7.747708251953125,-0.40135884284973145,-0.05757606029510498,-0.5611178278923035
1782816143932790300,7.767790283203125,-0.3829968273639679,0.008542286232113838,-0.4562094807624817
1782816143952872200,7.7878720703125,-0.6342509388923645,0.12092559039592743,0.03541283681988716
1782816143972954400,7.807954345703125,-1.0066596269607544,0.3257480263710022,0.6954297423362732
1782816143993036300,7.828036376953125,-0.8600524067878723,0.6382433176040649,0.559827983379364
1782816144013118200,7.8481181640625,-0.2456260621547699,0.5100685954093933,0.1056816428899765
1782816144033200400,7.868200439453125,0.4288235306739807,0.27317988872528076,0.17166507244110107
1782816144053282300,7.8882822265625,0.5607903003692627,0.3902539610862732,-0.3346615433692932
1782816144073364200,7.9083642578125,0.7340930700302124,0.6497476696968079,-0.8325697779655457
1782816144093446100,7.928446044921875,0.741407573223114,0.7195919156074524,-0.47149458527565
1782816144113528300,7.9485283203125,0.5406168103218079,0.4063960313796997,0.20180083811283112
1782816144133611000,7.968611083984375,0.3352411389350891,0.05819448083639145,0.4116973280906677
1782816144153693200,7.988693115234375,0.060864049941301346,-0.4702690541744232,0.27834826707839966
1782816144173775000,8.008775146484375,-0.4505070149898529,-0.6691422462463379,0.2657977342605591
1782816144193857300,8.028857177734375,-0.6297639608383179,-0.7324795126914978,0.7204456329345703
1782816144213939200,8.048939208984375,-0.4879571795463562,-0.8058846592903137,1.3860617876052856
1782816144234021000,8.069021240234376,-0.219815194606781,-0.6629208922386169,1.9410539865493774
1782816144254103300,8.089103271484374,-0.01730443350970745,-0.48758259415626526,2.375908851623535
1782816144274185200,8.109185302734375,0.22360537946224213,-0.24610237777233124,2.410524368286133
1782816144294267100,8.12926708984375,0.3806344270706177,-0.1258298009634018,1.995051622390747
1782816144314349000,8.14934912109375,0.5054661631584167,-0.10566993802785873,1.186605453491211
1782816144334431200,8.16943115234375,0.7676993608474731,-0.1345868706703186,0.13639004528522491
1782816144354513200,8.18951318359375,1.053519606590271,-0.12435702979564667,-0.6517719030380249
1782816144374595000,8.209594970703124,1.1448376178741455,-0.2729108929634094,-0.8537073731422424
1782816144394677200,8.22967724609375,0.7349933385848999,-0.6396794319152832,-0.7542284727096558
1782816144414759200,8.24975927734375,-0.26993563771247864,-1.1744391918182373,-0.7611972093582153
1782816144434841000,8.269841064453125,-1.2537857294082642,-1.3696333169937134,-1.1953120231628418
1782816144454923300,8.28992333984375,-1.5860563516616821,-0.19798454642295837,-2.254354476928711
1782816144475005200,8.310005126953126,-0.6730883717536926,1.8883382081985474,-3.3829944133758545
1782816144495087000,8.330087158203124,0.23817214369773865,3.6990716457366943,-3.6713008880615234
1782816144515169000,8.3501689453125,-0.6266161203384399,2.895768165588379,-2.895390033721924
1782816144535251200,8.370251220703125,-1.4014643430709839,0.9075493216514587,-1.6876834630966187
1782816144555333000,8.3903330078125,-1.0675185918807983,-0.510414719581604,-0.9877527356147766
1782816144575415000,8.4104150390625,-0.4209376275539398,-0.5425981879234314,-0.19648630917072296
1782816144595497200,8.430497314453126,-0.098935566842556,0.049770791083574295,1.0535533428192139
1782816144615579100,8.4505791015625,-0.16977177560329437,0.7878938317298889,1.9362258911132812
1782816144635661000,8.4706611328125,0.11691871285438538,1.1977607011795044,2.199779987335205
1782816144655743200,8.4907431640625,0.5551018714904785,0.8312414884567261,2.0520172119140625
1782816144675825200,8.5108251953125,0.76338791847229,0.19457952678203583,1.676590085029602
1782816144695907000,8.530906982421875,0.7858511209487915,-0.17900408804416656,1.5695570707321167
1782816144715990000,8.550989990234376,0.5940805077552795,-0.46738865971565247,1.8902084827423096
1782816144736071200,8.5710712890625,0.24257242679595947,-0.7382122278213501,2.2243175506591797
1782816144756153000,8.591153076171874,-0.054266706109046936,-0.6774595975875854,2.1184802055358887
1782816144776236000,8.611236083984375,-0.03570329770445824,-0.43710818886756897,1.3933444023132324
1782816144796318000,8.63131787109375,0.13365772366523743,-0.36185771226882935,0.6081520318984985
1782816144816400100,8.651400146484375,0.2629459798336029,-0.5579800009727478,0.2623671293258667
1782816144836482000,8.67148193359375,0.09236156195402145,-0.794243574142456,0.27086418867111206
1782816144856564000,8.69156396484375,-0.07474919408559799,-0.9999412894248962,0.2500302493572235
1782816144876646100,8.711646240234375,0.0601574145257473,-0.9919171929359436,0.2306264340877533
1782816144896728000,8.73172802734375,0.09088537096977234,-0.9069498181343079,0.4357508718967438
1782816144916810000,8.75181005859375,-0.2773053050041199,-0.7161556482315063,0.4025880694389343
1782816144936892200,8.77189208984375,-0.6649481058120728,-0.3264438509941101,0.42338016629219055
1782816144956974000,8.79197412109375,-0.038476768881082535,0.6932822465896606,-0.008603171445429325
1782816144977056000,8.812055908203124,0.944978654384613,2.3951892852783203,-0.3010132908821106
1782816144997138000,8.832137939453125,0.5307181477546692,2.753521203994751,-0.43376773595809937
1782816145017220000,8.85222021484375,-0.1536121964454651,1.3122565746307373,-0.2636527121067047
1782816145037302000,8.872302001953125,-0.4752788543701172,-0.1301855891942978,-0.25416725873947144
1782816145057384000,8.892384033203125,-0.23858341574668884,-0.4441547989845276,-0.5841675400733948
1782816145077466000,8.912466064453126,0.16629618406295776,-0.12750312685966492,-0.2812357544898987
1782816145097548000,8.932548095703124,0.17103204131126404,0.2012360692024231,0.3072985112667084
1782816145117630000,8.9526298828125,-0.012469053268432617,-0.009388391859829426,0.5084156394004822
1782816145137712000,8.972712158203125,0.0718100517988205,-0.6159381866455078,0.33052897453308105
1782816145157794300,8.992794189453125,0.2804054915904999,-1.0563400983810425,-0.06986342370510101
1782816145177876200,9.012876220703125,0.39866894483566284,-1.1011958122253418,-0.29680272936820984
1782816145197958100,9.032958251953126,0.33656665682792664,-0.9262669086456299,-0.07519249618053436
1782816145218040300,9.053040283203124,0.12421940267086029,-0.6648452281951904,0.37063068151474
1782816145238122200,9.073122314453125,-0.014154764823615551,-0.4314522445201874,0.6089439988136292
1782816145258204200,9.0932041015625,-0.08648636192083359,-0.2750900685787201,0.48913872241973877
1782816145278286300,9.113286376953125,-0.13878606259822845,-0.24151210486888885,0.27469420433044434
1782816145298368300,9.1333681640625,-0.21146532893180847,-0.35406795144081116,0.10269792377948761
1782816145318450200,9.1534501953125,-0.27867254614830017,-0.46546947956085205,0.010146362707018852
1782816145338532000,9.173531982421874,-0.26397958397865295,-0.5378889441490173,0.1770910769701004
1782816145358614300,9.1936142578125,-0.33588922023773193,-0.6875887513160706,0.41457173228263855
1782816145378696200,9.2136962890625,-0.22694656252861023,-0.3735235929489136,0.10177610069513321
1782816145398778000,9.233778076171875,0.038897108286619186,0.15785902738571167,0.1743372678756714
1782816145418860300,9.2538603515625,0.3760584592819214,1.5163397789001465,0.2962881624698639
1782816145438942200,9.273942138671876,0.46695899963378906,2.203864336013794,-0.4559010863304138
1782816145459024100,9.294024169921874,0.15598222613334656,1.2721952199935913,-0.8830732107162476
1782816145479106300,9.314106201171874,-0.7557188272476196,-0.2533838748931885,-0.8154093623161316
1782816145499188200,9.334188232421875,-1.5730892419815063,-1.4384578466415405,-0.9028815627098083
1782816145519270100,9.354270263671875,-1.6958459615707397,-1.2277061939239502,-1.4658464193344116
1782816145539352000,9.37435205078125,-1.1880398988723755,0.13408999145030975,-1.8129817247390747
1782816145559434200,9.394434326171876,-0.6195759773254395,1.3743016719818115,-1.0781397819519043
1782816145579516200,9.41451611328125,-0.5704140067100525,1.2352122068405151,-0.11373527348041534
1782816145599598000,9.43459814453125,-0.7399133443832397,-0.11297256499528885,0.12772953510284424
1782816145619680300,9.45468017578125,-0.7038707733154297,-1.2361201047897339,-0.477982759475708
1782816145639762200,9.47476220703125,-0.5472627282142639,-1.4571053981781006,-0.9023000001907349
1782816145659844000,9.494843994140625,-0.3339528441429138,-1.2335706949234009,-0.6570312976837158
1782816145679926300,9.51492626953125,-0.1183258667588234,-0.6558591723442078,-0.07199028879404068
1782816145700008200,9.53500830078125,0.08739922940731049,0.27579110860824585,0.6735811233520508
1782816145720090000,9.555090087890624,0.15874113142490387,1.3268520832061768,1.147570013999939
1782816145740172000,9.575172119140625,-0.0679643377661705,0.761289119720459,0.43806192278862
1782816145760254200,9.595254150390625,0.712475061416626,0.2862083911895752,0.04229891672730446
1782816145780336000,9.615336181640625,0.9149631261825562,0.011370662599802017,-0.4636494517326355
1782816145800418000,9.63541796875,0.530163586139679,-0.1280868798494339,-0.713834822177887
1782816145820500200,9.655500244140624,0.060758646577596664,-0.37056800723075867,-0.6517505645751953
1782816145840582100,9.67558203125,0.0031619039364159107,-0.2700847089290619,-0.1586524248123169
1782816145860664000,9.6956640625,-0.0986306369304657,-0.10591521114110947,0.3206354081630707
1782816145880746200,9.715746337890625,-0.18906110525131226,0.10446665436029434,0.469186395406723
1782816145900828200,9.735828125,-0.1507621705532074,0.33359435200691223,0.27794796228408813
1782816145920910000,9.75591015625,-0.00028243722044862807,0.3756704032421112,-0.02723289653658867
1782816145940992000,9.775991943359376,0.14227153360843658,0.25467410683631897,-0.11356061697006226
1782816145961074200,9.79607421875,0.13457049429416656,0.059624116867780685,0.028294891119003296
1782816145981156000,9.816156005859375,0.08494669198989868,0.022796018049120903,0.08146245777606964
1782816146001238000,9.836238037109375,0.060738418251276016,0.15383021533489227,0.16184723377227783
1782816146021320200,9.8563203125,0.07911491394042969,0.31441205739974976,0.25417572259902954
1782816146041402000,9.876402099609376,0.08780935406684875,0.31244421005249023,0.2875623106956482
1782816146061484000,9.896484130859376,0.07089004665613174,0.2995770573616028,0.24514545500278473
1782816146081566200,9.916566162109374,0.09666521102190018,0.22237089276313782,0.10494600981473923
1782816146101648100,9.936648193359375,0.0874846875667572,0.23293031752109528,0.05461474135518074
1782816146121730000,9.95672998046875,0.04042936861515045,0.2261221706867218,0.09785104542970657
1782816146141811500,9.9768115234375,-0.07368506491184235,0.14777597784996033,0.14419300854206085
1782816146161893400,9.996893310546875,-0.1886269450187683,-0.037680551409721375,0.11259809881448746
1782816146181975300,10.016975341796876,-0.13460397720336914,-0.12268763780593872,0.0975104421377182
1782816146202057500,10.037057373046874,-0.006577028427273035,-0.17780740559101105,-0.022281361743807793
1782816146222139400,10.057139404296874,-0.03526724502444267,-0.20811638236045837,-0.13811253011226654
1782816146242221300,10.07722119140625,-0.09341064840555191,-0.21569624543190002,-0.1426265388727188
1782816146262303200,10.09730322265625,-0.07080446928739548,-0.22206228971481323,-0.05125591903924942
1782816146282385400,10.117385498046875,-0.037407755851745605,-0.16932693123817444,0.03418794646859169
1782816146302467300,10.13746728515625,-0.002779262373223901,-0.002246116753667593,0.18350841104984283
1782816146322549200,10.15754931640625,-0.026412418112158775,0.11636875569820404,0.2989753484725952
1782816146342631400,10.17763134765625,-0.016831843182444572,0.038603369146585464,0.1504412442445755
1782816146362713300,10.19771337890625,0.02753017470240593,0.09523835778236389,0.07819397747516632
1782816146382795300,10.217795166015625,-0.08405828475952148,0.3621998131275177,0.43067291378974915
1782816146402877400,10.23787744140625,-0.1695331633090973,0.20790047943592072,0.3574768602848053
1782816146422959400,10.25795947265625,-0.09374495595693588,-0.03987431526184082,-0.04658403992652893
1782816146443042300,10.278042236328124,-0.014588330872356892,-0.234258770942688,-0.24411991238594055
