time,seconds_elapsed,z,y,x
1782816204048645400,0.062645263671875,0.8733060983300208,0.008484481359273195,0.5698419877532869
1782816204068727300,0.082727294921875,1.519269421929121,-0.0410346056997776,0.6818966606371104
1782816204088808000,0.102807861328125,2.5419091726362706,-0.07799816256836056,0.24915260160937905
1782816204108890000,0.12289013671875,3.836457400509715,0.12904562823846935,0.009768237559497355
1782816204128972000,0.142971923828125,-0.3023357641339302,-1.5022145344927906,-0.8495230716824531
1782816204149054000,0.163053955078125,-2.360979774034023,-3.3847043973684308,-2.898805086736381
1782816204169135000,0.183135009765625,1.7910779458522796,-0.9941726578965783,3.7142259823307393
1782816204189217000,0.203217041015625,0.797291949185729,0.8930168340373784,3.6437341037392614
1782816204209299200,0.22329931640625,-3.242189192834496,-7.522794382178783,2.59817700330317
1782816204229381000,0.243381103515625,1.4685440278202295,-1.9111673835664986,6.740771898317337
1782816204249463000,0.263463134765625,-0.03226969996392727,-1.6033543570652604,3.8812387915223834
1782816204269544200,0.283544189453125,-0.7075806986004114,-1.0558853099659085,1.7080325828969478
1782816204289626000,0.303626220703125,-1.243699499645829,-0.5443022536315023,0.3360864233706146
1782816204309708000,0.3237080078125,-1.8133336168020964,-1.0513745545431972,0.01840454847961664
1782816204329790200,0.343790283203125,-3.781114867994189,0.14583645791113375,-0.2657137141793966
1782816204349871000,0.36387109375,-2.4933535237818956,1.1088035379439591,-0.015544775134325027
1782816204369953300,0.383953369140625,-2.169091174522042,1.202232932269573,-1.026797747169435
1782816204390035200,0.40403515625,-1.3985972158908844,1.4293864680387078,-1.569037076921761
1782816204410117000,0.4241171875,-1.048092171871662,1.4770420993134379,-1.5219687440156935
1782816204430199000,0.444198974609375,-0.2942150015205145,1.5533514320120214,-0.8482100163225084
1782816204450280200,0.4642802734375,-0.13686580047011374,1.6726669627442956,-0.4996110251203179
1782816204470362000,0.484362060546875,-0.9672557171374558,0.990209891745448,-0.5745687605468556
1782816204490444300,0.5044443359375,-1.0911720196634531,1.136311503398791,-0.3674391911527142
1782816204510526200,0.524526123046875,-0.6955816332489252,1.2288181568562984,0.022527338914491702
1782816204530607000,0.544607177734375,-0.2841787606745958,1.271855919072032,0.25195158467814327
1782816204550689300,0.564689208984375,0.06850070477426051,1.3574911523900925,0.35495183082763104
1782816204570771200,0.584771240234375,0.34132395869791504,1.504645561031997,0.363151357765682
1782816204590853000,0.60485302734375,0.8966372895568608,1.6175316432386635,0.14269392210170626
1782816204610935300,0.624935302734375,1.5236960061997173,1.6396781547255812,-0.15903094359226524
1782816204631016200,0.64501611328125,2.0522160226792097,1.6206586892180144,-0.26044633170310405
1782816204651098400,0.665098388671875,2.567499540966749,1.501974880518019,-0.5836896035809069
1782816204671180300,0.68518017578125,3.0836329540818928,1.2911596083484589,-0.8490702864136547
1782816204691262200,0.70526220703125,3.448604914870858,1.0311748662751168,-0.8475719376146793
1782816204711343000,0.725343017578125,3.7893496123760935,0.6535689762972295,-0.9505402177233249
1782816204731425300,0.74542529296875,3.8790941807091235,0.34610666292980313,-0.9844952404256909
1782816204751507200,0.765507080078125,3.595046937459707,0.20323258022191001,-1.1142506974339486
1782816204771589400,0.78558935546875,3.100287151762843,0.33700350168291476,-1.0885592798817902
1782816204791671300,0.80567138671875,2.9000515796661377,0.6021068654116243,-1.0918785604976118
1782816204811752200,0.825752197265625,2.1361527815163135,0.7498757526900619,-0.27259777460470797
1782816204831834000,0.845834228515625,1.710805554741621,0.41757319523971526,-0.2894458874225616
1782816204851916000,0.865916015625,-0.915695625770092,0.7096402614787221,0.09378712172210216
1782816204871998000,0.885998046875,-3.8595395854115484,0.9003761838242411,0.05436798839494586
1782816204892079000,0.9060791015625,-8.646575709024072,2.119123174651712,-1.0010698700644076
1782816204912161000,0.9261611328125,-15.198261205768585,2.4174710381932556,-2.9404706838160752
1782816204932243200,0.9462431640625,-17.487440648961066,2.2763446576692163,-3.431158105507493
1782816204952325000,0.9663251953125,-16.84179179813862,2.5135294658482072,-3.0957039156258106
1782816204972406300,0.98640625,-13.629653460174799,1.4690025852426887,-3.1563553682044145
1782816204992488200,1.00648828125,-8.966844604733586,0.9812142459936439,-3.040246232298016
1782816205012570000,1.026570068359375,-4.17080567497611,0.7877316552884877,-3.7815240333169697
1782816205032652000,1.046652099609375,-0.6416618270128965,0.17617226720303297,-3.530118538214266
1782816205052734200,1.066734130859375,1.5248545285850763,0.8610685480475425,-3.214041248975694
1782816205072815000,1.086815185546875,3.5001468860596416,1.401960554844141,-3.3826141470909117
1782816205092897300,1.106897216796875,6.376391473680735,1.7406494888633488,-2.4228949629381296
1782816205112979200,1.126979248046875,9.072947018149495,2.0120608301624654,-0.5649046044163406
1782816205133061000,1.14706103515625,10.50567271361351,2.359348373439908,-0.44510859669074415
1782816205153142300,1.167142333984375,11.31105619931817,3.1111475684732195,-1.3512287309944628
1782816205173224200,1.18722412109375,11.790796695059537,2.8015982196986675,-0.5581294111929833
1782816205193306400,1.207306396484375,11.846961065351962,1.929743050829321,2.1103987470567227
1782816205213388500,1.227388427734375,11.79888764705658,1.4034136762619018,4.173222380729019
1782816205233470500,1.247470458984375,11.990368834811449,1.521757439352572,4.614704457485676
1782816205253551400,1.26755126953125,11.940600303035973,2.192688761600107,4.1523394594371315
1782816205273633500,1.287633544921875,11.01136831934452,3.01142579600513,3.600755962756276
1782816205293715500,1.307715576171875,8.87416690555811,2.300620874661207,3.4862528007417914
1782816205313797400,1.32779736328125,5.698116364541649,0.5258252244375646,6.036188627967238
1782816205333878500,1.34787841796875,1.4398042555481194,-0.5315086038362234,8.1983245765239
1782816205353960400,1.36796044921875,-3.9618385148912667,-1.5820659237124024,5.026606511753797
1782816205374042600,1.388042724609375,-9.662924250632525,-2.216788745242357,0.6664835490584373
1782816205394124500,1.40812451171875,-15.466762504839897,-1.0851320088468492,-1.3503788361668585
1782816205414205400,1.428205322265625,-20.48884364812374,-0.44188572565410283,-3.235647223845124
1782816205434287600,1.44828759765625,-22.353489519011973,-0.3695340080074966,-4.875063366633653
1782816205454369500,1.46836962890625,-24.17287001476288,-0.41567828487120567,-3.405155649244785
1782816205474451500,1.488451416015625,-22.66280447450876,-0.5165349796533585,-0.2151851578168571
1782816205494533600,1.50853369140625,-16.982338917469978,-0.16893206855012102,1.1580517721723764
1782816205514614500,1.528614501953125,-9.931356576120853,-0.5447763008840382,0.5971585222892463
1782816205534696700,1.54869677734375,-3.660874039110541,0.025519042960205116,-0.8148786054112017
1782816205554778600,1.568778564453125,0.6769903300255536,0.8194882911637424,-1.779146685039997
1782816205574860500,1.588860595703125,3.4958056419849393,1.0707837500207125,-2.5658590802833436
1782816205594941700,1.608941650390625,5.84067657726109,1.3183166414737701,-3.239949889475107
1782816205615023600,1.629023681640625,7.7810864219248295,1.67430917699337,-3.315027634552121
1782816205635105500,1.64910546875,9.678582423013449,1.8563526743173597,-2.877287082411349
1782816205655187700,1.669187744140625,11.526369513559342,1.774973637139052,-2.383448941604048
1782816205675268600,1.6892685546875,12.808678437584637,1.6970212134085594,-1.6363110163800418
1782816205695350500,1.7093505859375,12.967627475047111,1.8186197405114768,-0.529315696901828
1782816205715432700,1.7294326171875,11.927676524055004,1.9141756254717706,0.03638137306645512
1782816205735514600,1.7495146484375,10.826634852284192,2.3209790414266287,0.6367375223532319
1782816205755596500,1.769596435546875,10.232899728572368,2.787001831330359,0.9244840585120022
1782816205775677400,1.789677490234375,9.881997209668159,3.092972444835305,0.9139242321833968
1782816205795759400,1.80975927734375,9.519106731328367,3.201534526363015,0.6853967046473175
1782816205815841500,1.829841552734375,8.553744280591607,3.269247295629978,0.8246648170188069
1782816205835923500,1.84992333984375,6.556164103463292,3.0021938572794196,0.9134824797652661
1782816205856004400,1.87000439453125,3.9566993984371424,1.751929446160048,0.18051900943676008
1782816205876086500,1.89008642578125,-1.1827367891609668,1.4450801501244306,-0.9145761202208698
1782816205896168400,1.91016845703125,-8.797349038815497,-0.32563553730919953,-2.897723136718571
1782816205916250400,1.93025048828125,-14.030862270992994,-1.989166861309111,-5.196518257257342
1782816205936331500,1.95033154296875,-17.241390835672615,-2.5267168642014264,-6.293607976531982
1782816205956413400,1.970413330078125,-21.40627413486242,-2.8135391251221296,-8.420701837801932
1782816205976495600,1.99049560546875,-25.39189041570425,-2.0114283774778245,-7.714231146270036
1782816205996577500,2.01057763671875,-24.693580818796157,-1.857858548835665,-5.25969046048522
1782816206016659500,2.030659423828125,-19.49934628856182,-1.4145954338811337,-1.8471509845994412
1782816206036740600,2.05074072265625,-12.186163794112204,-0.7237092649720609,-1.1356889875862746
1782816206056822500,2.070822509765625,-6.47884471693933,-0.042125761937350036,-0.9400226231012493
1782816206076904400,2.090904541015625,-1.3472259250938892,1.2733099172726272,0.9048297291669994
1782816206096986600,2.110986572265625,3.748613112840056,2.4407820634149013,3.1262849318504333
1782816206117067500,2.131067626953125,8.22493668911755,3.0662668087393046,4.370570706951618
1782816206137149700,2.151149658203125,11.543570823729038,3.6209903570115562,4.735636191242933
1782816206157231600,2.171231689453125,13.554877912914753,3.869122529532015,4.540520446377992
1782816206177313500,2.1913134765625,13.891782301604747,3.8391426940709352,4.160168545627593
1782816206197394400,2.21139453125,13.753881897389888,4.068987514750659,4.164602144160867
1782816206217476400,2.231476318359375,13.691972845965623,4.544861982713639,3.868578339652717
1782816206237558300,2.251558349609375,13.46724522216916,5.228529598546028,3.395305578620732
1782816206257640400,2.271640380859375,12.736177849519253,5.609959357661008,2.9992034432917833
1782816206277722400,2.291722412109375,11.750274130535125,5.7902060346961015,2.671443315044045
1782816206297803500,2.311803466796875,10.681054999482631,5.612106891083717,2.362354277257621
1782816206317885400,2.331885498046875,10.260172350901364,5.194479444906115,1.8169113291583954
1782816206337967400,2.35196728515625,9.121868577706813,4.422370160032808,0.8555740422844886
1782816206358049300,2.37204931640625,6.720829180485009,1.921013947059214,-1.110814293244481
1782816206378130200,2.392130126953125,1.3719628914654254,-0.9179340523466467,-2.2581028985358773
1782816206398212000,2.412212158203125,-6.272915901637077,-3.6545045040786266,-3.8018010976701975
1782816206418294300,2.432294189453125,-15.280267288804053,-1.854277183217555,-3.4915997147276996
1782816206438376200,2.452376220703125,-20.14715553228855,-0.6657762775719165,-5.293705542811751
1782816206458457300,2.472457275390625,-20.73355256819725,-0.7439837720420212,-5.991933891177177
1782816206478539300,2.492539306640625,-20.49531547448635,-0.9270274593845009,-5.684648980203271
1782816206498621200,2.51262109375,-19.28783353564739,-0.5637648597966879,-5.407120325067639
1782816206518703000,2.532703125,-13.493416605257988,-1.0807719139412044,-4.434022896164655
1782816206538785300,2.552785400390625,-3.90140596576035,-2.6872522940725085,-1.4349588613435624
1782816206558866200,2.5728662109375,3.470442652669549,-2.148913771151006,0.7015539125915616
1782816206578948400,2.5929482421875,6.3475599314719435,-1.233416298301518,0.7689549124956131
1782816206599030300,2.6130302734375,5.060025381752848,-0.8463405691888183,0.4590454617043957
1782816206619112200,2.6331123046875,5.0229520808994765,-0.3711308487448841,0.08485073187686502
1782816206639193300,2.653193359375,5.253712555119395,-0.7942903562169522,-0.17242628560774026
1782816206659275300,2.673275146484375,5.535575440067053,-1.4047396641686558,-0.4920373749956488
1782816206679357200,2.693357177734375,6.355537486222386,-1.833731384925544,-0.2134725086800754
1782816206699439400,2.713439453125,7.711939235940575,-1.3560508904539048,0.24951069433204828
1782816206719521300,2.733521240234375,8.767385862228274,-0.4354857224186882,0.16289638684876262
1782816206739602400,2.7536025390625,9.244308962461352,0.6296843889713287,0.17384649113658815
1782816206759684400,2.773684326171875,9.068168551701307,1.513510858402401,0.4615045818269253
1782816206779766300,2.793766357421875,8.847692155608534,2.0799016097232697,1.2615639498993754
1782816206799848200,2.81384814453125,7.5590113584637635,2.859106113554537,1.998762372650206
1782816206819929300,2.833929443359375,5.112714769411086,3.30009076218307,2.4550626638323068
1782816206840011300,2.85401123046875,2.008579710048437,3.179475839290023,2.2419151493228973
1782816206860093400,2.874093505859375,-2.2706547754645348,2.0029051715433597,2.3981126961201427
1782816206880175400,2.89417529296875,-7.1833075757801526,-0.7755974192500114,0.9819161837179213
1782816206900256500,2.914256591796875,-11.046647722518443,-1.727159600432217,0.3726053052116185
1782816206920338400,2.93433837890625,-13.419331962871551,-1.027532856510952,-0.888626709319651
1782816206940420400,2.95442041015625,-15.841116041958331,-1.140760153370723,-2.9663319780424238
1782816206960502300,2.974502197265625,-17.74012478569746,-2.0720205010846255,-2.2741394027099013
1782816206980583200,2.994583251953125,-16.591384958684444,-2.6694839976698157,0.6582902326654643
1782816207000665000,3.0146650390625,-13.217143503141402,-1.3749952448986469,0.7940106624927371
1782816207020747300,3.034747314453125,-8.502876847663522,-1.1002690799631178,-1.7775423185832797
1782816207040829200,3.0548291015625,-3.8646979910880326,-1.1114635509334505,-3.4734026715189215
1782816207060911000,3.0749111328125,-0.041706221351027487,-1.489363820748031,-2.125235666182637
1782816207080992300,3.0949921875,3.5671593981027603,-1.17573713953197,-0.44531789205987005
1782816207101074200,3.11507421875,6.60120677576065,-0.5784756683249026,0.05535685330182313
1782816207121156000,3.135156005859375,8.659172740268707,0.013702362138032912,0.09643022010941057
1782816207141238300,3.15523828125,9.872062675631046,0.4209098288491368,0.5667820156607777
1782816207161319200,3.175319091796875,10.287374830603598,0.8863495581679046,1.3794682986594735
1782816207181401000,3.195401123046875,10.545553473103046,1.8896015945769846,1.999251032949984
1782816207201483000,3.21548291015625,10.233107818365097,2.9368045625239607,1.9987458599068224
1782816207221565000,3.23556494140625,9.625029696524143,3.9998382829397916,1.6538623090311884
1782816207241646000,3.25564599609375,9.220679080548882,4.949067344999313,1.167455852594599
1782816207261728000,3.27572802734375,9.256989580336212,5.4839802773863076,0.9971557653605937
1782816207281810000,3.295809814453125,9.358149861174821,5.42082619433701,0.7849875442121177
1782816207301892000,3.31589208984375,9.350200947996974,5.00422166146636,0.6784720930159092
1782816207321974000,3.33597412109375,7.96055334675908,4.291418552042543,-0.6531780042182653
1782816207342055200,3.35605517578125,4.083724188372493,2.2765078854069114,-1.416107299748808
1782816207362137000,3.37613720703125,-1.1358213087290525,-0.35321547202169895,-2.423100860773772
1782816207382219000,3.396218994140625,-7.235494859135151,-4.035852430129051,-5.310554386281967
1782816207402301200,3.41630126953125,-13.401091372781991,-4.065666553634405,-5.965013151025771
1782816207422382000,3.436382080078125,-18.864976372122765,-2.4202577463023363,-3.6585631318196654
1782816207442464000,3.456464111328125,-22.472678208494184,-1.6423869752928613,-4.902337450267375
1782816207462546200,3.476546142578125,-24.20402736957073,-2.6246365556836126,-4.186572276167571
1782816207482628000,3.496628173828125,-24.28127310633659,-2.159928793901205,3.8819443094432353
1782816207502709200,3.516709228515625,-21.73222224525213,-2.473757719691098,6.701869628471136
1782816207522791200,3.536791259765625,-14.234520218753813,-1.9800557724840937,4.087932745978236
1782816207542873000,3.556873046875,-4.7166894987106325,-0.8753247446760535,2.9438758160844443
1782816207562955300,3.576955322265625,3.4499680199176073,0.4194555383875966,3.430898285527527
1782816207583037200,3.597037109375,8.394902210634946,1.2666492903396487,2.736920580343902
1782816207603117800,3.617117919921875,10.339995829200744,2.2626447797492144,1.7922186403200029
1782816207623200000,3.637199951171875,10.646154366493224,2.8775182608187198,0.8843303272999823
1782816207643282000,3.657281982421875,10.85937275428176,3.0174983939170836,0.943817485339567
1782816207663363800,3.67736376953125,11.707420492714643,3.043717707800865,1.3738703325219452
1782816207683445000,3.697445068359375,12.082706926769017,3.737738959865272,1.8577767157711087
1782816207703527000,3.71752685546875,11.481052700495718,4.337577076627314,1.8387959748387335
1782816207723609000,3.737609130859375,10.587734910750388,4.649783077390492,1.7743959833815692
1782816207743691000,3.75769091796875,10.399551595497131,4.938052614510059,1.8434448235578833
1782816207763773000,3.77777294921875,10.777502280324697,4.874449910910427,1.3610983831018209
1782816207783854000,3.79785400390625,10.993919171893596,4.353790837064385,0.7934343969747424
1782816207803936000,3.81793603515625,10.29789037939906,3.521196688351035,-0.01456679694764316
1782816207824018000,3.838017822265625,7.853376582109927,1.9104758941709994,-1.2825024007707833
1782816207844100000,3.85810009765625,4.255791066083312,-1.481044320692122,-2.9613159034460783
1782816207864181000,3.878180908203125,0.4402577956587076,-4.562463398116827,-2.483079967048764
1782816207884263000,3.898262939453125,-4.712530625465512,-7.910662649908661,-2.31522836894542
1782816207904345000,3.918344970703125,-12.752530433905124,-7.693742484992742,-3.6408711155235767
1782816207924427000,3.938427001953125,-16.62471556587815,-6.734796331039071,-5.585505299884081
1782816207944508200,3.958508056640625,-13.977405406093597,-3.2224095566093918,-3.502193297195434
1782816207964590000,3.978590087890625,-13.179222061026096,-3.130949124269187,-1.0961221163515
1782816207984672000,3.998672119140625,-10.121896683633327,-4.059584603372216,-1.1795419386424124
1782816208004754200,4.018754150390625,-2.5118209083646534,-3.458752214875817,-0.45443223228789864
1782816208024835000,4.0388349609375,2.9037177009582518,-2.3364069121830164,0.7462593888238072
1782816208044917000,4.0589169921875,4.480046980714798,-0.634795740635693,4.298007575044036
1782816208064999200,4.078999267578125,3.8036131155282256,0.7199373452179133,6.0521279553771015
1782816208085081000,4.0990810546875,3.4791023444652556,1.7722636475279927,4.182898263829946
1782816208105163000,4.1191630859375,5.034238614067435,2.4531854717835784,2.806173857051134
1782816208125244200,4.139244140625,7.242066638740897,3.493788456943631,2.0097589829608795
1782816208145326000,4.159326171875,8.610591372451186,3.7634222671762108,1.0221794397190214
1782816208165408300,4.179408203125,8.498751292166114,3.646498600016534,1.2543699467420577
1782816208185490200,4.199490234375,7.1914791917979715,3.7735046852514147,1.0097234243802726
1782816208205571000,4.219571044921875,5.502687315943837,4.0024437892630695,0.6694330465137958
1782816208225653200,4.2396533203125,4.166509439086914,4.178234363672137,0.4365091837149113
1782816208245735200,4.259735107421875,3.493534774443507,4.039125752711296,0.5026677092771977
1782816208265817000,4.279817138671875,3.1493501656174656,3.6033018478468057,0.7591246425505727
1782816208285898200,4.299898193359375,1.7712170610845088,3.599360709005594,2.020194013866037
1782816208305980200,4.319980224609375,-1.7915578383237123,3.349667570778727,2.8247321347877383
1782816208326062000,4.34006201171875,-5.318856935203075,2.9515970579862594,3.1846497347965834
1782816208346144300,4.360144287109375,-9.152075499922036,0.7263032269880175,2.2353063987076283
1782816208366226200,4.38022607421875,-11.28602463391423,-1.112405800219625,2.645251473689079
1782816208386307300,4.400307373046875,-12.23212708838582,-1.196997223573178,0.22724026420451698
1782816208406389200,4.42038916015625,-14.16744282478094,-1.8839055748924611,-1.3120287933759391
1782816208426471200,4.44047119140625,-15.913818874597549,-3.1479426369071004,-2.4587778849631547
1782816208446553300,4.46055322265625,-16.434090118169784,-1.4537392573982477,-2.9387171181470153
1782816208466634200,4.48063427734375,-14.521355631417036,0.3686407124295831,-3.943787894415855
1782816208486716200,4.500716064453125,-9.536273554706574,0.7981300074450671,-4.2043116387367245
1782816208506798300,4.52079833984375,-4.270837244045734,-0.5965790419008582,-4.050778488843143
1782816208526880300,4.54088037109375,-0.4832955578744411,-1.9304754567570983,-2.5730115823864934
1782816208546961200,4.560961181640625,2.970318125069141,-2.3056501010000705,-1.3656094307854771
1782816208567043000,4.58104296875,6.796167622324824,-2.0049457374602553,-1.1821839775837957
1782816208587125000,4.601125,10.464954918777941,-0.7593180462308228,-1.2977214510820805
1782816208607207200,4.621207275390625,11.918741522449254,0.09521291674152016,-1.4844713725313543
1782816208627289000,4.6412890625,11.763116076451539,0.428785384529829,-1.5713056063756345
1782816208647370000,4.661369873046875,10.882911450779437,0.620010990088433,-0.9800689484160393
1782816208667452200,4.6814521484375,9.69620400442183,1.143657116921246,0.08518295950591563
1782816208687534000,4.7015341796875,8.3006755284518,1.4389632746793328,1.4006271142832933
1782816208707616000,4.721615966796875,6.808769329744577,1.8594781128615139,2.010687203721702
1782816208727697200,4.741697265625,5.437079994523525,2.2142839228145776,2.2075698121286926
1782816208747779000,4.761779052734375,3.7960359582722183,2.2622039041139184,3.286293122977018
1782816208767861200,4.781861328125,1.356129947039485,1.8367996864549814,3.4450866776168345
1782816208787943200,4.801943115234375,-1.9639450340300797,0.6661962565496563,4.083632418435812
1782816208808024000,4.822024169921875,-6.035557344326376,-1.895933281816542,1.9948554283395408
1782816208828106200,4.842106201171875,-8.614774211093783,-5.479991500011086,0.5715591669347136
1782816208848188200,4.862188232421875,-8.9926483235538,-7.998856481668352,0.43934426101036367
1782816208868270000,4.88227001953125,-10.964917533814907,-7.7052897149235005,-0.3813402542006224
1782816208888351200,4.902351318359375,-15.083362906956673,-5.925465569013356,-1.1060063815061003
1782816208908433200,4.92243310546875,-14.75902340080738,-3.8236493568629024,-1.763233807245642
1782816208928515000,4.94251513671875,-10.91416232908964,-2.2948440448254344,-3.696169224375486
1782816208948597200,4.96259716796875,-6.819190185993909,0.21243337489068506,-5.402932225728034
1782816208968678100,4.98267822265625,-2.7371634491890666,2.0528131117895243,-5.548011727792025
1782816208988760300,5.00276025390625,0.5739934814095496,2.7485473052516576,-1.9861853612802922
1782816209008842200,5.02284228515625,2.64776784042418,3.196681533373892,0.3377895374940708
1782816209028924200,5.042924072265625,4.771378535753488,4.150419305029511,-0.8677417422011494
1782816209049006300,5.06300634765625,5.7095905292361975,5.339262594372034,-1.388326143375784
1782816209069087200,5.083087158203125,6.130778882765769,5.857023316428065,-1.3450453661844133
1782816209089169200,5.103169189453125,6.687081809183955,6.204551974985003,-0.6978965591277927
1782816209109251300,5.123251220703125,7.525005628487468,6.250816298031807,0.3035162243564613
1782816209129333200,5.143333251953125,8.500758540335298,6.446891827839613,0.7992778623059391
1782816209149414100,5.1634140625,9.049552114036679,6.47822804634571,0.5741380775120108
1782816209169496000,5.18349609375,9.41594972371459,6.446873707661032,0.4904575584582984
1782816209189578000,5.203577880859375,9.176571058753133,6.396982426288724,0.6532004352457821
1782816209209660200,5.22366015625,8.524404788860679,6.193211081281304,1.3164612228654324
1782816209229741000,5.243740966796875,7.482452434918284,4.862646952652931,1.9938651021279394
1782816209249823000,5.263822998046875,6.870582519578933,3.5694641679137944,2.029954214249551
1782816209269905200,5.2839052734375,5.102665084561705,1.2616191872179507,1.101969454140216
1782816209289987000,5.303987060546875,1.2577519903957843,-2.4125813664555547,0.6779458771847188
1782816209310068200,5.324068115234375,-4.303937549614906,-7.3815914292871945,-0.05410841501015238
1782816209330150100,5.344150146484375,-11.64880931379199,-10.36368767043352,0.6730281483963132
1782816209350232000,5.364232177734375,-18.043395784854887,-10.164149432951211,-0.23677670230213552
1782816209370313000,5.38431298828125,-17.420113079619405,-9.277540785455702,-2.4222777078226208
1782816209390395000,5.404394775390625,-14.63287422466278,-8.968706306952237,-1.9413141000270842
1782816209410476800,5.424476806640625,-12.401349682581424,-8.03850927762091,-1.7091924204565583
1782816209430559200,5.444559326171875,-10.900351245880126,-4.468346606048941,-2.317958816822618
1782816209450641200,5.46464111328125,-8.595132522034644,-1.1742471932351588,-1.8511334783643483
1782816209470722000,5.48472216796875,-3.262010914635658,0.45640696642696854,1.2509648144736885
1782816209490804000,5.504803955078125,2.4085797295987605,1.7506798844903706,3.4292104785710573
1782816209510886000,5.524885986328125,6.486897675013542,2.465172554436326,2.742403687930107
1782816209530968000,5.544968017578125,7.179335165017843,3.540511045151949,1.4299398641377687
1782816209551049000,5.565049072265625,7.42518682538569,4.212694851678609,0.5522641724213957
1782816209571131000,5.585130859375,7.935791245946287,4.3788650725662706,0.8933453353393822
1782816209591213000,5.605213134765625,8.329422899508476,4.44418802408725,1.0923697050154209
1782816209611295000,5.625294921875,9.524926231262087,4.539709422256053,0.8256262824621051
1782816209631376100,5.645376220703125,11.023907482922077,4.9573681403547525,-0.14928561198431997
1782816209651458000,5.6654580078125,11.807751336991787,5.5806818252503865,-0.9817137199483811
1782816209671540000,5.6855400390625,11.5552425568223,5.76441575987935,-1.3430628140650689
1782816209691622100,5.7056220703125,10.967552558493614,5.826113214379549,-1.088463929748535
1782816209711704000,5.7257041015625,10.24410735128522,5.700562588649988,-1.0177572393625973
1782816209731786000,5.745785888671875,9.657358433198928,5.157554028090835,-1.2979454690963028
1782816209751867100,5.7658671875,8.336009876683354,4.279165804190933,-1.428812905934453
1782816209771949000,5.785948974609375,4.017737512245774,2.1333231110483406,-1.1696660759899764
1782816209792031000,5.806031005859375,-4.229827772787213,-1.2752910080872475,-2.02316791511029
1782816209812113200,5.826113037109375,-13.375559456640481,-4.393035052216053,-2.6530294142141937
1782816209832194000,5.846194091796875,-21.326213340675828,-2.2416054988518357,-1.8821565392680466
1782816209852276000,5.86627587890625,-23.580646464657782,-0.7889997755281627,-3.08373115375936
1782816209872358100,5.886358154296875,-22.771247313570974,-1.5208324334621428,-4.415406166239083
1782816209892440000,5.906440185546875,-21.31877120797634,-1.1457201138656585,-4.028680054281652
1782816209912521200,5.926521240234375,-19.199986909890175,0.08994270298732444,-0.686259824282676
1782816209932603100,5.94660302734375,-11.446422116619347,-0.7488955094810574,-0.17201792400255797
1782816209952685000,5.96668505859375,-2.2336416803658006,-1.6513395125553012,-1.3586647262141107
1782816209972767200,5.986767333984375,2.6974077773839236,-2.1577306993350387,-0.8108833252299577
1782816209992849200,6.00684912109375,5.095903335341811,-2.466500003647804,1.0170040098425
1782816210012930000,6.026929931640625,7.2375664047122,-2.2670298629656433,2.2736145020529626
1782816210033012200,6.04701220703125,9.433947152698039,-1.984836138628423,2.4918226609528062
1782816210053094100,6.06709423828125,11.416382367664575,-1.9622307774581014,2.1639437286309895
1782816210073176000,6.087176025390625,12.424019779551028,-2.15670194080919,2.2633351001009343
1782816210093257000,6.107257080078125,12.383553329128027,-2.113544789997488,2.133941096816212
1782816210113339000,6.1273388671875,11.999105098974704,-1.4969547142684458,1.9352963010422883
1782816210133421000,6.147421142578125,10.708929679358006,-0.287412335768342,1.2629758625239134
1782816210153503000,6.1675029296875,8.930230738085507,0.7571908249437809,0.35511476630438116
1782816210173585000,6.1875849609375,7.0500219718843695,1.2541339460290968,-0.383916169103235
1782816210193666800,6.207666748046875,4.655137590160965,1.4815439407773314,0.09560075614848174
1782816210213748700,6.227748779296875,1.4942606528788804,1.4957713497027754,0.7149170328378677
1782816210233830700,6.24783056640625,-2.39086345564425,1.460948750385642,0.06741082717832178
1782816210253912600,6.26791259765625,-6.896407281187177,0.9004927228759974,-1.2507825897745788
1782816210273993700,6.28799365234375,-10.527108300352095,-0.04103219454698264,-1.2556266688048838
1782816210294075600,6.30807568359375,-11.452646105700731,2.1708608145430683,-0.6842210119314491
1782816210314157800,6.32815771484375,-9.64987655301094,2.041263543771207,-4.341452456755936
1782816210334239700,6.34823974609375,-8.455226623216271,2.4460953673921524,-7.062025713410973
1782816210354320600,6.368320556640625,-10.693531034696102,3.8577059402436014,-6.47005876841545
1782816210374402800,6.38840283203125,-12.527090862447023,2.3619578252859412,-4.795261515644192
1782816210394484700,6.408484619140625,-11.259107400894164,-0.26593144858330486,-1.0883081546649336
1782816210414566700,6.428566650390625,-6.598418021824956,-2.3937682371750473,0.7702328234769403
1782816210434648800,6.44864892578125,-0.4296574911892414,-3.330227541771531,0.22489523544833062
1782816210454729500,6.4687294921875,3.2208202415913343,-3.401300727382302,-1.4490341484472156
1782816210474811600,6.488811767578125,3.3637960493743417,-2.761003174459934,-1.2711346190601587
1782816210494893600,6.5088935546875,4.412665635359287,-1.8235339621685445,0.053380329064466055
1782816210514975500,6.5289755859375,6.986491456738114,-1.3528085475318132,0.5524825278798118
1782816210535056600,6.549056640625,9.535191020166874,-0.6221356540922075,-0.39184192060120404
1782816210555138600,6.569138671875,10.410412012207507,-0.17792115669697522,-1.3289765671759843
1782816210575220500,6.589220458984375,9.994926838755607,0.3833978077849373,-1.1145230846345424
1782816210595302700,6.609302734375,8.753488854300976,1.1772688060786574,-0.3785041905244812
1782816210615383600,6.629383544921875,6.910524069344997,1.662156966906786,-0.1609006829869002
1782816210635465700,6.6494658203125,4.508948665550351,2.1375654247932134,-0.16417795109190045
1782816210655547600,6.669547607421875,0.650247284528613,2.7789479964733124,-0.546909403922595
1782816210675629600,6.689629638671875,-4.455377234360576,3.3530127895534036,-0.7126285565745085
1782816210695711500,6.70971142578125,-9.20570655234456,3.3083591165736315,2.0244437802650035
1782816210715792600,6.729792724609375,-11.237625052404404,2.273263935049623,5.222510192126036
1782816210735874600,6.74987451171875,-8.693282515141368,3.7412925606936214,7.445846167054772
1782816210755956700,6.769956787109375,-5.600877641060948,2.3440166565343734,4.568396879819035
1782816210776038700,6.79003857421875,-4.513735315304994,0.5070541807331145,1.4921324086785315
1782816210796119800,6.810119873046875,-5.65583614269495,0.3870736102208495,1.1963357639897614
1782816210816201700,6.83020166015625,-7.820207887479662,-1.4483165016971529,2.8956352245286103
1782816210836283600,6.85028369140625,-5.407020371824503,-2.527714058545232,4.01489147516489
1782816210856365600,6.870365478515625,-0.8158119407385587,-3.318371392022073,0.6290411956969648
1782816210876446700,6.89044677734375,0.8258961123794317,-4.5399134203955525,-1.2447978162765503
1782816210896528600,6.910528564453125,1.963909378194809,-5.050839620256424,-0.7520886794991791
1782816210916610800,6.93061083984375,3.7515380603760478,-5.084195946413279,-1.2329825830593704
1782816210936692700,6.950692626953125,6.1461079693228005,-4.458597365450859,-2.3824808272242546
1782816210956774700,6.970774658203125,7.969900436297059,-4.0166552699670195,-2.157429962822795
1782816210976855800,6.990855712890625,9.051055504336952,-3.265431536734104,-0.41676969683710485
1782816210996937700,7.010937744140625,9.12664762867689,-2.382716243415326,0.12730196290891616
1782816211017019600,7.03101953125,7.382287594857812,-1.538384310635179,-0.5849204240174963
1782816211037101800,7.051101806640625,4.701217788812518,-0.3406761623136699,-0.7448786019898951
1782816211057182500,7.071182373046875,1.1257079109936952,1.002532928354293,0.687306849117577
1782816211077264600,7.0912646484375,-4.86703086682558,2.343976909045875,3.37063466322273
1782816211097346800,7.111346923828125,-10.994943254244326,4.028742890384793,6.27852438916862
1782816211117428700,7.1314287109375,-13.481726167464256,5.750831471163034,8.658861190101504
1782816211137509600,7.151509521484375,-12.433301987159252,7.955586079740524,11.66151097445488
1782816211157591600,7.171591552734375,-9.4234643371284,8.087619637748599,10.709214926040172
1782816211177673500,7.191673583984375,-7.332254859188199,3.6724548790499565,4.766967441312969
1782816211197755600,7.211755615234375,-5.504021194896102,0.8837686017639934,1.5957910822041332
1782816211217837600,7.231837646484375,-5.404538491880893,-0.9968743180707097,0.007988404938019812
1782816211237918700,7.251918701171875,-5.463144994628429,-2.7315803883597254,0.19755703706983477
1782816211258000600,7.272000732421875,-3.811018423348665,-3.1173698039889333,0.12217155948420985
1782816211278082600,7.29208251953125,-0.8044096722364426,-2.171772960951924,-2.141724444168806
1782816211298164500,7.31216455078125,2.0756518433243034,-0.9592024668022989,-4.740828499189019
1782816211318245600,7.33224560546875,4.220111265414953,0.06426555142253637,-5.775052889227867
1782816211338327600,7.35232763671875,6.06898965832889,0.8610667944818735,-4.8797065162643785
1782816211358409700,7.37240966796875,8.070165814122557,1.6090397092252968,-3.4448592986017466
1782816211378491600,7.39249169921875,8.956958001491428,2.4801535582080483,-2.366646129232645
1782816211398572500,7.412572509765625,8.846514344000816,3.197203511421382,-1.5915201268866657
1782816211418654500,7.432654541015625,8.600477390193939,3.7577711095467206,-1.2758435274034738
1782816211438736400,7.452736328125,8.095993498340249,4.630957965411246,-0.8988033084843308
1782816211458818600,7.472818603515625,5.4124979264527555,5.655419378587603,-0.2068418384939432
1782816211478900500,7.492900390625,1.3302835581213235,5.23947360188663,1.0311761083841324
1782816211498981400,7.5129814453125,-2.394469955703616,3.8720588752448557,2.4136359900750217
1782816211519063600,7.5330634765625,-5.030456757441163,1.769347760081291,1.659514051182568
1782816211539145500,7.5531455078125,-7.377621941134334,-1.6513035644590854,1.2159727768737822
1782816211559227400,7.573227294921875,-8.205201476556063,-2.173162954005599,2.442685997340083
1782816211579308500,7.59330859375,-6.958536112841963,-3.8375229839146137,-0.9951306892737746
1782816211599390500,7.613390380859375,-4.998344293865562,-4.308255412814021,-5.3691696568578475
1782816211619472400,7.633472412109375,-6.862962692224979,-3.0362925262361764,-3.6350133294060822
1782816211639554600,7.653554443359375,-8.315392620590329,-2.2375419026747343,-0.3746130648374557
1782816211659635500,7.673635498046875,-4.856097384878993,-1.3311039345934987,-0.7245286185309291
1782816211679717600,7.693717529296875,1.2062100192070007,0.35516339121907947,-2.34960965423584
1782816211699799600,7.713799560546875,5.392317892733216,1.2992448612570762,-2.6793510194286703
1782816211719881500,7.733881591796875,7.2716691653221845,2.4296149188429115,-2.3619728767246007
1782816211739963600,7.753963623046875,7.576770887038111,3.382221348381042,-2.00987910220921
1782816211760044500,7.77404443359375,6.649937196660042,3.926885859453678,-1.149000231514871
1782816211780126500,7.79412646484375,6.283793854004144,4.038233772307634,-0.12420717523135244
1782816211800208600,7.814208740234375,6.238769301885366,3.95163042460978,0.9566444528825581
1782816211820290600,7.83429052734375,5.813847022524476,3.6727690595656632,1.029221321054548
1782816211840371700,7.854371826171875,2.901113071417808,2.534559978917241,0.5305704462032765
1782816211860453600,7.87445361328125,-0.1647311279952526,0.1870177786052227,-1.6027438239514826
1782816211880535600,7.89453564453125,-1.5503578031539915,-2.4443542228132484,-3.143603146398067
1782816211900617500,7.914617431640625,0.32050036637783047,-1.7833476438611744,0.11411803515441715
1782816211920698600,7.93469873046875,-0.48259705421626564,-0.5171943203449249,-0.019744272650778293
1782816211940780500,7.954780517578125,-5.7422144494652745,0.28014731320142744,0.07169745498895645
1782816211960862700,7.97486279296875,-9.710836340886354,0.2579530170500278,0.94918551517874
1782816211980944600,7.994944580078125,-7.766669774037599,-1.070528460085392,1.183642798089981
1782816212001025500,8.015025634765625,-2.585726102530956,-2.1261600875511766,1.5855455825217066
1782816212021107500,8.035107421875,1.6277432406514882,-2.044320300993323,2.0195717903144654
1782816212041189400,8.055189453125,1.989739400500059,-1.1794456386610865,0.8781707086917012
1782816212061271600,8.075271484375,1.1682903306573629,-0.2823173507168889,0.37070853167958556
1782816212081353500,8.095353515625,0.9673761286467313,-0.1478086347669363,0.7954197255730628
1782816212101434400,8.115434326171876,1.8465023114323615,-0.014995324558019637,0.590718077445589
1782816212121516500,8.1355166015625,2.89700680514276,0.11549889505356549,-0.2849502017048187
1782816212141598500,8.155598388671875,3.287233618697524,0.08623159177601337,-1.4324883795768022
1782816212161680400,8.175680419921875,2.698803615656495,0.0017488894939422606,-1.7059243585713206
1782816212181761500,8.195761474609375,1.6621183884620665,0.16018793160766362,-1.6659560669288038
1782816212201843500,8.215843505859375,1.3656664216697216,0.4322518915966153,-1.350351948159933
1782816212221925400,8.23592529296875,1.011396472159028,1.0869883042380213,-1.3230126903355122
1782816212242007600,8.256007568359376,0.9543541499882936,1.8230995162740349,-1.8929224095627664
1782816212262088200,8.276088134765626,0.8180448143571615,2.2783701721474525,-2.422957799041271
1782816212282170600,8.296170654296875,1.1801578785836695,1.6847189273267984,-1.3882248749583959
1782816212302252500,8.31625244140625,1.7132850965976714,0.5324006573051214,-0.6732398914508522
1782816212322334500,8.33633447265625,2.3392905047953128,-0.48555736532658333,0.27813429287858304
1782816212342416600,8.356416748046875,2.143803588530421,-0.6716197429031133,1.5190309369981287
1782816212362497300,8.376497314453125,0.5280974071532487,-0.2347735092535615,1.5685133453086018
1782816212382579200,8.3965791015625,-0.20484102006554603,0.22474837432354688,0.8563293906964361
1782816212402661400,8.416661376953124,3.849387024709582,-3.8190462469816207,4.1924014207124705
1782816212422743300,8.436743408203125,-0.02015782188773155,0.30088819567412134,3.5232340393975377
1782816212442824400,8.456824462890625,-0.8414736207395791,-1.355965696388483,4.050765337100625
1782816212462906400,8.47690625,-0.6240799930930138,-1.0739306697443127,2.1545827566981313
1782816212482988300,8.49698828125,-3.051177376157045,0.7592378206014633,-1.670986900702864
1782816212503070500,8.517070556640626,-3.3342379464566707,0.9808855985611676,-2.556492409262061
1782816212523151400,8.5371513671875,-1.433389712330699,0.9386647056862711,-2.2871552438884972
1782816212543233300,8.5572333984375,-0.22349311356544493,0.3303849237933755,-1.2703592507734893
1782816212563315500,8.5773154296875,-0.4709259056448936,0.2978042581841349,0.20863171758539972
1782816212583397400,8.5973974609375,0.48126960500478744,-0.2888144576512277,0.4580747535087168
1782816212603478500,8.617478515625,0.7985077547162771,-0.8517271575979888,-0.5958410099498928
1782816212623560400,8.637560546875,-1.69012458576262,-1.1017685247406364,-1.7455650256946682
1782816212643642400,8.657642333984375,-2.0665917540341616,-0.36478929769843815,-2.0468369599893688
1782816212663724500,8.677724609375,-2.724424963647127,-0.7901423696920276,-2.029961813034117
1782816212683805400,8.697805419921876,-2.58228794477582,-0.9444706885512918,-1.2316348217122257
1782816212703887400,8.717887451171874,-1.754021596133709,-0.7053123152770102,-0.7472711231496184
1782816212723969500,8.737969482421875,-0.855558260193467,-0.5107001360200345,-0.47668490756303067
1782816212744051500,8.758051513671875,-0.2532821026295423,-0.4298955377288162,-0.1093191104400903
1782816212764132600,8.778132568359375,0.019954992792010306,-0.4449056214645505,-0.018270912162587045
1782816212784214500,8.798214599609375,0.16095219397842883,-0.4338531893134117,-0.1548024391770363
1782816212804296400,8.81829638671875,-0.07543897960484028,-0.4159877161465585,-0.5582602344984189
1782816212824378400,8.83837841796875,-0.7720920414775609,-0.21238778218328952,-0.9302860227890312
1782816212844460500,8.85846044921875,-0.6982225031465291,-0.020811463490873573,-0.7556501713730395
1782816212864541400,8.87854150390625,-0.4517465734004974,0.18948621454536912,-0.5521645114392042
1782816212884623600,8.89862353515625,-0.20871640019416807,0.20572145616188645,-0.4469500598389655
1782816212904705500,8.91870556640625,-0.3733417297273874,-0.05603679839000106,-0.06564222833691165
1782816212924787500,8.938787353515625,-0.2508919926226139,0.029358780953288078,0.3012691578157246
1782816212944868400,8.958868408203125,-0.07094283722937107,0.20424436934664844,0.432690538742207
1782816212964950300,8.9789501953125,0.06295183847546577,0.05572407917901873,0.47161184208244084
1782816212985032400,8.999032470703124,0.045642391756176945,-0.18577084728404877,0.532438322434388
1782816213005114400,9.0191142578125,-0.1622381421357393,-0.1771817365065217,0.4600526294529438
1782816213025195300,9.0391953125,-0.2822410706102848,-0.026007132437825202,0.3901271160399541
1782816213045277400,9.05927734375,-0.3506652030169964,0.22740926409587262,0.2930334818520583
1782816213065359400,9.079359375,-0.5297615409731865,0.27920915556848047,0.10856220939187332
1782816213085441300,9.099441162109375,-0.7162117488235235,0.1831948593162,0.331931860974431
1782816213105522400,9.1195224609375,-0.5442471624433994,0.18155469089373946,0.3742753573156893
1782816213125604400,9.139604248046876,-0.38848844545483585,0.17401231269016862,0.3971365929432213
1782816213145686300,9.159686279296874,-0.16554653603136538,0.16549787458404897,0.4013043070819229
1782816213165768400,9.1797685546875,0.1901712742000818,0.17895766013786196,0.34648572537526484
1782816213185850400,9.199850341796875,0.36417116580009457,0.04875453242734074,0.3362055562382564
1782816213205931000,9.219930908203125,0.2515542559236288,0.10062222843915224,0.29180090784979984
1782816213226013000,9.240012939453125,0.20202713168859482,0.13630465945601464,0.20759441042691468
1782816213246094800,9.2600947265625,0.14000351397395133,0.185814248034358,0.17124989877212793
1782816213266177000,9.280177001953126,0.25704525455534455,0.2836212729223072,0.0729668264708016
1782816213286258000,9.3002578125,0.40145898618698117,0.21242796806320546,0.0901426277399063
1782816213306340000,9.320340087890624,0.42402562278211114,-0.01153422431871295,0.16355662258947268
1782816213327677000,9.341677001953125,0.36732583043873307,0.0176002463594079,0.18000568961976096
1782816213347758000,9.361758056640625,0.504491490638256,0.06348901409208774,0.22937528520552442
1782816213367840000,9.381840087890625,0.5493307493180036,-0.04741173951625824,0.36861053648702796
1782816213387922200,9.401922119140625,0.27564123395383355,-0.17516572050899265,0.3814451758798212
1782816213408004000,9.422004150390626,-0.0020908347994089125,-0.024176848270744084,0.18088133994312955
1782816213428085000,9.4420849609375,-0.08022212222814559,0.0757470226407051,0.19684220333136618
1782816213448167200,9.462167236328124,0.0751157389998436,0.09008125294148922,0.19085489081637932
1782816213468249000,9.4822490234375,0.07247019292712212,-0.06063844696655869,0.10772192264283076
1782816213488331000,9.5023310546875,-0.08857610907554626,-0.09497107080966234,-0.044530019200639794
1782816213508412200,9.522412109375,-0.1757452739626169,-0.002170329776406288,-0.18614516048915683
1782816213528494000,9.542494140625,-0.11028817466795444,0.08321662786900996,-0.24873665948593987
1782816213548576000,9.562575927734375,0.07633329809606075,0.014275193589925765,-0.2153735199958086
1782816213568658200,9.582658203125,0.15366086792647837,-0.08663783448934555,-0.1871329476838
1782816213588740000,9.602739990234374,0.04677636422216892,-0.11150120371952653,-0.24938167939120903
1782816213608821200,9.6228212890625,-0.14247311895787715,-0.031780016750842334,-0.2747860236302949
1782816213628903200,9.642903076171875,-0.06414835478365422,-0.005637421365082264,-0.2439558914828114
1782816213648985000,9.662985107421875,0.19988310539722443,-0.06422185841128229,-0.21121713096871972
1782816213669067300,9.6830673828125,0.28064357228577136,-0.13072612867131828,-0.13315894530881195
1782816213689148000,9.70314794921875,0.25233985334336756,-0.0676635232977569,-0.08611024868497624
1782816213709229800,9.723229736328125,0.10184884762465954,-0.01897869510576129,-0.09773971353909
1782816213729312000,9.74331201171875,0.0663052405565977,0.0101911391466856,-0.12786344184973275
1782816213749394000,9.763393798828124,0.022662498185038564,0.06481207938939333,-0.07267314988700672
1782816213769475000,9.78347509765625,0.009559270983934403,0.1364827925018966,-0.047203814120311285
1782816213789557000,9.803556884765625,0.09373860640525818,0.1443615630529821,-0.11203830627091228
1782816213809639000,9.823638916015625,0.04166296673119068,0.07330284435898066,-0.06794645015867426
1782816213829721000,9.84372119140625,0.007542670464515686,0.05130027138739824,-0.18259904884751885
1782816213849803000,9.863802978515626,-0.13577800523340702,0.056539487215131516,-0.15852648293515667
1782816213869884000,9.8838837890625,-0.19367723649442195,0.04161868919804692,-0.031995047741010786
1782816213889966000,9.903966064453124,-0.2649637725949287,0.05537424282804131,-0.04211091142809018
1782816213910048000,9.924048095703125,-0.2219476376891136,0.007346563370525836,-0.0900509217353072
1782816213930130000,9.9441298828125,-0.27404256658554077,-0.03675634385868907,-0.10063959969906136
1782816213950211000,9.964211181640625,-0.30046120243370533,-0.04100990964993834,-0.15574616803424432
1782816213970293000,9.98429296875,-0.25316052207648754,-0.044411242526024575,-0.08404368067714385
1782816213990375200,10.004375244140626,-0.007138765838742255,-0.017470044108480215,0.03238646734454669
1782816214010457000,10.02445703125,0.21829905205368993,-0.06410729212090373,0.0917564378784038
1782816214030539000,10.0445390625,0.18360826242268086,-0.048368309588730334,0.07018126000603661
1782816214050620200,10.0646201171875,0.0014537059396505356,-0.029159897380322215,0.026558756704907864
1782816214070702000,10.0847021484375,-0.02690086640715599,-0.02429199908301234,0.08708276524525135
1782816214090784000,10.104783935546875,0.023393735069036484,-0.046376258988678455,0.1708894314292818
1782816214110866200,10.1248662109375,0.09577858780026435,-0.03899593947902322,0.2065620169055648
1782816214130947000,10.144947021484375,0.08550736915469169,-0.030815994024276733,0.20161199328275395
1782816214151029000,10.165029052734376,0.01137362692952156,0.027207448138296602,0.2064318694535643
1782816214171111200,10.185111083984374,-0.0041559506356716154,0.04657733451873064,0.17023040126496924
1782816214191193000,10.205193115234374,0.01182195521891117,0.012422843721508979,0.12235891701616346
1782816214211274200,10.225274169921875,0.0960159036874771,0.05740092635005712,-0.017388649435341356
1782816214231356200,10.245356201171875,-0.06714987468719483,-0.003582096270471811,0.12043814155403523
1782816214251438000,10.26543798828125,-0.11570727710723876,0.06019274902567267,-0.04309815063346177
1782816214271520300,10.285520263671875,-0.0004278700232505798,-0.013342004393041134,-0.04050815240656957
1782816214291602200,10.305602294921876,0.02554711371064186,-0.014453911157697438,0.023381679305061697
1782816214311683000,10.32568310546875,-0.04814005379080772,0.11268661411181091,-0.029594726867321876
1782816214331765200,10.34576513671875,-0.193678990060091,0.11920344865992664,-0.09258393821110948
1782816214351847200,10.36584716796875,-0.32569208980202674,0.1091058330155909,-0.16357616754015908
1782816214371929000,10.38592919921875,-0.05852876133620739,0.04214811989963054,-0.18320950889606027
1782816214392010200,10.40601025390625,0.2608095755249262,-0.06522562862634658,-0.05756738722445443
1782816214412092200,10.426092041015625,0.3908405615389347,-0.057739364524185655,0.02653051699111238
1782816214432174000,10.446174072265626,0.33284897581934925,-0.016394085440039632,0.009841028801072389
1782816214452256300,10.46625634765625,0.33496377601623534,-0.0352051688939333,-0.0319367964814417
1782816214472338200,10.486338134765624,0.14777005632221699,-0.09294760215803981,0.0010595737892203033
1782816214492419300,10.50641943359375,-0.18746435332894323,-0.02628580324873328,-0.04638917326917871
1782816214512501200,10.526501220703125,-0.24578736295998094,0.003490326333791017,-0.08924796218881383
1782816214532583200,10.546583251953125,-0.01262275020778179,-0.028858137954771518,-0.03384728801157325
1782816214552665300,10.566665283203125,0.068358081433177,-0.06965104385316372,0.03736556179821491
1782816214572746200,10.586746337890625,-0.08259118944704533,0.0044167935289442534,0.026825170822441576
1782816214592828200,10.606828125,-0.21270751565694807,0.062418023859709494,-0.026854871840961275
1782816214612910300,10.626910400390624,-0.48234395623803134,0.1316388596020639,-0.06535206801760941
1782816214632992300,10.6469921875,-0.18057634738087652,0.1688160592213273,-0.30799729702696205
1782816214653073200,10.6670732421875,0.45653906837403774,0.12405454195290803,-0.2210787824327126
1782816214673155000,10.687155029296875,0.6116396137148141,-0.10849223116189241,0.09127243548743426
1782816214693237000,10.707237060546875,0.9953320570647716,-0.1633674384266138,0.071844937168248
1782816214713319200,10.727319091796875,0.5480144060224295,-0.3364481693550944,-0.0002444762803614139
1782816214733401000,10.747401123046876,-0.22619009756445885,-0.2736823549710214,-0.4272940134609118
