time,seconds_elapsed,z,y,x
1782816136241373200,0.076373291015625,-0.17479484136998652,0.19500030179172753,0.8107913360975683
1782816136261455400,0.096455322265625,0.04238309769928455,0.042988808507472276,0.5092097513318061
1782816136281537300,0.116537353515625,0.30495442219972607,0.005586275699734688,0.07110255783572793
1782816136301619200,0.136619140625,1.0500795462965964,-0.15884236221760512,-0.5872938386179506
1782816136321701400,0.156701416015625,2.8118875585228205,-0.6963301135286688,-1.4063383315369486
1782816136341783300,0.176783203125,2.507452191761136,0.586762654350698,-1.1397624475702643
1782816136361865200,0.196865234375,3.395977486532926,1.2922262146666645,0.03716638596430421
1782816136381947400,0.216947509765625,6.08780892508924,1.4478608668841422,-0.06821765004917979
1782816136402029300,0.237029296875,-2.411888708016276,-2.823057187312841,-6.603358985358477
1782816136422111200,0.257111328125,-2.2766209903925656,-3.6574244831785556,-5.77797491415441
1782816136442193200,0.277193115234375,-1.2556734305560588,2.976296322695911,6.20631080135107
1782816136462275300,0.297275390625,0.25408055953085423,0.8636213012702763,6.360861896115541
1782816136482357200,0.317357177734375,-2.848075308713317,-2.368033199676871,1.918225777645409
1782816136502439200,0.337439208984375,-1.5137608876407145,-1.40724960116297,-1.6957142224632202
1782816136522522000,0.357522216796875,-0.4361714031279087,-2.4588152943640944,-3.8152678974866863
1782816136542604300,0.377604248046875,-3.320712694451213,-3.1528760016560553,-2.574870069734752
1782816136562686200,0.397686279296875,-4.838699675354361,-2.7856431101977823,0.003949468278139829
1782816136582768000,0.41776806640625,-4.529212285900115,0.22109876577481627,2.644973241269588
1782816136602850300,0.437850341796875,-3.611996318694949,-2.1525113572515546,0.9630728054296225
1782816136622932200,0.45793212890625,-2.6866625114858147,-0.3260134307108819,-0.5686787891928107
1782816136643014100,0.47801416015625,-0.11927636776566505,0.01769771538451314,-1.2559637918047606
1782816136663096000,0.498095947265625,-0.4184703267425298,0.13763539660312235,-0.6470500959224998
1782816136683178200,0.51817822265625,-1.0436135651528835,0.9169882959291339,0.3439509827332571
1782816136703260200,0.53826025390625,-0.7881476887434721,0.054252673185896126,0.09384981169477105
1782816136723342000,0.558342041015625,-0.8907534922152757,0.18433591911010444,0.11891867690179496
1782816136743424300,0.57842431640625,-1.0292962859869004,0.16793231692304833,-0.011395879860525019
1782816136763506200,0.598506103515625,-1.3402034791111945,0.35486481013130394,-0.18736671990705653
1782816136783588000,0.618588134765625,-1.347897540745139,0.6354322849735617,-0.3098077439824119
1782816136803670300,0.638670166015625,-0.7034183182239532,0.9355208547025918,-0.2300295113305561
1782816136823752200,0.658752197265625,-0.2603127319186926,1.2275528130955993,-0.10342882855879142
1782816136843834000,0.678834228515625,0.13796703971028326,1.2489846004419027,-0.41346601564921437
1782816136863916000,0.698916015625,0.49811669490933413,1.094148332060501,-0.5103961115721612
1782816136883998200,0.718998291015625,1.090700310498476,1.0644020130943506,-0.278697461452987
1782816136904080100,0.739080078125,1.3440385272294282,0.987231095130369,-0.12824726266870273
1782816136924163000,0.7591630859375,1.3001806808024645,1.1027394155994057,-0.41927755147218704
1782816136944245000,0.779244873046875,1.3943740452378988,1.0967878137186169,-0.5083656651904807
1782816136964327200,0.7993271484375,1.9936632959455252,1.154385577815026,-0.27063316000085325
1782816136984409000,0.8194091796875,2.40141875192821,1.1017363760367036,-0.5076462283421308
1782816137004491000,0.839490966796875,2.6906203092008827,1.1817604914747177,-0.4389258894678205
1782816137024573200,0.8595732421875,2.8297838652193543,1.2445394576013087,-0.6961389018055051
1782816137044655400,0.8796552734375,3.7126316988766193,1.3079974920332431,-0.6742737645432353
1782816137064737300,0.8997373046875,3.9952375111460685,1.0266429949991405,0.19959720112793147
1782816137084819200,0.919819091796875,4.328658733895421,1.4245954343698919,-0.1252466012816876
1782816137104901400,0.9399013671875,4.567185165941715,1.1975779460705815,-0.39248606372363865
1782816137124982500,0.959982421875,4.562130220639705,1.715660009035468,-0.4649662665881216
1782816137145064700,0.980064697265625,3.1709774755358695,1.4213934234581886,-0.5108593451697379
1782816137165146600,1.000146728515625,1.563270476219058,1.6479383258096874,0.2287687889460474
1782816137185228500,1.020228515625,0.7136527119904756,1.137906152179092,0.6952230290696024
1782816137205310500,1.040310546875,0.08188684056997299,0.8211233450196683,0.5159028192296624
1782816137225392600,1.060392578125,-1.0324772541105747,-0.2472034403029829,-0.46572176113054153
1782816137245474600,1.080474609375,-2.9039959333777428,-1.5194646522402762,0.07173040741048753
1782816137265556500,1.100556396484375,-6.606662703078984,-2.380766132260859,0.44133974567651746
1782816137285638700,1.120638671875,-12.532364418935774,-2.2368016057014466,1.784668955592811
1782816137305720600,1.140720458984375,-17.28159542028904,-1.3877160486534237,3.4895372292399403
1782816137325802500,1.160802490234375,-17.56544860227108,-0.7446109640296548,4.441153770957887
1782816137345884700,1.180884765625,-15.068105716592072,-1.1503806530226022,4.205452333204448
1782816137365966600,1.200966552734375,-10.919514211511611,-2.040546043151617,3.0980270978763698
1782816137386049500,1.221049560546875,-6.692134416398406,-1.881548198111355,2.4321591964982447
1782816137406131500,1.24113134765625,-2.1218746653169394,-0.9459462409965693,2.0497300510823724
1782816137426213600,1.261213623046875,2.0130887119054792,0.22497239233776925,0.9619622869044542
1782816137446295800,1.2812958984375,3.769040983840823,0.28803846831005064,0.47248672522082924
1782816137466377700,1.301377685546875,5.38263119597733,0.06710972533989697,-0.04330850544851273
1782816137486459600,1.321459716796875,6.982775651085376,0.18206724352575837,-0.5985021554505452
1782816137506541800,1.341541748046875,8.860620610764622,-0.007513152109086513,-1.695559908684343
1782816137526623700,1.361623779296875,10.906766958141326,0.21916450977660715,-2.435071430683136
1782816137546705700,1.38170556640625,12.26647827079892,0.48685894944444297,-2.37904340012148
1782816137566787800,1.401787841796875,12.829728239876031,1.0097377451665699,-2.314828848233819
1782816137586869800,1.421869873046875,12.293146497493982,1.5119795571818946,-2.3274624120965597
1782816137606951700,1.44195166015625,10.64826799764633,2.122600933764875,-1.8328535791777074
1782816137627033600,1.46203369140625,8.33513893906772,2.595704475709796,-1.3588288307346403
1782816137647115800,1.48211572265625,7.1976476512998335,3.1568986813008784,-1.0747574759572744
1782816137667197700,1.50219775390625,6.529713318911194,3.6236437941297885,-0.9074720603693276
1782816137687279600,1.522279541015625,5.325908607280254,4.148564617073536,-0.4489839402867481
1782816137707361800,1.54236181640625,2.3539970755398274,4.2995588961392635,0.13394823252297938
1782816137727443700,1.562443603515625,-0.706348526456952,3.822128430905938,0.4596822983032092
1782816137747525600,1.582525634765625,-4.512167627596855,1.5309626362018287,-0.7758320317234844
1782816137767607800,1.60260791015625,-9.44332814450562,-0.4166309824861586,-1.0296010410871357
1782816137787689700,1.622689697265625,-15.275577085161208,-1.4023277807213366,-0.2916478544462472
1782816137807771600,1.642771728515625,-15.860639073073862,-2.2871301094472405,-0.7038921462807803
1782816137827853600,1.662853515625,-13.901335727369785,-3.344500981795788,-1.9952061414733528
1782816137847935700,1.682935791015625,-11.290835249066353,-3.982608623458445,-2.8447265828073025
1782816137868017700,1.703017578125,-9.295839827734232,-4.094458932876587,-2.948939821475744
1782816137888100600,1.7231005859375,-10.955189920526742,-2.791301866611838,0.06102594844680279
1782816137908182500,1.7431826171875,-8.539592421120405,-0.8204569900654256,1.5613326400242744
1782816137928264700,1.7632646484375,-2.334592117846012,-0.15132278036773203,1.3880790367469191
1782816137948346600,1.7833466796875,3.9749961026281118,-0.2392676058024168,2.945872250598669
1782816137968428500,1.803428466796875,8.628185481330751,-0.3613009441260248,3.773285197281837
1782816137988510700,1.8235107421875,9.5729639937222,-0.5743829191185533,2.4013794428311286
1782816138008592600,1.843592529296875,8.953625057676433,-0.6555815582286566,0.9814354875288903
1782816138028674600,1.863674560546875,8.579676594227552,-0.36983693647682664,0.39101496825776993
1782816138048756500,1.883756591796875,8.358524490830302,0.06419051342494786,0.12205686532966792
1782816138068838700,1.903838623046875,8.019331114420295,0.5941761454775929,0.012631481503508984
1782816138088920600,1.923920654296875,7.575051223638654,1.060893785777688,-0.041836094808392225
1782816138109002500,1.94400244140625,7.146190435785055,1.4743125282190739,-0.042494522184506056
1782816138129084700,1.964084716796875,6.96022070492804,1.8289111251622436,0.06516582473050803
1782816138149166600,1.98416650390625,7.207756372860073,2.0395690148130057,0.6204391523726284
1782816138169248500,2.00424853515625,6.046437634781003,2.3292761835202573,0.7422860282134264
1782816138189330700,2.02433056640625,4.033362951400876,2.396909457810223,0.4923260557439178
1782816138209412600,2.04441259765625,0.4602648108989,1.5333765654757618,-0.892640694201365
1782816138229494500,2.06449462890625,-4.008982543382048,-0.4583654070183634,-1.3425241771437226
1782816138249576400,2.084576416015625,-8.361800736021996,-3.1574785270154475,-1.4938894814789294
1782816138269658600,2.10465869140625,-13.030036877208948,-2.7561352761626243,-2.935433274170756
1782816138289740500,2.124740478515625,-14.167753790426254,-2.266115524599701,-5.614378343147039
1782816138309822500,2.144822509765625,-13.800339697182178,-2.635797416645288,-5.842116839197278
1782816138329904600,2.164904541015625,-11.78956101578474,-2.725780177648365,-2.9087644629538056
1782816138349986600,2.184986572265625,-8.025500158444046,-0.9904143282763659,-0.6481595915343612
1782816138370068500,2.205068359375,-7.4188313188791275,-0.12077771223932504,-1.8213117560744285
1782816138390151400,2.2251513671875,-3.1988463101923466,0.15870149244219064,-2.088189983988553
1782816138410233600,2.245233642578125,3.22422215898931,0.1418437350131571,-1.9385083949565887
1782816138430315500,2.2653154296875,7.564284330430627,0.1780298777684569,-1.0222650721758604
1782816138450397400,2.2853974609375,8.537484050664306,0.14510178696103393,-0.012418679003044962
1782816138470479600,2.305479736328125,7.825481443968415,0.2726879371061921,-0.3038701340943575
1782816138490561500,2.3255615234375,8.054975259253382,0.5063604263152927,-2.0489564363613724
1782816138510643500,2.3456435546875,8.821949811586737,0.4684636802498251,-2.4363494877949354
1782816138530725400,2.365725341796875,9.455120289108157,0.1843701136406511,-1.6118525746889412
1782816138550807600,2.3858076171875,9.515880170497297,0.3664076196152717,-0.3286156490985304
1782816138570889500,2.405889404296875,8.553015381795168,0.7857377780575304,0.013536686714924872
1782816138590971400,2.425971435546875,7.036955569562315,1.2594260610878467,0.10335702369790524
1782816138611053600,2.446053466796875,6.329553150138259,1.8585883244149386,0.02303681139014661
1782816138631135500,2.466135498046875,5.445477235990762,2.371241932590306,0.275127073886618
1782816138651217700,2.4862177734375,2.710959917396307,2.583514856222272,1.004641810267046
1782816138671299600,2.506299560546875,-0.7725964838683604,2.8344170779779554,1.823921646311879
1782816138691381800,2.5263818359375,-5.209470093289017,2.4881781669706107,0.9593127953089773
1782816138711463700,2.546463623046875,-7.709164510530233,0.33945100443288684,0.7109817392155527
1782816138731545600,2.566545654296875,-10.220157151377201,-1.9584068352557717,0.6175558520212769
1782816138751627800,2.586627685546875,-15.316563760066032,-1.8480780363164842,2.2560054878652096
1782816138771709700,2.606709716796875,-18.80051179099679,-2.0353885142579675,1.6848833241082728
1782816138791791600,2.62679150390625,-19.09251437716484,-2.141780266009271,0.4062335071124136
1782816138811873800,2.646873779296875,-17.77313156776428,-2.523864397379756,-0.7937053228706121
1782816138831955700,2.666955810546875,-15.428604915881156,-3.7660727816849944,-1.0923945471957326
1782816138852037600,2.68703759765625,-12.799656926739216,-3.1661919948250055,1.3221842766873537
1782816138872119600,2.70711962890625,-7.554723305881023,-0.7566451737597585,1.7651969240121543
1782816138892201700,2.72720166015625,-1.009969654226303,1.5954543975956736,0.8808248033970594
1782816138912283600,2.74728369140625,3.7399686186134815,2.8093095247283575,0.8494437228359282
1782816138932365600,2.767365478515625,7.047274719002843,2.632382932026684,2.399556611318141
1782816138952448500,2.787448486328125,9.91942648435235,2.3196780418306586,3.086088530540466
1782816138972530700,2.80753076171875,11.617743144398927,2.5660081333652136,2.59603239248991
1782816138992612600,2.827612548828125,12.345604999005793,2.8540602283418175,1.8451929823994635
1782816139012694500,2.847694580078125,12.507059297287464,2.7387916349127885,0.9364772786445915
1782816139032776700,2.867776611328125,12.16392390525341,2.7811174494668838,0.4305436263740062
1782816139052858600,2.887858642578125,10.261141488194465,3.166301884940266,-0.30611659784689543
1782816139072940500,2.9079404296875,8.587767546224594,3.784818690948188,-0.42808483504503964
1782816139093022500,2.9280224609375,8.018530903953314,4.007063558018207,-0.5346086887434125
1782816139113104600,2.948104736328125,8.117788566040993,3.874190042054653,-0.6347368500553071
1782816139133187000,2.96818701171875,6.943494026532769,3.902390885144472,-0.7277901045449078
1782816139153269000,2.98826904296875,5.032740484464168,3.8550285377278923,-0.980940835879743
1782816139173351200,3.00835107421875,1.135335571038723,3.30329861831367,-1.3723340628653764
1782816139193433000,3.02843310546875,-5.43956888872981,2.0661258900880815,-1.8839067439362405
1782816139213515000,3.048514892578125,-9.622344987484812,-1.4067236775927245,-1.848156654510647
1782816139233597000,3.068596923828125,-11.74422082184553,-5.22526153666079,-2.708671221937239
1782816139253679000,3.08867919921875,-9.959073435086012,-7.008749465775489,-2.529867144925892
1782816139273761000,3.108760986328125,-9.113141081371904,-8.093627938252688,-2.500321609228849
1782816139293843000,3.128843017578125,-8.72263486635387,-7.689003181511163,-1.7035734115310013
1782816139313925000,3.148925048828125,-7.2199231959939,-6.12027853153944,0.18920452979346736
1782816139334007000,3.169007080078125,-4.299214028224349,-3.0372248386502263,1.016566276012361
1782816139354089000,3.1890888671875,-1.4511924955248832,-0.5656634599596262,0.4082525187846273
1782816139374171100,3.209171142578125,1.8407155447244643,0.28905710730068385,-0.14903163722325116
1782816139394253000,3.229253173828125,4.095994471880793,1.1677828195266424,-0.7372410928487777
1782816139414335000,3.2493349609375,3.9420039336085315,1.4207327675923704,-1.7521324213862417
1782816139434417000,3.2694169921875,3.58332902713716,0.9586266396757215,-2.1472657116830347
1782816139454499000,3.2894990234375,5.168846406477689,0.21806619314588604,-1.1748407021488994
1782816139474581000,3.3095810546875,7.648824900379776,-0.38757344950176775,-0.13862585067888722
1782816139494663000,3.329662841796875,9.065187490063906,-0.5897901124130934,0.5348720889199525
1782816139514745000,3.3497451171875,9.684431733563542,-1.0196048399906605,-0.3285946793757379
1782816139534827000,3.369826904296875,10.289473264187574,-0.2657715818464756,-1.1160972020834683
1782816139554910000,3.389909912109375,9.280790142640472,0.49731516926810143,-1.2717464673481882
1782816139574992000,3.409991943359375,8.389389584693312,0.6826236597374081,-0.7225242929711937
1782816139595074000,3.430073974609375,6.839248639160394,1.0284178226519376,-0.841595931944996
1782816139615156000,3.450156005859375,3.9803725349694488,1.2850127761565149,-0.7656107166342436
1782816139635238000,3.47023779296875,0.36217677711248397,1.5146958304032683,-0.4178368146119639
1782816139655319800,3.49031982421875,-4.8423026682823895,1.567872563187033,0.38364736209921535
1782816139675402000,3.510402099609375,-10.625071830976008,1.4577275963820515,0.8183819373570382
1782816139695484000,3.53048388671875,-13.909074797189234,1.0027800349831582,0.9362610786106437
1782816139715565800,3.55056591796875,-15.809572902703284,0.5664078851187602,1.2179151431132107
1782816139735648000,3.57064794921875,-16.545841351127624,0.4394340947182849,2.0448872872263193
1782816139755730000,3.59072998046875,-15.470359652549028,0.5531270728610456,0.45579752929173406
1782816139775811800,3.610811767578125,-14.770952323532104,-0.7517758872229605,-0.729503995790705
1782816139795894000,3.63089404296875,-12.827996886038779,-1.33548434163481,0.017530834385007618
1782816139815976000,3.650975830078125,-9.069630440947414,-1.996839880155027,0.4284181586526334
1782816139836057900,3.671057861328125,-3.6722161018580195,-2.1135621795237065,0.5150984805768355
1782816139856139800,3.691139892578125,1.3401800982356071,-1.613541696819663,-0.19993987708576022
1782816139876222000,3.711221923828125,3.924088337689638,-1.0792459464829414,-0.11219897672533988
1782816139896303900,3.731303955078125,4.562967255985736,-1.4872136569768188,1.2969020975232124
1782816139916385800,3.7513857421875,5.066196763864159,-1.9193534665010867,2.317878737323731
1782816139936468000,3.771468017578125,6.27376871907413,-1.7390160424426198,1.6687012739837168
1782816139956550000,3.7915498046875,7.651654570847749,-1.287495386752486,0.2367589839823544
1782816139976631800,3.8116318359375,9.124647979292273,-0.6627249271772802,-0.7335591164004057
1782816139996714200,3.83171435546875,9.870325476574898,-0.25129025295889,-1.11174894374609
1782816140016796200,3.851796142578125,9.92179145991802,0.3742072970481589,-1.0361441791202872
1782816140036878000,3.871878173828125,9.592278350523113,0.9444002536635845,-0.8444644731186329
1782816140056960000,3.8919599609375,8.874908079314231,1.446723387286812,-0.8217744293395429
1782816140077042200,3.912042236328125,8.337755259045958,1.8134452604830265,-0.6765260735146701
1782816140097124000,3.9321240234375,7.909986358082294,2.1677565649174153,-0.5392568068102002
1782816140117206000,3.9522060546875,7.507732422125339,2.3631743614688516,-0.267186782406643
1782816140137288000,3.972287841796875,5.300059880274534,2.9121219566881655,0.06598492256104946
1782816140157369900,3.992369873046875,-0.12186989139020442,3.2016005773365497,-0.3634058074507862
1782816140177451800,4.01245166015625,-5.966411911907792,2.1756424958616494,-1.3220597735248505
1782816140197534000,4.032533935546875,-11.308971794259547,-0.33396343986727295,-2.0149828550890088
1782816140217616000,4.052615966796875,-13.551098394376039,-3.0089263804048296,-2.1387727547563613
1782816140237698800,4.07269873046875,-13.845201752215623,-3.6154657483711836,-1.2524440932460128
1782816140257780700,4.09278076171875,-14.712345820784568,-4.268967943042516,-0.8409539807796478
1782816140277863000,4.11286279296875,-14.493772043442725,-3.8399604401946066,0.37372948693595825
1782816140297944800,4.13294482421875,-11.691714389538765,-2.843447648912668,1.3360123110316693
1782816140318026800,4.15302685546875,-6.5390843738466495,-1.2384957935228944,0.880201556932181
1782816140338108700,4.173108642578125,-1.5959084249734878,0.23326354308202862,-1.5640399992868304
1782816140358190800,4.19319091796875,2.6161522204548118,1.2649069767169654,-3.073583853754401
1782816140378272800,4.213272705078125,5.847891330945491,1.213180735002458,-2.406971709880233
1782816140398354700,4.233354736328125,8.366390401899814,0.977821680945903,-1.2176513045452535
1782816140418436900,4.253436767578125,8.605475052350759,1.187920183148235,-1.497224032729119
1782816140438518800,4.273518798828125,8.458609835913776,1.0815741702347994,-2.3457906804695723
1782816140458600700,4.2936005859375,9.438595270764827,0.7636898315742612,-2.9836691895514726
1782816140478683000,4.313682861328125,10.54897760233283,0.42724736130759117,-3.06686214428395
1782816140498764800,4.333764892578125,10.639694230568407,0.7638673800982534,-3.037436435574293
1782816140518846700,4.3538466796875,9.659743282508849,1.20436256470941,-2.659053204548359
1782816140538928600,4.3739287109375,8.39498813535273,0.9233754396829753,-1.9385501882717011
1782816140559010800,4.3940107421875,7.057214513736963,1.1923523934420197,-1.124223517654836
1782816140579092700,4.4140927734375,6.393658250302076,1.507853709423542,-1.118824654285982
1782816140599174700,4.434174560546875,5.930931433203816,1.2177655785746873,-0.5603282364115119
1782816140619256800,4.4542568359375,4.071763116943836,0.9524528464116155,-0.15729531543869524
1782816140639338800,4.4743388671875,2.9553993728786705,0.6737875884614885,0.14379413842856884
1782816140659420700,4.494420654296875,-5.009512753611803,0.4556731722597033,0.8208741925641894
1782816140679502800,4.5145029296875,-16.516652666044234,-1.170068300115317,5.02417665425837
1782816140699584800,4.534584716796875,-21.141322052705288,-0.0753770202845335,5.580436910578608
1782816140719666700,4.554666748046875,-23.50673717883825,0.6684185357090086,3.128965256975591
1782816140739748600,4.57474853515625,-22.9192435798645,1.301651337876916,0.9217900701876729
1782816140759830800,4.594830810546875,-21.66730290609598,1.469981805538386,-0.2248295498009771
1782816140779913000,4.614912841796875,-17.504486476308106,0.9465836621172725,-2.4580597998216747
1782816140799995000,4.634994873046875,-9.992717346012592,0.021038038788363335,-1.4381635026037691
1782816140820077000,4.6550771484375,-0.07451601954102516,-1.0955652131211011,-0.9352760130960494
1782816140840159000,4.675158935546875,6.219721487066149,-0.8138359644904732,-1.9859201344728468
1782816140860241000,4.695240966796875,8.289870056799053,0.039426987840048965,-2.7809230959385633
1782816140880322800,4.71532275390625,8.86797097352743,-0.01802563216462731,-2.7837828692838547
1782816140900405000,4.735405029296875,9.789698865199089,-0.5482491280937567,-2.638381003397703
1782816140920487000,4.75548681640625,10.467629690945149,-0.6046512161321937,-2.483332480505109
1782816140940568800,4.77556884765625,10.708192012733221,-0.7164644084103405,-2.4317549996115266
1782816140960651000,4.795651123046875,10.599811132991313,-0.19627715332712978,-1.6821986150689423
1782816140980733000,4.81573291015625,10.161789133560656,-0.4270004738744348,-1.697223457982391
1782816141000814800,4.83581494140625,9.909012642365694,0.41505576905868946,-1.0835196052141487
1782816141020897800,4.855897705078125,9.031676850128173,0.27225809432156384,-0.6270367970719933
1782816141040980000,4.87597998046875,8.300540503895283,0.37497576067000626,0.29869053949937224
1782816141061062000,4.896061767578125,7.397634801593423,0.5139773310597986,0.6771615218739956
1782816141081143800,4.916143798828125,6.709926093676686,0.9302264746215194,0.7671740204282105
1782816141101225700,4.936225830078125,5.1510827862501145,1.1393629999238997,1.1356117576315998
1782816141121308000,4.956307861328125,1.343402567413449,1.3500890594400465,1.3146942131929098
1782816141141389800,4.976389892578125,-4.5004976480692624,1.1683491481725126,0.6445372363187373
1782816141161471700,4.9964716796875,-10.50527991490364,0.2232532403949648,-0.49567616988942026
1782816141181554000,5.016553955078125,-17.14283576889634,-1.7280230853937566,-1.726335424567759
1782816141201636000,5.036635986328125,-17.563033357822896,-0.06549202447757124,0.5016078980259597
1782816141221718000,5.056718017578125,-16.343968533217907,-2.9506089237317443,-0.6352599240813404
1782816141241800200,5.07680029296875,-14.097801717799902,-2.9798072534263134,0.5879876661010086
1782816141261882000,5.096882080078125,-11.525255414837599,-2.2762198622457683,2.3314994125276804
1782816141281964000,5.116964111328125,-8.912270718502997,-0.8516473703600466,2.4393955774925646
1782816141302046000,5.1370458984375,-5.6150552194952965,-0.401256522417441,0.3927573549456894
1782816141322128100,5.157128173828125,-0.8184890509933233,-0.012492365293763578,-0.07620579925887286
1782816141342210000,5.1772099609375,3.0003795013338324,-0.08054521670266986,0.05471172379869967
1782816141362292000,5.1972919921875,6.038022857657075,-0.19445775588024405,0.7878855306759476
1782816141382374100,5.2173740234375,7.722025745669007,-0.16997542185690254,0.8178968572538345
1782816141402456000,5.2374560546875,8.851953904706239,-0.23249767327606677,0.07071428917050361
1782816141422538000,5.2575380859375,9.653729721307753,-0.24257910497058183,-0.2904869209080934
1782816141442620200,5.2776201171875,10.194218408000468,-0.11500833505764603,0.3759707630567252
1782816141462702000,5.2977021484375,10.779646306616067,0.08384374679140746,1.2285235578238964
1782816141482784000,5.317783935546875,10.721616142451763,0.5582455849185586,1.3986686736918985
1782816141502866000,5.337865966796875,10.392628518235682,1.0336426446281373,0.727068950663507
1782816141522948000,5.357947998046875,9.766702020493149,1.6933755503825842,0.44828255055174226
1782816141543030000,5.378030029296875,8.985535276678204,2.314233804950118,0.6105044722050428
1782816141563112000,5.39811181640625,8.164042952215672,2.6861674214452504,0.8975383300498128
1782816141583194000,5.418194091796875,6.485670763567089,3.1743671179741617,1.1072247443199157
1782816141603276000,5.438276123046875,3.034728345659375,3.4479867829725146,0.7922698832400142
1782816141623358000,5.45835791015625,-3.311148747292161,2.4662048200935125,-0.9725981010787188
1782816141643440000,5.478440185546875,-8.828412870121001,-0.15484686284065247,-2.3000983120918272
1782816141663522000,5.49852197265625,-13.714700226080417,-1.1399132542178034,-1.4182729533500968
1782816141683604000,5.51860400390625,-17.15452854477763,-0.15650770872496067,-1.0818126551657914
1782816141703686000,5.538685791015625,-18.090192607343194,-0.299821662421152,-3.042670829096436
1782816141723768000,5.55876806640625,-16.887045482838154,-0.9310149215854704,-3.6918297338664527
1782816141743850000,5.57885009765625,-14.30110544529557,-1.582851813393086,-2.2433470818221566
1782816141763932000,5.598931884765625,-10.276794984400272,-2.0390363692410287,-1.171243189113587
1782816141784014000,5.61901416015625,-4.533294586777687,-2.0705115578263995,-0.6427985759578645
1782816141804096000,5.639095947265625,0.8163497008770704,-1.2726909085914493,0.2631424937182106
1782816141824178000,5.659177978515625,3.489719015547633,-0.16650314263645558,-0.09350099825710058
1782816141844260000,5.679260009765625,4.867915248444676,-0.05276422472642734,0.17585699070878325
1782816141864342000,5.699342041015625,5.92743599230349,-0.34790764793716367,0.8073121156796813
1782816141884424000,5.719423828125,7.028508059212565,-0.6816647515773773,0.6511623535469174
1782816141904505900,5.739505859375,8.862253764924407,-0.7790523820094764,-0.36431335074976084
1782816141924588000,5.759588134765625,10.51365260645151,-0.7314487001176924,-1.7899414891682563
1782816141944670000,5.779669921875,10.921097096788882,-0.6254666251458227,-1.893081691777706
1782816141964752000,5.799751953125,10.130193387335538,-0.27909977690987287,-1.4340432078033685
1782816141984834000,5.819833984375,8.310756777483224,0.36379962907396257,-0.9032639411550014
1782816142004916000,5.839916015625,7.13139209510386,0.944413916862756,-0.924579335580021
1782816142024998000,5.859997802734375,7.1972349788457155,1.5247154123753308,-1.346502871516347
1782816142045080000,5.880080078125,7.371042562744021,2.094150207567215,-1.7241145336478947
1782816142065162000,5.900161865234375,4.550384253266453,2.7815476575776934,-1.1249993243329226
1782816142085244000,5.920243896484375,-1.5478414364188908,2.1002081924319267,-1.7243308067470788
1782816142105325800,5.940325927734375,-6.191799460917711,0.07276143095865845,-2.051039087854326
1782816142125408500,5.960408447265625,-9.85385364972353,-2.408315525704622,-0.849125158406049
1782816142145490400,5.980490478515625,-14.489479314684868,-0.9613125908240675,1.1174512470409272
1782816142165572400,6.000572265625,-16.435609875082967,-0.4040837817326188,-1.6953806065946817
1782816142185654500,6.020654541015625,-16.96886919504404,-0.6830301947116851,-2.2119792991340157
1782816142205736400,6.040736328125,-16.997288649320602,-1.2436812333367764,0.10258943685889244
1782816142225818400,6.060818359375,-13.194718905365466,-1.471545839984715,0.3242231132280081
1782816142245900300,6.080900390625,-6.634115942671895,-1.3453054784253238,0.015724077223986388
1782816142265982500,6.100982421875,0.08796937535405158,-0.9724836809188127,-0.22326310420185327
1782816142286064400,6.121064453125,4.477454626134038,-0.9064361414503306,-0.5798937184292823
1782816142306146300,6.141146240234375,6.531445257270335,-0.9988665148012339,0.19659904222525654
1782816142326228500,6.161228515625,7.670625813299417,-0.9870441211909056,0.6395750108014792
1782816142346310700,6.181310546875,9.429049443784356,-0.7003297045588492,-0.4251703358378261
1782816142366392600,6.201392578125,11.095253055733442,-1.1903031327620148,-2.1019052056081593
1782816142386474500,6.221474609375,13.045168979889153,-1.6031784159764646,-2.5569658719927073
1782816142406556700,6.241556640625,13.611381305903196,-2.024742032559216,-0.6676419253133237
1782816142426638600,6.261638671875,12.773300834733247,-1.8800947844326494,1.8059286012426017
1782816142446720500,6.281720458984375,10.715616609776019,-1.5740934835284948,2.1487778698116538
1782816142466802700,6.301802734375,8.099010215812921,-1.016112979286909,2.085402106835693
1782816142486884600,6.321884521484375,5.263522001472115,-0.22813838208802042,1.3906781133294104
1782816142506966500,6.341966552734375,2.825342083379626,0.4114823310187086,0.3116578653611243
1782816142527048700,6.362048583984375,-1.6917080555617807,0.7743627628885209,-0.010317980396747589
1782816142547130600,6.382130615234375,-6.732699651020765,0.11522723850533366,-0.1534301279105246
1782816142567212500,6.402212646484375,-11.427447367036342,-1.706849802853167,0.8191963224798441
1782816142587294500,6.42229443359375,-15.864033976209162,-2.7054920073792337,1.5809762287795543
1782816142607376600,6.442376708984375,-17.236003881937265,-2.3319465717732903,0.3169553141821176
1782816142627458600,6.46245849609375,-16.636602403026817,-2.2945479844883083,0.22164843554683028
1782816142647540500,6.48254052734375,-15.958831736278533,-0.5881617440262809,1.8021088968239725
1782816142667622700,6.50262255859375,-15.285077903956173,0.3501442478828132,2.6111133495047687
1782816142687704600,6.52270458984375,-11.466500443530082,0.16427684488911182,2.9964444999724624
1782816142707786500,6.542786376953125,-4.854189505431056,-0.4059423786787316,2.2237892716541885
1782816142727868700,6.56286865234375,0.8034750217348336,-0.39065205322951074,0.6610128625623881
1782816142747950600,6.58295068359375,3.6860002970606085,-0.4797978884844109,0.08537439042478799
1782816142768032500,6.603032470703125,5.978372983336448,-0.3183789172444492,-0.09831848154142499
1782816142788114400,6.623114501953125,7.60379742565155,-0.015567790683731436,-0.7148350536428392
1782816142808197400,6.643197265625,8.063088423082233,0.4514646146539598,-1.252114569030702
1782816142828279600,6.663279541015625,8.349291383060812,0.746385134095326,-1.8340856051906942
1782816142848361500,6.683361572265625,8.569638599815963,1.0550270857013762,-1.4487519705049692
1782816142868443400,6.703443359375,8.55135066345334,1.7776073466435074,-0.5570532333288342
1782816142888525600,6.723525634765625,8.551343649190663,2.630568576081097,-0.3210898932361975
1782816142908607500,6.743607421875,8.408620354864,3.5247353838711977,-0.9231564631700515
1782816142928689400,6.763689453125,8.849002069163323,4.229458939474821,-1.1194899863269179
1782816142948771600,6.783771484375,9.37582989477217,4.539669382506609,-0.6476069991528988
1782816142968853500,6.803853515625,9.779237092417478,4.134892650073766,0.23140385015737264
1782816142988935400,6.823935302734375,9.303426921862362,3.407427685829997,0.6194130241952837
1782816143009017300,6.844017333984375,7.038842406222224,2.1419494850963354,0.3608561229679733
1782816143029099500,6.864099609375,3.8910634354442357,-1.7995003217607735,-0.398253833470121
1782816143049181400,6.884181396484375,0.5054775790661573,-6.222464648294449,1.1690491131354124
1782816143069263400,6.904263427734375,-8.643457284742594,-4.457602801455557,2.065934166908264
1782816143089345500,6.924345458984375,-17.72835017675161,-0.1954443192321807,2.545101246675849
1782816143109427500,6.944427490234375,-26.146138757455347,0.3588918371576816,1.947025901802629
1782816143129509400,6.96450927734375,-21.49838777041435,2.7756764274567365,2.091312938314676
1782816143149591600,6.984591552734375,-14.33801800262928,2.745466582632065,-0.11366481149420142
1782816143169673500,7.004673583984375,-11.840281149196624,1.7600148451991378,0.8275589310251176
1782816143189755400,7.02475537109375,-9.216023948219418,0.5727688715180381,0.5389104045253247
1782816143209837300,7.04483740234375,-3.825042857047915,-0.3901171426352113,-0.7760231703814119
1782816143229919500,7.06491943359375,1.4244628940314055,-0.9842341052714735,-1.4000227186493575
1782816143250001400,7.08500146484375,5.948782731714845,-1.7741880397193133,-3.570314647263288
1782816143270083300,7.105083251953125,9.573772387495636,-1.1843312187455595,-4.147461332006753
1782816143290165500,7.12516552734375,10.675663369572161,-1.1791124611839652,-4.198466419839859
1782816143310247400,7.145247314453125,10.685698441374301,-1.1823022702012211,-4.148263880561292
1782816143330329300,7.165329345703125,9.893456176793574,-1.3274828214868903,-3.4798248135209082
1782816143350411500,7.18541162109375,8.572571730658412,-1.0347867731619627,-2.455032560954988
1782816143370493400,7.205493408203125,8.276250696769356,-0.407065062565729,-2.3204861433431505
1782816143390575400,7.225575439453125,8.517600954064726,0.1308667061857879,-2.232832994331419
1782816143410657300,7.2456572265625,8.078220525762438,0.45390667404383417,-1.4770529129683971
1782816143430739500,7.265739501953125,6.4728510294824835,0.8711594416901469,-0.9260214972123503
1782816143450821400,7.2858212890625,5.099940628033876,1.5047738635867833,-0.22217019439861177
1782816143470903300,7.3059033203125,5.398226824516057,1.5537994680404663,-0.3314017726857215
1782816143490985500,7.3259853515625,3.9918870316743846,0.4836944940641522,-0.15728329620733855
1782816143511067400,7.3460673828125,-2.4269243645846843,-0.3255257933244109,1.262816726439446
1782816143531149300,7.3661494140625,-10.56469773403406,-0.8118028512276708,2.7573899523988366
1782816143551231500,7.3862314453125,-16.888670453691482,1.251911447674036,3.688189331537485
1782816143571313400,7.4063134765625,-17.6291568120718,0.8619336404442787,2.5695079581797122
1782816143591395300,7.426395263671875,-17.48786267376542,0.2435227790288627,1.9007083872638642
1782816143611477200,7.446477294921875,-17.602437147450445,0.6881120280206203,0.09908201325982809
1782816143631559400,7.466559326171875,-15.614641866755484,0.4664882885236293,-1.9301761815495788
1782816143651641300,7.486641357421875,-11.556671128320692,-0.22563268287740645,-2.1822155906416474
1782816143671724300,7.506724365234375,-5.338864534965158,-0.6551329376783221,-1.3285048580110073
1782816143691806200,7.52680615234375,0.5783674587100744,-1.0859375530760735,-0.1930133292255923
1782816143711888400,7.546888427734375,4.92460451939404,-1.2556262304134667,0.8932989389143884
1782816143731970300,7.56697021484375,8.80150382040739,-1.1561994953691959,0.9948652432706206
1782816143752052200,7.58705224609375,11.468049426537752,-0.8427426177620887,0.043224717888887966
1782816143772134400,7.607134521484375,12.184646375286578,-0.4190878010537475,-1.5188782306544482
1782816143792216300,7.62721630859375,11.60143849080801,-0.6000080665014684,-2.6101778222203253
1782816143812298200,7.64729833984375,10.978766026425362,-0.8910976294778287,-3.1332851660013197
1782816143832380400,7.66738037109375,11.033687703180313,-0.6372247213482857,-2.8464477075114845
1782816143852462300,7.68746240234375,12.042018358027935,-0.1690118740543723,-2.373405394234508
1782816143872544300,7.707544189453125,11.961687514728307,0.5876726088024675,-2.0346853344246743
1782816143892626200,7.727626220703125,11.13880578173399,1.1611162743095307,-1.3782044162034988
1782816143912708400,7.747708251953125,9.510871402424574,1.5646157533481717,-0.7483944280911237
1782816143932790300,7.767790283203125,7.0410367013961075,2.4482665739513934,-0.29414869481865313
1782816143952872200,7.7878720703125,2.803109208783507,3.0532953912243244,0.11300689557474106
1782816143972954400,7.807954345703125,-3.436547981852293,2.3105749901816246,0.47946858346480875
1782816143993036300,7.828036376953125,-9.193066851001978,-0.0011530424926429986,1.406979990441352
1782816144013118200,7.8481181640625,-14.948668020784854,-2.2997229029081763,3.2970237758278844
1782816144033200400,7.868200439453125,-20.993982789015767,-0.9958465824581683,5.4638347304582595
1782816144053282300,7.8882822265625,-20.959804625082015,-0.6063892919711769,3.780419579206407
1782816144073364200,7.9083642578125,-21.028997988295554,-0.15263737009763717,3.6291233945846555
1782816144093446100,7.928446044921875,-21.24784298379421,1.5398308561816811,3.7597599452763792
1782816144113528300,7.9485283203125,-16.093790826344488,1.7193126863241195,2.836452675458789
1782816144133611000,7.968611083984375,-7.6153054926157,0.5002270381268114,1.3755281827315686
1782816144153693200,7.988693115234375,0.45533553780317304,0.1595174119349569,0.20956220336854456
1782816144173775000,8.008775146484375,5.880068091928958,-0.02197860757410526,-0.8482846159286797
1782816144193857300,8.028857177734375,8.283916116830706,-0.28423122151419516,0.18928923066854475
1782816144213939200,8.048939208984375,10.045696072006224,-0.7249705170795321,1.1901447273299097
1782816144234021000,8.069021240234376,11.305525453197955,-0.5433445145152509,1.0839985478375107
1782816144254103300,8.089103271484374,11.738918039262295,-0.5366749736234545,0.4567784300878644
1782816144274185200,8.109185302734375,12.822801655483245,0.4501277400270104,-0.12012012511342764
1782816144294267100,8.12926708984375,13.320222769343852,1.9222475805073975,-0.8349019141990691
1782816144314349000,8.14934912109375,13.447779474198818,3.611505320307612,-1.1109186304017902
1782816144334431200,8.16943115234375,13.350353703713417,5.089794497072696,-0.7558509546421468
1782816144354513200,8.18951318359375,11.623304285657404,6.234463129124045,-0.8081831994257866
1782816144374595000,8.209594970703124,9.849202024525404,7.539057534715533,-0.8514496558308601
1782816144394677200,8.22967724609375,9.542725507324933,7.861497929245233,-2.1419526999667284
1782816144414759200,8.24975927734375,10.41570544244051,7.04328769519329,-3.5947476622521877
1782816144434841000,8.269841064453125,10.465539440667628,5.355459695935249,-3.3005972504004832
1782816144454923300,8.28992333984375,6.042738195741176,1.0647484153792262,-2.7309666403755544
1782816144475005200,8.310005126953126,-4.375635589125753,-3.5250486876040696,-0.3286860839862376
1782816144495087000,8.330087158203124,-18.426685492622852,-2.453178457520902,3.0274411112606523
1782816144515169000,8.3501689453125,-30.14505875650644,1.7464768798425792,3.0951056574717164
1782816144535251200,8.370251220703125,-35.86319090411663,0.9025960518307984,4.924176649370789
1782816144555333000,8.3903330078125,-32.2993282094717,-2.9401728699132796,6.518136278364062
1782816144575415000,8.4104150390625,-25.81919695985317,-4.2532323215112084,4.363521957483887
1782816144595497200,8.430497314453126,-18.265404212820528,-3.5035894277289508,1.1425545625068247
1782816144615579100,8.4505791015625,-8.278788690814375,-3.261069249871373,-0.7021582351602613
1782816144635661000,8.4706611328125,0.04834931262731552,-3.584853460225463,0.7809601883921772
1782816144655743200,8.4907431640625,5.259143347996473,-2.67722511331588,1.482462516926974
1782816144675825200,8.5108251953125,8.411441257503629,-0.473416845677793,0.6787632579822093
1782816144695907000,8.530906982421875,9.170766171866655,1.8576507513038814,-0.2563848909504711
1782816144715990000,8.550989990234376,9.169363903853297,3.2093183121070266,-1.2925553004905581
1782816144736071200,8.5710712890625,10.206911885356902,4.059779833683371,-1.7292184326581657
1782816144756153000,8.591153076171874,11.766084278607368,4.725783490270376,-1.7301814324714242
1782816144776236000,8.611236083984375,12.72806702377796,5.113551804757118,-1.4437339962124824
1782816144796318000,8.63131787109375,11.955766307985781,5.731905236896872,-0.5753869085293263
1782816144816400100,8.651400146484375,9.941901351010799,6.11805851740241,-0.15708422997128219
1782816144836482000,8.67148193359375,8.734376157552003,6.483986756002903,-0.15924188292920588
1782816144856564000,8.69156396484375,8.592458918911218,6.109828449195623,0.6410938178665936
1782816144876646100,8.711646240234375,7.873703330823779,5.363411531722545,2.1172962514854965
1782816144896728000,8.73172802734375,5.609625595661997,4.053440401528776,2.267572445409745
1782816144916810000,8.75181005859375,3.0142116273313757,1.7628516760602593,-0.0383848949085921
1782816144936892200,8.77189208984375,-1.6970242821484802,-3.0648753543809053,-1.8199167945846915
1782816144956974000,8.79197412109375,-5.809048682332039,-9.515462237346172,-1.2896265535622835
1782816144977056000,8.812055908203124,-12.92439974321723,-9.543540330839157,0.501501624639891
1782816144997138000,8.832137939453125,-17.172252417516706,-5.802096963497996,-0.45479288229383524
1782816145017220000,8.85222021484375,-18.503342031323907,-4.122921057251095,1.6047262299403546
1782816145037302000,8.872302001953125,-16.008322035634517,-5.503844084763527,1.6668199902817606
1782816145057384000,8.892384033203125,-11.666187149572371,-5.712555224260687,1.8952005836278198
1782816145077466000,8.912466064453126,-9.958555548691749,-3.7032463231548665,1.490276697809249
1782816145097548000,8.932548095703124,-5.7852282462835305,-1.26618050378412,-0.5004645001444965
1782816145117630000,8.9526298828125,0.5962976676762104,0.06945844389051199,-0.8180701679941267
1782816145137712000,8.972712158203125,5.517108640006184,0.39603257722407575,0.20359226211346684
1782816145157794300,8.992794189453125,8.667816065451502,1.3588587874814868,0.19860749597083777
1782816145177876200,9.012876220703125,9.510618888968228,2.600329797422886,-0.5030959080940112
1782816145197958100,9.032958251953126,8.642636616009474,3.3847327466800805,-1.374104579669237
1782816145218040300,9.053040283203124,8.1172893843472,3.817549578683078,-2.009344556941092
1782816145238122200,9.073122314453125,8.214397759446502,4.1056799995929,-1.7994822015821932
1782816145258204200,9.0932041015625,8.806106930288673,4.503266820521652,-1.4504330554597078
1782816145278286300,9.113286376953125,8.920161179491878,4.37608684002459,-0.9198210351370274
1782816145298368300,9.1333681640625,8.561232005998491,4.024361898821592,-0.32336240474544464
1782816145318450200,9.1534501953125,7.865448128175735,3.4224922762319445,0.4314128469565883
1782816145338532000,9.173531982421874,6.491971909537911,2.4200021641060707,1.4161911786399781
1782816145358614300,9.1936142578125,5.458824793341756,0.597592675922811,1.0673227959118783
1782816145378696200,9.2136962890625,4.721126604375243,-1.309454120582342,-0.03747165252119303
1782816145398778000,9.233778076171875,-0.807008456557989,-3.3603234048277137,-1.679387503170967
1782816145418860300,9.2538603515625,-5.167509020394086,-4.27561074205786,-2.3019629369199275
1782816145438942200,9.273942138671876,-6.204941851085424,-1.0189715835884212,-2.255250285583734
1782816145459024100,9.294024169921874,-8.585466283544898,1.0356932935476302,-1.4269560260213912
1782816145479106300,9.314106201171874,-10.790398002254962,0.626207360510528,-2.2921862237930295
1782816145499188200,9.334188232421875,-8.09809953070879,0.9348822645381093,-2.6680978040084242
1782816145519270100,9.354270263671875,-2.9674849474698304,0.25485534329563375,-1.7509069712445138
1782816145539352000,9.37435205078125,-2.0755179878115655,0.6269748377516865,0.4383784116528928
1782816145559434200,9.394434326171876,-4.209589871400595,0.6661658614113927,1.0167617985844613
1782816145579516200,9.41451611328125,-4.046847871395945,0.12234043151140213,1.3473597806066273
1782816145599598000,9.43459814453125,-1.8637310941308736,-0.19446867913305757,1.8502431053958832
1782816145619680300,9.45468017578125,1.6518635364294052,-0.4912374567896127,1.4148811189547181
1782816145639762200,9.47476220703125,2.5383389129340648,-0.6465142354801297,0.8204592550877481
1782816145659844000,9.494843994140625,1.7408856357067823,-1.1249132534846662,1.1941547666888683
1782816145679926300,9.51492626953125,1.8046406072586774,-1.4762763756379484,1.8777391612172125
1782816145700008200,9.53500830078125,0.747901018550992,-1.7089841845333575,1.2045027768976986
1782816145720090000,9.555090087890624,1.034140218886733,-1.384737032842636,0.7633035356704145
1782816145740172000,9.575172119140625,1.8790759627789257,-2.1128774121299383,1.7193286145456135
1782816145760254200,9.595254150390625,-0.6865531081408262,-1.621682333177328,2.5434479265108703
1782816145780336000,9.615336181640625,-0.12341887439787387,-0.4365831987991929,1.002605336003378
1782816145800418000,9.63541796875,-0.893757350206375,0.7953244485050439,-0.8805933327287435
1782816145820500200,9.655500244140624,-1.6217583210229873,1.6435799844697117,-1.0544319693524389
1782816145840582100,9.67558203125,-2.268475677859783,1.165852582116425,-0.2626804108981043
1782816145860664000,9.6956640625,-1.2928022609889507,0.7921583856895565,-0.041300718423211945
1782816145880746200,9.715746337890625,-0.05353109917938709,0.21329671372175216,-0.14127560713584533
1782816145900828200,9.735828125,1.2365116339683533,-0.6315723946750164,0.11074075900735333
1782816145920910000,9.75591015625,1.18172381272614,-0.8184460886344314,0.4064562099523842
1782816145940992000,9.775991943359376,0.06131517718434334,-0.4868152564331889,0.4213598741715774
1782816145961074200,9.79607421875,-0.6167337219834327,0.01273000997453928,-0.0284600602815859
1782816145981156000,9.816156005859375,-0.4799848258912563,0.2628925192788243,-0.5061322435826063
1782816146001238000,9.836238037109375,-0.21670447633862494,-0.026256138762831685,-0.648125908460468
1782816146021320200,9.8563203125,-0.07249532736837863,-0.31440409532934427,-0.34229105016440153
1782816146041402000,9.876402099609376,-0.11020984873473644,-0.34554362221956253,-0.22642869209330527
1782816146061484000,9.896484130859376,-0.009770283386111259,-0.1978402013927698,-0.10780448635974899
1782816146081566200,9.916566162109374,0.3889624927073717,-0.5143599737018346,0.0034323125362396237
1782816146101648100,9.936648193359375,0.4466705853104591,-0.4933583944663405,-0.11819131247531622
1782816146121730000,9.95672998046875,-0.0005500350981950759,-0.10333061061501503,-0.25430147227253763
1782816146141811500,9.9768115234375,-0.18596330111622808,0.09255904123187064,-0.29102902842815964
1782816146161893400,9.996893310546875,0.00490998387336731,0.007813011838495731,-0.006019881344027817
1782816146181975300,10.016975341796876,-0.05281739795207977,-0.21078268507421016,0.24324359676130114
1782816146202057500,10.037057373046874,0.15523440085351467,-0.18855653247982262,0.06674169574510305
1782816146222139400,10.057139404296874,0.13948679662346838,0.05011573777794838,-0.46342926627919073
1782816146242221300,10.07722119140625,-0.20677929465174674,0.13050503326654433,-0.3694325203943997
1782816146262303200,10.09730322265625,-0.5743786813348531,0.037600539597868916,0.10617184365661814
1782816146282385400,10.117385498046875,-0.4723363569647073,-0.09317834217399358,0.15837169423224404
1782816146302467300,10.13746728515625,-0.47638066391944883,-0.10934855573028325,0.1351136595731601
1782816146322549200,10.15754931640625,-0.17517419607639312,-0.06970949604213238,0.05141069122562185
1782816146342631400,10.17763134765625,0.5069277778744697,0.06875058788210153,0.09869889569375663
1782816146362713300,10.19771337890625,0.6189397075951099,-0.0088861940279603,-0.05051352319018915
1782816146382795300,10.217795166015625,0.05116320100426674,0.09179010268598795,-0.38884277531784023
1782816146402877400,10.23787744140625,0.5508084206551314,0.34377047506719827,-0.08999306320138276
1782816146422959400,10.25795947265625,0.8274895190507173,-0.08751695541143417,0.37039709111023694
1782816146443042300,10.278042236328124,0.48212592957317824,-0.25439006387144325,0.5797013741949573
