time,seconds_elapsed,z,y,x
1782816217820853500,0.067853515625,-0.1782565712928772,-0.183349147439003,-0.171852707862854
1782816217840935400,0.087935302734375,-0.251895546913147,-0.2369624227285385,-0.005464648362249136
1782816217861017300,0.108017333984375,-0.449388712644577,0.05397748574614525,-0.02608269453048706
1782816217881099500,0.128099609375,-0.494208961725235,0.788979709148407,-0.3944558799266815
1782816217901180400,0.148180419921875,-0.3088509142398834,2.0041563510894775,-0.7380805015563965
1782816217921262600,0.1682626953125,-0.0947902575135231,2.8466591835021973,-0.5569152235984802
1782816217941344500,0.188344482421875,0.1548844873905182,3.1412806510925293,-0.2862032651901245
1782816217961426400,0.208426513671875,0.5150447487831116,3.4979162216186523,0.1334974765777588
1782816217981507300,0.22850732421875,1.0128262042999268,4.27290678024292,0.4875190556049347
1782816218001589200,0.24858935546875,1.5714366436004639,4.9265289306640625,0.6389197111129761
1782816218021671200,0.268671142578125,1.9064438343048096,4.707248210906982,0.5287323594093323
1782816218041753300,0.28875341796875,1.680834174156189,3.1109611988067627,0.40175583958625793
1782816218061834200,0.308834228515625,0.6993170380592346,0.6799414753913879,0.21718834340572357
1782816218081916400,0.32891650390625,-0.5547997355461121,-1.6546915769577026,-0.11056334525346756
1782816218101998300,0.348998291015625,-1.5935224294662476,-3.150655508041382,-0.47745561599731445
1782816218122080300,0.369080322265625,-2.4299073219299316,-3.4451470375061035,-0.8130736947059631
1782816218142161400,0.389161376953125,-2.4017910957336426,-2.6219873428344727,-0.5141481161117554
1782816218162243300,0.409243408203125,-1.7365797758102417,-1.0295696258544922,0.10413004457950592
1782816218182325200,0.4293251953125,-1.0506411790847778,0.909818172454834,-0.03851194679737091
1782816218202407200,0.4494072265625,-0.6625568270683289,2.121067523956299,-1.5536081790924072
1782816218222488000,0.469488037109375,0.03787685185670853,1.853849172592163,-2.8916103839874268
1782816218242570200,0.4895703125,0.66288822889328,1.0437793731689453,-3.2119696140289307
1782816218262652200,0.509652099609375,1.131129264831543,-0.2214353084564209,-2.607126235961914
1782816218282734000,0.529734130859375,1.5516607761383057,-1.2175476551055908,-1.642443299293518
1782816218302815200,0.549815185546875,1.6564379930496216,-1.3849477767944336,-0.4204055368900299
1782816218322897200,0.569897216796875,1.3322397470474243,-0.9951621294021606,0.6964031457901001
1782816218342979000,0.58997900390625,0.7657935619354248,-1.455538034439087,1.1075879335403442
1782816218363061200,0.610061279296875,0.3922337591648102,-3.4722278118133545,1.2122560739517212
1782816218383142100,0.63014208984375,-0.38836905360221863,-4.336640357971191,0.8348502516746521
1782816218403224300,0.650224365234375,-0.9253392219543457,-4.526012897491455,-0.14580799639225006
1782816218423306200,0.67030615234375,-0.9864813685417175,-3.590331554412842,-0.37387657165527344
1782816218443388200,0.69038818359375,-0.9833382368087769,-2.198230743408203,-1.1070270538330078
1782816218463469300,0.71046923828125,-0.893655002117157,-0.9894269108772278,-1.6425657272338867
1782816218483551200,0.73055126953125,-0.7586503624916077,-0.6940632462501526,-1.9282068014144897
1782816218503633200,0.750633056640625,-0.5954499244689941,-0.7528376579284668,-1.8529272079467773
1782816218523715300,0.77071533203125,-0.22327183187007904,-0.796999454498291,-1.587131142616272
1782816218543796200,0.790796142578125,-0.018206236883997917,-0.4142187237739563,-1.6538480520248413
1782816218563878400,0.81087841796875,0.24672242999076843,-0.3022077977657318,-1.5189056396484375
1782816218583960300,0.830960205078125,0.198031485080719,-0.5005505084991455,-1.044885277748108
1782816218604042200,0.851042236328125,-0.02675078622996807,-0.8742150664329529,-0.48526307940483093
1782816218624123100,0.871123046875,-0.13421531021595,-1.0845913887023926,0.14731527864933014
1782816218644205000,0.891205078125,-0.09716575592756271,-0.9571141600608826,0.8461471199989319
1782816218664287000,0.911286865234375,0.007905108854174614,-0.7160541415214539,1.305012583732605
1782816218684369200,0.931369140625,0.0837913528084755,-0.4092862010002136,1.2677009105682373
1782816218704450000,0.951449951171875,0.12475496530532837,-0.2598581314086914,0.9169566035270691
1782816218724532200,0.9715322265625,0.08136066049337387,-0.05872917175292969,0.9409070014953613
1782816218744614100,0.9916142578125,0.047708574682474136,0.002887329086661339,1.3189798593521118
1782816218764696000,1.011696044921875,0.0659647136926651,-0.13532191514968872,1.51396644115448
1782816218784777200,1.031777099609375,0.02345343679189682,-0.32867082953453064,1.4057914018630981
1782816218804859100,1.051859130859375,-0.032804034650325775,-0.28981098532676697,1.4404947757720947
1782816218824941000,1.071941162109375,0.05504690110683441,-0.23661918938159943,1.3774192333221436
1782816218845023200,1.092023193359375,0.07557395100593567,-0.2321290373802185,0.8048393130302429
1782816218865104100,1.112104248046875,-0.01029425673186779,-0.30592721700668335,-0.2437964379787445
1782816218885186300,1.132186279296875,-0.056256212294101715,-0.13004766404628754,-1.262557029724121
1782816218905268200,1.152268310546875,0.10842331498861313,0.22581112384796143,-1.6440271139144897
1782816218925350100,1.17235009765625,0.32459667325019836,0.33009442687034607,-1.8075838088989258
1782816218945431300,1.192431396484375,0.2907753586769104,0.11521685123443604,-2.1764814853668213
1782816218965513200,1.21251318359375,0.1622706800699234,-0.10043250769376755,-2.3094911575317383
1782816218985595100,1.23259521484375,0.3845076262950897,0.31246498227119446,-1.5406582355499268
1782816219005677300,1.25267724609375,0.8149039149284363,1.0816597938537598,-0.5571373701095581
1782816219025758200,1.27275830078125,0.9787338972091675,1.2855888605117798,0.23658451437950134
1782816219045840400,1.29284033203125,0.6947942972183228,1.1220775842666626,0.8310876488685608
1782816219065922300,1.31292236328125,0.5115399360656738,0.8455424308776855,1.3860234022140503
1782816219086004200,1.333004150390625,0.509154736995697,0.5679815411567688,1.736141324043274
1782816219106085400,1.35308544921875,0.47037822008132935,0.15028682351112366,1.7182691097259521
1782816219126167300,1.373167236328125,0.28152599930763245,-0.23975558578968048,1.5618590116500854
1782816219146249200,1.393249267578125,0.04805299639701843,-0.5293519496917725,1.4098033905029297
1782816219166331400,1.413331298828125,-0.1809341460466385,-0.6868555545806885,1.3844083547592163
1782816219186412000,1.433412109375,-0.3458852171897888,-0.5864003300666809,1.3055663108825684
1782816219206494500,1.453494384765625,-0.2807447016239166,-0.49920064210891724,1.071311116218567
1782816219226576600,1.47357666015625,-0.3228049874305725,-0.6780961751937866,0.5166972279548645
1782816219246658600,1.493658447265625,-0.4167467951774597,-0.575140655040741,0.6585692763328552
1782816219266739700,1.51373974609375,0.24316689372062683,0.11954577267169952,1.8991130590438843
1782816219286821600,1.533821533203125,1.280186653137207,0.9659370183944702,2.374183416366577
1782816219306903600,1.553903564453125,2.302178382873535,1.1718671321868896,1.6268970966339111
1782816219326984700,1.573984619140625,2.7185158729553223,-0.6209151744842529,-0.34924766421318054
1782816219347066600,1.594066650390625,1.9785833358764648,-2.2898638248443604,-1.737678050994873
1782816219367148500,1.6141484375,1.28169584274292,-2.154158592224121,-2.229231595993042
1782816219387230700,1.634230712890625,1.1416001319885254,-0.5536624193191528,-2.370028257369995
1782816219407311600,1.6543115234375,1.0720182657241821,0.6742251515388489,-3.063074827194214
1782816219427393800,1.674393798828125,0.7378045916557312,1.179211974143982,-3.4958176612854004
1782816219447475700,1.694475830078125,0.08742188662290573,1.5602037906646729,-3.5155115127563477
1782816219467557600,1.7145576171875,-0.6011305451393127,2.1057474613189697,-3.0398497581481934
1782816219487638800,1.734638671875,-1.0372246503829956,2.300783634185791,-2.1015970706939697
1782816219507720700,1.754720703125,-1.46865713596344,1.6089528799057007,-1.0304380655288696
1782816219527802600,1.774802734375,-1.5285091400146484,0.7791308760643005,-0.33052149415016174
1782816219547884800,1.794884765625,-1.2778170108795166,0.48041775822639465,0.2127813845872879
1782816219567965700,1.814965576171875,-1.0887465476989746,0.38600391149520874,0.6466739177703857
1782816219588047600,1.835047607421875,-1.0163192749023438,0.34004396200180054,1.030879259109497
1782816219608129800,1.8551298828125,-1.0176076889038086,0.2480851262807846,1.3704595565795898
1782816219628211700,1.875211669921875,-1.097737431526184,0.041368331760168076,1.4875508546829224
1782816219648292600,1.895292724609375,-1.3657058477401733,-0.4736057221889496,1.2919938564300537
1782816219668374500,1.91537451171875,-1.7715396881103516,-1.0809022188186646,0.8164719939231873
1782816219688456400,1.93545654296875,-2.1826696395874023,-1.1760172843933105,0.2868938744068146
1782816219708538600,1.95553857421875,-1.741862416267395,0.06920218467712402,0.477459192276001
1782816219728619500,1.97561962890625,-0.5814555883407593,1.7543647289276123,0.7094650864601135
1782816219748701700,1.99570166015625,0.32351213693618774,2.4943017959594727,-0.1262017786502838
1782816219768783600,2.01578369140625,1.0298436880111694,2.835566759109497,-0.6024108529090881
1782816219788864500,2.035864501953125,1.2187827825546265,0.6154202222824097,-1.232311487197876
1782816219808946700,2.05594677734375,0.51276034116745,-2.1678578853607178,-1.677122712135315
1782816219829028600,2.076028564453125,-0.5725943446159363,-3.5178263187408447,-1.7078193426132202
1782816219849110500,2.096110595703125,-0.7346503734588623,-3.4849159717559814,-1.3725042343139648
1782816219869191700,2.116191650390625,-0.14353808760643005,-2.1497507095336914,-0.8972201943397522
1782816219889273600,2.136273681640625,0.4193483293056488,-0.6746391654014587,-0.4689314663410187
1782816219909355500,2.15635546875,0.8237698674201965,0.04800773039460182,-0.28283974528312683
1782816219929437700,2.176437744140625,0.7251148819923401,-0.17733001708984375,-0.6659359931945801
1782816219949518600,2.1965185546875,0.24574296176433563,-0.23461170494556427,-0.8783775568008423
1782816219969600800,2.216600830078125,-0.20957022905349731,-0.18220537900924683,-0.6183062791824341
1782816219989682700,2.2366826171875,-0.45139214396476746,-0.23293262720108032,-0.0896373987197876
1782816220009764600,2.2567646484375,-0.4556834399700165,-0.4039515256881714,0.5004335045814514
1782816220029845800,2.276845703125,-0.43879434466362,-0.6651067137718201,0.7827159762382507
1782816220049927700,2.296927734375,-0.5434471964836121,-0.741591215133667,0.7508335709571838
1782816220070009600,2.317009521484375,-0.7333264946937561,-0.6945418119430542,0.6041854619979858
1782816220090091800,2.337091796875,-1.0060189962387085,-0.7320499420166016,0.35638606548309326
1782816220110172700,2.357172607421875,-1.2295855283737183,-0.7934888005256653,-0.13964231312274933
1782816220130254800,2.3772548828125,-1.2710061073303223,-0.14487887918949127,-0.5705474019050598
1782816220150336800,2.397336669921875,-0.7892730236053467,1.5244781970977783,-0.18812397122383118
1782816220170417700,2.417417724609375,0.29708102345466614,2.687183141708374,0.48420068621635437
1782816220190499600,2.43749951171875,1.0963126420974731,2.2575900554656982,0.7242838144302368
1782816220210581200,2.457581298828125,1.0399737358093262,0.9635181427001953,0.9178475737571716
1782816220230663400,2.477663330078125,0.5362818837165833,0.010748451575636864,1.305067539215088
1782816220250744300,2.497744384765625,0.043052349239587784,-0.26432108879089355,1.3518933057785034
1782816220270826200,2.517826171875,-0.1382160186767578,-0.6911087036132812,0.4147570729255676
1782816220290908400,2.537908447265625,0.15476101636886597,-0.8459698557853699,-1.071225643157959
1782816220310990300,2.557990234375,0.8446543216705322,-0.44904229044914246,-1.915026068687439
1782816220331071500,2.578071533203125,0.8252133131027222,-0.27440232038497925,-2.484069585800171
1782816220351153400,2.5981533203125,0.11293061822652817,-0.19173379242420197,-2.390218496322632
1782816220371235300,2.6182353515625,0.17121654748916626,0.5606511235237122,-0.8925931453704834
1782816220391317200,2.638317138671875,0.5537916421890259,1.2378886938095093,1.232361912727356
1782816220411398400,2.6583984375,0.9244551658630371,1.3821572065353394,3.0462636947631836
1782816220431480300,2.678480224609375,1.0549650192260742,0.9962888360023499,4.08233642578125
1782816220451562500,2.6985625,0.6873871088027954,0.47818171977996826,4.445084095001221
1782816220471644400,2.71864453125,-0.07237771898508072,0.17601439356803894,4.297132968902588
1782816220491725600,2.7387255859375,-0.8344903588294983,0.20755396783351898,3.9420576095581055
1782816220511807500,2.758807373046875,-1.3223968744277954,0.37020790576934814,3.631526470184326
1782816220531889400,2.778889404296875,-1.4651761054992676,0.39694201946258545,3.2280449867248535
1782816220551970600,2.798970458984375,-1.5670247077941895,0.4435998201370239,2.643834352493286
1782816220572052500,2.819052490234375,-1.7617261409759521,0.25939443707466125,1.8085705041885376
1782816220592134400,2.839134521484375,-1.8026208877563477,0.3252170979976654,1.0412565469741821
1782816220612216600,2.859216552734375,-1.455065131187439,0.33956098556518555,0.6949790716171265
1782816220632297500,2.87929736328125,-1.0372343063354492,-0.569314181804657,-0.3160950541496277
1782816220652379400,2.89937939453125,-0.6927075386047363,-0.9956552386283875,-1.844809651374817
1782816220672461600,2.919461669921875,-0.05053861811757088,-0.06274422258138657,-2.2729854583740234
1782816220692543500,2.93954345703125,0.5225232243537903,0.6118574142456055,-2.5098581314086914
1782816220712624400,2.959624267578125,0.6780562996864319,0.5677139759063721,-3.244264841079712
1782816220732706300,2.979706298828125,0.6690777540206909,0.253213107585907,-4.180986404418945
1782816220752788200,2.999788330078125,0.605381190776825,-0.7287697792053223,-4.465855598449707
1782816220772870400,3.019870361328125,0.6383999586105347,-1.868253469467163,-3.6775927543640137
1782816220792951300,3.039951416015625,1.2796363830566406,-2.4994289875030518,-1.8002169132232666
1782816220813033200,3.060033203125,2.193528413772583,-2.0930938720703125,-0.01672830618917942
1782816220833115400,3.080115478515625,2.077571153640747,-1.8909310102462769,-0.6689999103546143
1782816220853197300,3.100197265625,1.830165982246399,-0.9053329825401306,-1.8240578174591064
1782816220873278500,3.120278564453125,1.6269906759262085,0.0393436998128891,-1.8717907667160034
1782816220893360400,3.1403603515625,1.2152252197265625,0.7773404717445374,-1.2043007612228394
1782816220913442300,3.1604423828125,0.7958678603172302,1.7977726459503174,-0.8740941286087036
1782816220933523500,3.1805234375,0.8367562890052795,2.4015233516693115,-0.5827352404594421
1782816220953605400,3.20060546875,0.9263833165168762,2.4550158977508545,-0.07055497914552689
1782816220973687300,3.220687255859375,0.7052340507507324,1.911094307899475,0.2769560217857361
1782816220993769500,3.24076953125,0.17365595698356628,0.7995228171348572,0.5451132655143738
1782816221013850400,3.260850341796875,-0.3868752717971802,-0.33738797903060913,0.963803231716156
1782816221033932500,3.2809326171875,-0.6623605489730835,-0.9138298630714417,1.298718810081482
1782816221054014500,3.301014404296875,-0.5051044225692749,-0.2348889857530594,1.4700990915298462
1782816221074096400,3.321096435546875,-0.024857429787516594,1.2646815776824951,1.4851166009902954
1782816221094177500,3.341177490234375,0.058143388479948044,2.1633477210998535,0.5680925846099854
1782816221114259500,3.361259521484375,-0.12354059517383575,1.6561228036880493,-0.7093992233276367
1782816221134341400,3.38134130859375,-0.5671062469482422,-0.11337489634752274,-1.9129999876022339
1782816221154423600,3.401423583984375,-0.7562124133110046,-1.1004188060760498,-2.896125316619873
1782816221174504200,3.421504150390625,-0.2080601453781128,-0.9177880883216858,-3.3405890464782715
1782816221194586600,3.441586669921875,0.9666749238967896,-1.0294822454452515,-2.8806707859039307
1782816221214668500,3.46166845703125,1.2571402788162231,-2.2219393253326416,-2.4391372203826904
1782816221234750500,3.48175048828125,0.8949275612831116,-2.6210858821868896,-2.523425817489624
1782816221254831600,3.50183154296875,0.2152722030878067,-1.3699758052825928,-1.6085015535354614
1782816221274913500,3.52191357421875,-0.1771746128797531,-0.4256434440612793,0.4832246005535126
1782816221294995500,3.541995361328125,-0.31663668155670166,-0.24144940078258514,1.931662917137146
1782816221315076600,3.56207666015625,-0.4497774541378021,0.1306464672088623,2.076385736465454
1782816221335158500,3.582158447265625,-0.41559967398643494,0.6051306128501892,1.7319518327713013
1782816221355240700,3.60224072265625,-0.2322874665260315,0.8840122222900391,1.3929554224014282
1782816221375322600,3.622322509765625,0.021992281079292297,0.9620041251182556,1.183872938156128
1782816221395403500,3.642403564453125,0.014496544376015663,0.7357847094535828,1.2011632919311523
1782816221415485700,3.662485595703125,-0.14271798729896545,0.5549092888832092,1.4108229875564575
1782816221435567600,3.682567626953125,-0.3954138457775116,0.5320965647697449,1.6342686414718628
1782816221455649500,3.7026494140625,-0.18885071575641632,0.6889052987098694,2.0778555870056152
1782816221475730400,3.72273046875,0.6089552044868469,1.3717023134231567,2.54156231880188
1782816221495812400,3.742812255859375,1.3738504648208618,2.059309244155884,2.143962860107422
1782816221515894500,3.76289453125,0.9642171263694763,1.213353157043457,0.5353807806968689
1782816221535976400,3.7829765625,0.20451030135154724,-0.2700555920600891,0.006459562107920647
1782816221556057300,3.803057373046875,-0.2445334792137146,-1.6766263246536255,0.605585515499115
1782816221576139500,3.823139404296875,-0.46802815794944763,-2.3962841033935547,0.5651229619979858
1782816221596221400,3.843221435546875,-0.9180586934089661,-2.5946149826049805,-0.9362103939056396
1782816221616302600,3.863302490234375,-2.1679933071136475,-2.435027599334717,-2.813924789428711
1782816221636384500,3.883384521484375,-2.6608972549438477,-1.9662835597991943,-3.5454039573669434
1782816221656466400,3.903466552734375,-1.9598829746246338,-2.2749950885772705,-3.3146250247955322
1782816221676548600,3.923548583984375,-1.0679868459701538,-1.8888018131256104,-2.4171090126037598
1782816221696629500,3.94362939453125,-0.6170104146003723,-0.553601086139679,-1.1844621896743774
1782816221716711400,3.96371142578125,-0.316053569316864,0.6218195557594299,0.08148378878831863
1782816221736793600,3.983793701171875,-0.1445448100566864,1.2547879219055176,0.5142530202865601
1782816221756875500,4.00387548828125,-0.10464602708816528,1.7592862844467163,0.8038720488548279
1782816221776956700,4.023956787109375,-0.1528097689151764,1.571241855621338,1.0528392791748047
1782816221797038600,4.04403857421875,-0.32275328040122986,1.1328139305114746,1.1422828435897827
1782816221817120500,4.06412060546875,-0.3417414426803589,0.743413507938385,1.155815601348877
1782816221837202400,4.084202392578125,-0.12437596917152405,0.43613454699516296,1.0604335069656372
1782816221857283600,4.10428369140625,0.12618957459926605,0.5323275923728943,0.6382886171340942
1782816221877365500,4.124365478515625,0.21129372715950012,0.7140141725540161,0.17586596310138702
1782816221897447700,4.14444775390625,0.29973962903022766,0.8056472539901733,-0.22289913892745972
1782816221917529600,4.164529541015625,0.338232159614563,0.454672634601593,-0.7352123260498047
1782816221937610800,4.18461083984375,0.02566486783325672,-0.3515307903289795,-1.3445645570755005
1782816221957692700,4.204692626953125,-0.21517372131347656,0.6178466081619263,-0.6182723641395569
1782816221977774600,4.224774658203125,0.3709236979484558,1.8443851470947266,0.6444358229637146
1782816221997855500,4.24485546875,0.41001179814338684,1.7596981525421143,0.5228750109672546
1782816222017937400,4.2649375,-0.1992456167936325,1.5130460262298584,0.01661236584186554
1782816222038019300,4.285019287109375,-1.597646713256836,0.7259762287139893,-0.7893095016479492
1782816222058101500,4.3051015625,-3.6339855194091797,-0.8166707754135132,-2.4569196701049805
1782816222078182400,4.325182373046875,-5.344939708709717,-2.1571707725524902,-4.856453895568848
1782816222098264600,4.3452646484375,-4.788864612579346,-1.5184701681137085,-6.48508358001709
1782816222118346500,4.365346435546875,-2.563361406326294,-0.4966944456100464,-5.883855819702148
1782816222138428400,4.385428466796875,-0.8222209811210632,0.14544802904129028,-2.852423906326294
1782816222158509600,4.405509521484375,0.17739635705947876,0.48202142119407654,0.9565780758857727
1782816222178591500,4.425591552734375,0.7306302785873413,0.23525062203407288,3.5185866355895996
1782816222198673400,4.44567333984375,0.950489342212677,0.06091928109526634,4.67564582824707
1782816222218755300,4.46575537109375,1.0135506391525269,0.04471219703555107,4.987471103668213
1782816222238836200,4.485836181640625,1.155012845993042,0.16193632781505585,4.883813381195068
1782816222258918400,4.50591845703125,1.2726466655731201,0.27853909134864807,4.44252347946167
1782816222279000300,4.526000244140625,1.236402153968811,0.3640316128730774,3.7970542907714844
1782816222299081200,4.546081298828125,1.2159309387207031,0.024578779935836792,3.0460996627807617
1782816222319163400,4.566163330078125,1.1717671155929565,-0.274524450302124,2.075794219970703
1782816222339245300,4.586245361328125,1.0909593105316162,-0.41702619194984436,1.0551140308380127
1782816222359327200,4.6063271484375,0.9222487211227417,-0.6714658141136169,-0.029067648574709892
1782816222379408400,4.626408447265625,0.8906202912330627,-1.179985761642456,-1.2138625383377075
1782816222399490300,4.646490234375,1.1811996698379517,-0.8750008940696716,-0.767708957195282
1782816222419572500,4.666572509765625,0.9675904512405396,0.036831311881542206,0.297911673784256
1782816222439654400,4.686654296875,0.2654556334018707,-2.4947330951690674,2.2486331462860107
1782816222459735300,4.7067353515625,0.012630733661353588,-2.9277241230010986,0.9977974891662598
1782816222479817500,4.7268173828125,0.5242595672607422,1.5880208015441895,-3.2559170722961426
1782816222499899400,4.7468994140625,-0.22238261997699738,4.385293483734131,-6.466004371643066
1782816222519981300,4.766981201171875,-1.808936357498169,3.5179946422576904,-6.5052008628845215
1782816222540062500,4.7870625,-1.9423933029174805,2.9176321029663086,-4.835168838500977
1782816222560144400,4.807144287109375,-0.7277767062187195,1.901749849319458,-2.6181108951568604
1782816222580226300,4.827226318359375,-0.08333287388086319,1.4019572734832764,-0.28544026613235474
1782816222600307200,4.84730712890625,0.23595111072063446,1.0929183959960938,1.6984888315200806
1782816222620389000,4.86738916015625,0.6518365144729614,0.4767651855945587,2.957789421081543
1782816222640471300,4.88747119140625,0.9510592818260193,-0.5957992076873779,3.747795343399048
1782816222660553200,4.90755322265625,1.111430287361145,-1.497840404510498,4.136861801147461
1782816222680634400,4.92763427734375,1.301520586013794,-1.578102469444275,4.129634857177734
1782816222700716300,4.94771630859375,1.828142523765564,-1.0861409902572632,4.074552536010742
1782816222720798200,4.967798095703125,1.7297799587249756,-0.528897225856781,3.587855339050293
1782816222740880100,4.987880126953125,1.081460952758789,-0.47113972902297974,2.513984203338623
1782816222760961300,5.007961181640625,0.44721198081970215,-0.3969489634037018,1.4338783025741577
1782816222781043200,5.028043212890625,0.23866158723831177,-0.3619665503501892,0.4247126281261444
1782816222801125400,5.04812548828125,0.5693793892860413,-0.26401591300964355,-0.2786937654018402
1782816222821207300,5.068207275390625,0.8539402484893799,-0.890348494052887,-0.3665814697742462
1782816222841288400,5.088288330078125,0.4698108732700348,-2.4842493534088135,0.054280735552310944
1782816222861370400,5.108370361328125,-0.03058943897485733,-3.6897661685943604,1.7794064283370972
1782816222881452300,5.128452392578125,0.09345228970050812,-3.6372950077056885,2.77902889251709
1782816222901533400,5.148533447265625,0.8489978313446045,-2.2912304401397705,1.7459036111831665
1782816222921615400,5.168615478515625,1.5250842571258545,-0.5602748990058899,-0.42891305685043335
1782816222941697300,5.188697265625,1.272628903388977,1.072333574295044,-3.3604369163513184
1782816222961779500,5.208779541015625,0.5446054339408875,3.7730729579925537,-7.528441905975342
1782816222981860400,5.2288603515625,-1.2204686403274536,3.8587253093719482,-9.009340286254883
1782816223001942300,5.2489423828125,-2.7781896591186523,2.544612407684326,-8.148622512817383
1782816223022024400,5.2690244140625,-2.660679578781128,0.7726089358329773,-5.254166603088379
1782816223042106400,5.2891064453125,-1.0351301431655884,1.1178418397903442,-2.6778743267059326
1782816223062187500,5.3091875,-0.029955105856060982,0.6866424679756165,0.4667201638221741
1782816223082269400,5.32926953125,0.5622515678405762,0.2988911271095276,2.321192979812622
1782816223102351400,5.349351318359375,0.9485028982162476,0.2785385549068451,3.185199499130249
1782816223122432300,5.369432373046875,1.110632300376892,0.24267807602882385,3.5407028198242188
1782816223142514200,5.38951416015625,1.1457676887512207,0.11319522559642792,3.870924234390259
1782816223162596400,5.409596435546875,1.0776007175445557,-0.09464675933122635,4.041445732116699
1782816223182678300,5.42967822265625,0.9969747066497803,-0.2892235517501831,3.9984920024871826
1782816223202759200,5.44975927734375,0.9369134306907654,-0.3758537769317627,3.6773762702941895
1782816223222841300,5.46984130859375,0.787268877029419,-0.4790526032447815,3.138617753982544
1782816223242923300,5.48992333984375,0.5596029162406921,-0.5452585220336914,2.3594717979431152
1782816223263005200,5.510005126953125,0.4152829945087433,-0.4582420289516449,1.4968584775924683
1782816223283086300,5.53008642578125,0.5188878178596497,-0.4104139506816864,0.5519761443138123
1782816223303168300,5.550168212890625,1.1008632183074951,-0.8918973803520203,-0.6358780860900879
1782816223323250200,5.570250244140625,1.456553339958191,-1.3769099712371826,-0.7143219709396362
1782816223343332400,5.590332275390625,1.2672336101531982,-1.8414040803909302,0.6053646802902222
1782816223363413200,5.610413330078125,0.28306809067726135,-1.627440333366394,0.8727961778640747
1782816223383495400,5.630495361328125,-0.0866394191980362,-0.9657232761383057,0.31509336829185486
1782816223403577300,5.650577392578125,-0.3285554349422455,-0.5695828199386597,-0.727340579032898
1782816223423659300,5.6706591796875,-0.783879280090332,-1.041102409362793,-2.262150526046753
1782816223443740400,5.690740478515625,-1.1672966480255127,-1.7582045793533325,-3.4160172939300537
1782816223463822300,5.710822265625,-1.130657434463501,0.9352445602416992,-5.074389934539795
1782816223483904300,5.730904296875,-1.4469664096832275,3.256594657897949,-5.050662040710449
1782816223503986400,5.750986328125,-1.6751892566680908,4.023744106292725,-3.3593697547912598
1782816223524067000,5.771067138671875,-1.3500343561172485,3.8032727241516113,-1.301290512084961
1782816223544149200,5.791149169921875,-0.7927107214927673,2.5544419288635254,0.2936073839664459
1782816223564231200,5.811231201171875,-0.32943278551101685,1.228503704071045,1.5738816261291504
1782816223584313300,5.831313232421875,-0.02186238206923008,0.24770817160606384,2.5690486431121826
1782816223604394200,5.851394287109375,0.07740764319896698,-0.3779696524143219,3.212364912033081
1782816223624476200,5.87147607421875,-0.0063837007619440556,-0.7322883009910583,3.462920904159546
1782816223644558000,5.89155810546875,-0.16800476610660553,-0.8740309476852417,3.3386013507843018
1782816223664640300,5.91164013671875,-0.35649919509887695,-0.9464632272720337,3.017902374267578
1782816223684721200,5.93172119140625,-0.5293869972229004,-1.1421650648117065,2.5408785343170166
1782816223704803300,5.95180322265625,-0.4643581211566925,-1.3986302614212036,1.7194550037384033
1782816223724885200,5.97188525390625,-0.16645914316177368,-2.501315116882324,1.1816285848617554
1782816223744967200,5.99196728515625,-0.30313989520072937,-1.45137619972229,0.5904292464256287
1782816223765048300,6.01204833984375,0.25458139181137085,0.643559455871582,0.1711728274822235
1782816223785130200,6.032130126953125,0.7391180992126465,2.066838502883911,-0.25501585006713867
1782816223805212200,6.052212158203125,0.7934942245483398,1.5977598428726196,-0.41144609451293945
1782816223825294300,6.07229443359375,0.5062503814697266,-0.44490766525268555,-0.7471612095832825
1782816223845375200,6.092375244140625,0.10197693854570389,-1.8500642776489258,-1.145460844039917
1782816223865457400,6.11245751953125,-0.015421345829963684,-3.0099427700042725,-1.9190871715545654
1782816223885539300,6.132539306640625,0.32808607816696167,-2.419588804244995,-2.615314483642578
1782816223905621200,6.152621337890625,0.5469329357147217,-0.410930335521698,-3.470155954360962
1782816223925702400,6.172702392578125,0.8085804581642151,1.040993571281433,-4.627721309661865
1782816223945784300,6.192784423828125,0.9622481465339661,1.421496868133545,-5.8675856590271
1782816223965866200,6.2128662109375,0.45700016617774963,1.5165467262268066,-7.068021774291992
1782816223985948400,6.232948486328125,0.17020010948181152,1.499037504196167,-4.652670383453369
1782816224006029300,6.253029296875,-0.8631410598754883,1.8322968482971191,-0.9454864859580994
1782816224026111500,6.273111572265625,-1.2816426753997803,1.276603102684021,1.9101577997207642
1782816224046193400,6.293193359375,-0.864800214767456,0.28775158524513245,3.276050329208374
1782816224066275300,6.313275390625,-0.42567017674446106,-0.018619120121002197,3.7745113372802734
1782816224086356200,6.333356201171875,-0.16782230138778687,0.188542902469635,3.826342821121216
1782816224106438100,6.353438232421875,-0.08860231935977936,0.017949068918824196,3.5487325191497803
1782816224126520000,6.37352001953125,-0.22896674275398254,-0.1227683573961258,3.1097869873046875
1782816224146602500,6.3936025390625,-0.4661950469017029,-0.33108094334602356,2.4703526496887207
1782816224166684400,6.413684326171875,-0.5559630393981934,-1.0235613584518433,1.2904176712036133
1782816224186765300,6.433765380859375,-0.41026630997657776,-0.9169106483459473,-0.19807316362857819
1782816224206847000,6.453846923828125,0.06873098015785217,0.23221972584724426,-0.8181294202804565
1782816224226929000,6.473928955078125,0.28976956009864807,0.8668400645256042,-0.8394500613212585
1782816224247011000,6.494010986328125,0.0307652335613966,-0.044692736119031906,-0.9012463092803955
1782816224267092000,6.514092041015625,-0.3925633132457733,-1.489590048789978,-0.858356773853302
1782816224287174000,6.534173828125,-0.738281786441803,-2.486363172531128,-0.6733543872833252
1782816224307256000,6.554256103515625,-1.3131506443023682,-3.569201707839966,-1.0174881219863892
1782816224327338000,6.574337890625,-2.039778232574463,-3.7781896591186523,-1.8561607599258423
1782816224347419100,6.594419189453125,-2.2931442260742188,-2.1022534370422363,-2.5980522632598877
1782816224367501000,6.6145009765625,-1.8975547552108765,0.41276901960372925,-2.6914916038513184
1782816224387583000,6.6345830078125,-0.6570528149604797,2.2632598876953125,-1.8884148597717285
1782816224407665000,6.654664794921875,0.16415433585643768,2.8685832023620605,-0.8345322608947754
1782816224427747000,6.6747470703125,0.44142284989356995,2.5922152996063232,0.3622204661369324
1782816224447828000,6.694827880859375,0.4747370183467865,1.9826041460037231,1.5913290977478027
1782816224467910100,6.71491015625,0.3498840928077698,1.5302753448486328,2.5013320446014404
1782816224487992000,6.734991943359375,0.1834493726491928,1.1315518617630005,2.917313814163208
1782816224508074000,6.755073974609375,0.058805666863918304,0.8332371711730957,2.9375979900360107
1782816224528155100,6.775155029296875,-0.08109106123447418,0.6007302403450012,2.60333251953125
1782816224548237000,6.795237060546875,-0.2936127185821533,0.5999537110328674,2.0827651023864746
1782816224568319000,6.815319091796875,-0.3434254825115204,0.40595507621765137,1.5169565677642822
1782816224588401200,6.835401123046875,-0.4590020179748535,-0.14649257063865662,0.9946989417076111
1782816224608482000,6.85548193359375,-0.637884795665741,-1.1332284212112427,0.579781174659729
1782816224628564200,6.875564208984375,-0.9116937518119812,-0.7339420318603516,0.4037305414676666
1782816224648646100,6.895646240234375,-0.639390766620636,0.03797268122434616,0.06252269446849823
1782816224668728000,6.91572802734375,-0.23497240245342255,1.1100658178329468,-0.18617337942123413
1782816224688809000,6.93580908203125,-0.008804717101156712,0.9084023237228394,-0.5881552696228027
1782816224708891000,6.955890869140625,-0.017154138535261154,0.07184413820505142,-0.6077123880386353
1782816224728972800,6.975972900390625,-0.24550537765026093,-2.039252758026123,-0.9798412322998047
1782816224749055000,6.996054931640625,-0.41085559129714966,-3.530874490737915,-1.6421259641647339
1782816224769137000,7.016136962890625,-0.13933348655700684,-2.4701154232025146,-1.788090467453003
1782816224789218000,7.036218017578125,-0.06643427908420563,-0.7601243257522583,-2.0364906787872314
1782816224809300000,7.056300048828125,-0.02691667526960373,1.243798851966858,-1.8241145610809326
1782816224829382000,7.0763818359375,-0.07768203318119049,2.165459394454956,-1.7467693090438843
1782816224849464000,7.096464111328125,-0.35537341237068176,2.115603446960449,-1.7739231586456299
1782816224869545000,7.116544921875,-0.6153072118759155,1.6843868494033813,-1.224835753440857
1782816224889627000,7.136626953125,-0.5296837091445923,0.8865141868591309,-0.6034212708473206
1782816224909709000,7.156708984375,-0.27575427293777466,0.13128873705863953,0.0007604683050885797
1782816224929791000,7.176791015625,0.011313351802527905,-0.4256496727466583,0.7250185012817383
1782816224949872000,7.1968720703125,0.2781125605106354,-0.5893207788467407,1.474590539932251
1782816224969954000,7.2169541015625,0.5527377724647522,-0.5558050274848938,1.7547634840011597
1782816224990036000,7.237035888671875,0.5766217112541199,-0.47716498374938965,1.3552803993225098
1782816225010118000,7.257117919921875,0.33562272787094116,-0.5244805812835693,1.0002814531326294
1782816225030199000,7.277198974609375,0.1792484074831009,-0.6959041953086853,1.1396408081054688
1782816225050281000,7.297281005859375,0.06282224506139755,-0.2861833870410919,1.3420660495758057
1782816225070363100,7.317363037109375,0.28704342246055603,0.8778476715087891,1.0936356782913208
1782816225090445000,7.337445068359375,0.6759204864501953,1.9833095073699951,0.5702358484268188
1782816225110526200,7.357526123046875,0.8099175691604614,1.655278205871582,0.07750014960765839
1782816225130608000,7.377608154296875,0.7393338680267334,0.25499188899993896,0.05143897980451584
1782816225150690000,7.39768994140625,0.20782454311847687,-2.314466953277588,-0.4209533631801605
1782816225170772000,7.41777197265625,-0.5839651823043823,-3.6510002613067627,-0.9012016654014587
1782816225190853000,7.43785302734375,-0.9498198628425598,-2.3688063621520996,-0.8382781147956848
1782816225210935800,7.457935791015625,-0.4638962149620056,-0.001800166442990303,-1.2681148052215576
1782816225231017700,7.478017822265625,0.04281796142458916,1.9122377634048462,-1.7573838233947754
1782816225251100000,7.498099853515625,0.43259888887405396,2.0317883491516113,-1.6271367073059082
1782816225271180800,7.518180908203125,0.7031633257865906,1.2824026346206665,-0.8379542231559753
1782816225291263000,7.538262939453125,0.7321423292160034,0.8006299734115601,0.23542273044586182
1782816225311345000,7.558344970703125,0.8248316645622253,0.6886436343193054,1.2322354316711426
1782816225331426800,7.5784267578125,1.022748589515686,0.6693947315216064,1.8309773206710815
1782816225351507700,7.5985078125,1.2560571432113647,0.5996752977371216,1.9093267917633057
1782816225371589600,7.618589599609375,1.4278572797775269,0.6732195615768433,1.6470308303833008
1782816225391671600,7.638671630859375,1.522560954093933,0.8116940855979919,1.3868235349655151
1782816225411754000,7.65875390625,1.396672248840332,0.6818642020225525,1.1763243675231934
1782816225431834600,7.678834716796875,1.1699087619781494,0.5816563367843628,1.0855989456176758
1782816225451916800,7.698916748046875,0.9766296744346619,0.0218501053750515,0.9935144782066345
1782816225471998700,7.718998779296875,0.791666567325592,-0.8105803728103638,0.7136195302009583
1782816225492080600,7.73908056640625,0.5881938338279724,-0.6164518594741821,0.26006880402565
1782816225512161800,7.759161865234375,0.2865206301212311,0.3517410159111023,-0.08870317786931992
1782816225532243700,7.77924365234375,0.3192060589790344,1.7450484037399292,-0.07246310263872147
1782816225552325600,7.79932568359375,0.25611209869384766,1.755974292755127,0.0068036289885640144
1782816225572407800,7.81940771484375,0.1118289902806282,1.0926464796066284,-0.2562198340892792
1782816225592488700,7.83948876953125,-0.5174213647842407,-0.8000664710998535,-1.5136816501617432
1782816225612571000,7.85957080078125,-1.6749831438064575,-2.7568581104278564,-2.8454489707946777
1782816225632652800,7.87965283203125,-2.0592846870422363,-2.421868324279785,-2.8646202087402344
1782816225652734700,7.899734619140625,-1.6251097917556763,-1.1244568824768066,-2.7790536880493164
1782816225672815900,7.91981591796875,-0.6571688652038574,0.2429676651954651,-2.3517391681671143
1782816225692897800,7.939897705078125,0.27827146649360657,0.8723730444908142,-1.7932153940200806
1782816225712979700,7.959979736328125,0.5212762951850891,0.6124800443649292,-1.3046514987945557
1782816225733062000,7.980061767578125,0.5095582008361816,0.3867395520210266,-0.6125914454460144
1782816225753142800,8.000142822265625,0.7223820090293884,0.3839043974876404,0.1617451310157776
1782816225773224700,8.020224609375,1.0973260402679443,0.5771299600601196,0.7285202741622925
1782816225793307000,8.040306884765625,1.3890347480773926,0.919520914554596,0.9914180040359497
1782816225813388800,8.060388916015626,1.5583982467651367,1.3974990844726562,1.0924752950668335
1782816225833470000,8.080469970703126,1.6790695190429688,1.5011786222457886,0.9502670168876648
1782816225853551900,8.1005517578125,1.7731175422668457,0.8828426599502563,0.6112449765205383
1782816225873633800,8.1206337890625,1.6582973003387451,-0.17679506540298462,0.4167029559612274
1782816225893716000,8.140716064453125,1.0762532949447632,-1.477290391921997,0.23502574861049652
1782816225913796600,8.160796630859375,0.002198037225753069,-2.4491870403289795,0.035275109112262726
1782816225933878800,8.180878662109375,-0.5016444325447083,-1.4542638063430786,0.16112616658210754
1782816225953960700,8.200960693359375,-0.5285568237304688,-0.6776030659675598,0.5309963822364807
1782816225974043000,8.22104296875,-0.6689284443855286,-1.1798679828643799,0.9926372766494751
1782816225994123800,8.241123779296874,-0.850959062576294,-3.141763210296631,0.9718286991119385
1782816226014205700,8.261205810546874,-1.1300098896026611,-4.088448524475098,0.23091238737106323
1782816226034287600,8.28128759765625,-1.4429101943969727,-3.940918445587158,-1.0136504173278809
1782816226054369800,8.301369873046875,-1.6936001777648926,-2.3813564777374268,-1.7098588943481445
1782816226074450700,8.32145068359375,-1.5525661706924438,-0.4152964651584625,-1.4424349069595337
1782816226094532600,8.34153271484375,-0.8858397603034973,0.3962481915950775,-0.7957513332366943
1782816226114614800,8.36161474609375,-0.14060403406620026,0.7106478810310364,-0.046040378510951996
1782816226134696700,8.38169677734375,0.6237375140190125,0.8706527352333069,0.5228582620620728
1782816226154777900,8.40177783203125,1.3453327417373657,1.120416283607483,0.887611985206604
1782816226174859800,8.42185986328125,1.5821466445922852,1.4355792999267578,1.124976396560669
1782816226194941700,8.441941650390625,1.516850471496582,2.1776132583618164,1.5401887893676758
1782816226215023000,8.462023193359375,1.1033073663711548,2.266106605529785,1.9870539903640747
1782816226235104000,8.48210400390625,0.5037298798561096,1.4888213872909546,2.315751552581787
1782816226255186200,8.502186279296875,-0.1502394676208496,0.1826222538948059,2.2562062740325928
1782816226275268000,8.52226806640625,-0.37775033712387085,-0.08114464581012726,1.9098269939422607
1782816226295350000,8.54235009765625,-0.3826560378074646,0.35569673776626587,1.4212782382965088
1782816226315431200,8.56243115234375,-0.4315052330493927,0.26119810342788696,0.550657331943512
1782816226335513000,8.58251318359375,-0.4533637762069702,0.13657212257385254,-0.34946104884147644
1782816226355595000,8.602594970703125,-0.39990872144699097,0.29217374324798584,-1.1122366189956665
1782816226375676000,8.622676025390625,-0.3053785264492035,0.7271385788917542,-1.376821756362915
1782816226395757800,8.6427578125,-0.3629148006439209,0.47203120589256287,-1.1373199224472046
1782816226415840000,8.662840087890626,-0.312831848859787,0.25589796900749207,-0.5799867510795593
1782816226435922000,8.682921875,-0.03512423858046532,0.49152466654777527,0.008869102224707603
1782816226456003000,8.703003173828124,0.2558218240737915,0.7169333696365356,0.3261643946170807
1782816226476085000,8.7230849609375,0.3947615623474121,0.7557222843170166,0.3941139578819275
1782816226496167000,8.7431669921875,0.5234023332595825,0.6030182242393494,0.4016721546649933
1782816226516248800,8.763248779296875,0.5352205634117126,0.18389678001403809,0.33847683668136597
1782816226536330000,8.783330078125,0.5707669854164124,-0.06882303953170776,0.27519822120666504
1782816226556412000,8.803411865234375,0.6024419665336609,0.04473936930298805,0.29516956210136414
1782816226576494000,8.823494140625,0.4566640555858612,-0.09358581155538559,0.23456120491027832
1782816226596576000,8.843575927734374,0.2869638204574585,-0.41838541626930237,0.03553171455860138
1782816226616657000,8.863656982421874,0.16362138092517853,-0.6634923815727234,-0.30774202942848206
1782816226636739000,8.883739013671875,0.029663337394595146,-0.8516940474510193,-0.7088584899902344
1782816226656821000,8.903821044921875,-0.09821798652410507,-0.760166347026825,-0.9839442372322083
1782816226676903000,8.92390283203125,-0.19339880347251892,-0.37815994024276733,-1.056797981262207
1782816226696984000,8.943984130859375,-0.2777571380138397,0.13713771104812622,-0.9779796004295349
1782816226717066000,8.96406591796875,-0.34720873832702637,0.5185577869415283,-0.8722566366195679
1782816226737148200,8.984148193359376,-0.3425454795360565,0.6048270463943481,-0.8054912090301514
1782816226757230000,9.00422998046875,-0.21113717555999756,0.3754209280014038,-0.6990244388580322
1782816226777311000,9.02431103515625,0.031158793717622757,0.23098550736904144,-0.44993913173675537
1782816226797393200,9.04439306640625,0.19855467975139618,0.08200718462467194,-0.11572112143039703
1782816226817475000,9.06447509765625,0.28914758563041687,-0.09519598633050919,0.18601495027542114
1782816226837557000,9.084556884765625,0.42779669165611267,-0.25191494822502136,0.38302353024482727
1782816226857638100,9.10463818359375,0.5218706130981445,-0.4331141412258148,0.4755591154098511
1782816226877720000,9.124719970703126,0.5755873918533325,-0.6688088774681091,0.48090240359306335
1782816226897802200,9.14480224609375,0.5965979695320129,-0.8261109590530396,0.4223751723766327
1782816226917883000,9.1648828125,0.539300799369812,-0.7924679517745972,0.3092116117477417
1782816226937964800,9.18496484375,0.44732046127319336,-0.5132567882537842,0.1842799186706543
1782816226958047000,9.205046875,0.268601655960083,-0.26635515689849854,0.05897451192140579
1782816226978129000,9.22512890625,0.11717721074819565,-0.1645006388425827,-0.03211076557636261
1782816226998210000,9.2452099609375,0.06388620287179947,-0.08598564565181732,-0.09128227084875107
1782816227018292000,9.2652919921875,0.07184839993715286,0.062050700187683105,-0.12695495784282684
1782816227038374000,9.285373779296876,0.0711129829287529,0.19306856393814087,-0.12968547642230988
1782816227058456000,9.3054560546875,0.04402103275060654,0.3269689977169037,-0.09869420528411865
1782816227078537000,9.325536865234374,0.01619698852300644,0.38122662901878357,-0.10001284629106522
1782816227098619000,9.345618896484375,0.03244722634553909,0.45052218437194824,-0.11225099861621857
1782816227118701000,9.365701171875,0.04928240180015564,0.38201743364334106,-0.12834236025810242
1782816227138782000,9.385781982421875,0.1042340025305748,0.19371771812438965,-0.05885111168026924
1782816227158864100,9.405864013671875,0.20223818719387054,0.13025254011154175,0.09265104681253433
1782816227178946000,9.425946044921876,0.24160481989383698,0.11085908859968185,0.17872846126556396
1782816227199028000,9.446028076171874,0.29078420996665955,0.1455383151769638,0.16062986850738525
1782816227219109400,9.466109375,0.2790910601615906,0.19436638057231903,0.08688710629940033
1782816227239191300,9.48619140625,0.22637568414211273,0.10887948423624039,0.025698721408843994
1782816227259273200,9.506273193359375,0.17357280850410461,0.024164065718650818,0.017564699053764343
1782816227279355400,9.52635546875,0.119682677090168,0.03824064880609512,0.01998809166252613
1782816227299436300,9.546436279296875,0.07985146343708038,0.10720814764499664,0.02063618414103985
1782816227319518200,9.566518310546876,0.045061495155096054,0.12479191273450851,0.05392337217926979
1782816227339600400,9.586600341796874,0.02833862230181694,0.08046256005764008,0.08743131160736084
1782816227359681300,9.606681396484374,0.04103216528892517,0.04821664094924927,0.10626711696386337
1782816227379763500,9.626763427734375,0.05925806984305382,-0.008991055190563202,0.07700814306735992
1782816227399845400,9.646845458984375,0.031709976494312286,0.015140053816139698,0.050081659108400345
1782816227419927300,9.66692724609375,-0.029334617778658867,0.07598830759525299,0.03923299163579941
1782816227440009500,9.687009521484375,-0.047500841319561005,0.10803545266389847,0.008923820219933987
1782816227460090400,9.70709033203125,-0.024693971499800682,0.11918509751558304,-0.016841668635606766
1782816227480172300,9.72717236328125,0.016787691041827202,0.09515193849802017,-0.003497368423268199
1782816227500254500,9.74725439453125,0.025014728307724,0.0643940195441246,0.030523449182510376
1782816227520336400,9.76733642578125,0.013762672431766987,0.015758085995912552,0.03512497991323471
1782816227540417500,9.78741748046875,-0.0006955770077183843,0.017444614320993423,-0.0030907997861504555
1782816227560499500,9.80749951171875,-0.002650180831551552,0.06921905279159546,-0.03156398981809616
1782816227580581400,9.827581298828125,0.0010344715556129813,0.11151158809661865,-0.021208064630627632
1782816227600663300,9.847663330078126,0.0004425696679390967,0.07793204486370087,-0.01974209025502205
1782816227620744200,9.867744140625,-0.01996532268822193,0.024858471006155014,-0.01915404386818409
1782816227640826000,9.887826171875,-0.04413853958249092,-0.03966119885444641,0.014763284474611282
1782816227660908300,9.907908203125,-0.04775993898510933,-0.04518062248826027,0.06397351622581482
1782816227680990200,9.927990234375,-0.024961113929748535,-0.0026753987185657024,0.09861911833286285
1782816227701071400,9.9480712890625,-0.012267781421542168,0.02183370105922222,0.09355302900075912
1782816227721153300,9.9681533203125,-0.018345322459936142,0.05714770033955574,0.09133757650852203
1782816227741235200,9.988235107421875,-0.0359046645462513,0.08240091055631638,0.11768313497304916
1782816227761316400,10.00831640625,-0.03964401036500931,0.05017639324069023,0.13146314024925232
1782816227781398300,10.028398193359376,-0.02323976904153824,0.028384346514940262,0.08980079740285873
1782816227801480200,10.048480224609374,-0.02377038635313511,0.025604378432035446,0.00728188082575798
1782816227821562400,10.068562255859375,-0.04426997900009155,0.01764655113220215,-0.05612749606370926
1782816227841643300,10.088643310546875,-0.04386284202337265,0.10307876765727997,-0.10084991157054901
1782816227861725400,10.108725341796875,-0.03724725544452667,0.1653577834367752,-0.135757178068161
1782816227881807400,10.128807373046875,-0.025580154731869698,0.11949774622917175,-0.12366088479757309
1782816227901889300,10.14888916015625,-0.005347347818315029,0.06028544530272484,-0.06700029969215393
1782816227921970400,10.168970458984376,0.0018737021600827575,0.006631108466535807,-0.03080642968416214
1782816227942052400,10.18905224609375,0.008576455526053905,0.0535837784409523,-0.02019719034433365
1782816227962134300,10.20913427734375,0.011224733665585518,0.08417455852031708,-0.005116214044392109
1782816227982216400,10.229216552734375,0.016019131988286972,0.06226954981684685,0.031069239601492882
1782816228002297300,10.24929736328125,0.012391729280352592,0.04053528606891632,0.05865059420466423
1782816228022379500,10.269379638671875,0.029896095395088196,0.056876491755247116,0.08410825580358505
1782816228042461400,10.28946142578125,0.045635584741830826,0.03562522679567337,0.084113709628582
1782816228062543400,10.30954345703125,0.023164719343185425,0.011801892891526222,0.05936972424387932
1782816228082624300,10.329624267578126,-0.016693774610757828,0.017122605815529823,0.040169741958379745
1782816228102706400,10.34970654296875,-0.04298722371459007,0.06731986254453659,0.022355882450938225
1782816228122788400,10.369788330078125,-0.035468939691782,0.10825605690479279,-0.004438774660229683
1782816228142870500,10.38987060546875,-0.041025806218385696,0.11647249758243561,-0.016343843191862106
1782816228162951200,10.409951171875,-0.03445001691579819,0.12512566149234772,-0.0062339091673493385
1782816228183033300,10.430033447265625,-0.012860600836575031,0.11393354088068008,-0.0035492866300046444
1782816228203115300,10.450115234375,0.017816796898841858,0.2164781391620636,0.0093160355463624
1782816228223196000,10.47019580078125,0.030047480016946793,0.17245963215827942,-0.0021121350582689047
1782816228243277800,10.49027783203125,0.013248763978481293,0.00007780641317367554,-0.042743295431137085
1782816228263359700,10.51035986328125,-0.005081270821392536,-0.0036401632241904736,-0.11296616494655609
1782816228283441700,10.530441650390625,-0.023572159931063652,0.04351942613720894,-0.23998761177062988
1782816228303522800,10.550522705078125,-0.09427748620510101,0.17881439626216888,-0.27931341528892517
1782816228323604700,10.570604736328125,-0.15835607051849365,0.026974720880389214,-0.10310494154691696
