time,seconds_elapsed,z,y,x
1782816360088511700,0.05751171875,-0.6804460287094116,-1.1236975193023682,0.41018757224082947
1782816360108593700,0.07759375,-0.8036096692085266,-1.2833614349365234,0.7217205166816711
1782816360128675600,0.097675537109375,-0.7445211410522461,-1.5383638143539429,0.7136416435241699
1782816360148757800,0.1177578125,-0.5866977572441101,-1.247204065322876,0.12771423161029816
1782816360168839700,0.137839599609375,-0.3762950003147125,0.4389580488204956,-0.4612092673778534
1782816360188921600,0.157921630859375,-0.2414672076702118,0.8429847955703735,-0.7861182689666748
1782816360209003800,0.178003662109375,-0.48978450894355774,0.5652191638946533,-1.0965025424957275
1782816360229084700,0.198084716796875,-0.8364437818527222,-0.049358069896698,-1.168713927268982
1782816360249166800,0.218166748046875,-1.0362097024917603,-0.497271865606308,-0.9848272800445557
1782816360269248800,0.238248779296875,-0.9516866207122803,-0.06577543914318085,-0.7761982083320618
1782816360289330700,0.25833056640625,-0.526599645614624,0.9555597305297852,-0.8729010224342346
1782816360309412600,0.27841259765625,0.19136016070842743,1.6146421432495117,-1.42075514793396
1782816360329494800,0.298494873046875,0.6163870096206665,1.158898949623108,-2.0851571559906006
1782816360349576400,0.318576416015625,0.6462085843086243,0.4550029933452606,-2.5916645526885986
1782816360369658400,0.338658447265625,0.5799224972724915,0.11895402520895004,-2.5296545028686523
1782816360389740500,0.358740478515625,0.627851665019989,0.647411584854126,-1.5998988151550293
1782816360409822500,0.378822509765625,0.5662784576416016,0.5945120453834534,-0.5274133086204529
1782816360429904400,0.398904296875,0.5295692682266235,0.3243715763092041,0.34831205010414124
1782816360449985500,0.418985595703125,0.5948971509933472,-0.0690896213054657,0.9058312177658081
1782816360470067500,0.4390673828125,0.586341917514801,-0.16066227853298187,1.1519750356674194
1782816360490149400,0.4591494140625,0.30898088216781616,0.13847976922988892,1.2434412240982056
1782816360510231600,0.4792314453125,-0.00747599545866251,0.19771142303943634,0.9824430346488953
1782816360530313500,0.4993134765625,0.07665053009986877,0.2506704330444336,0.45509129762649536
1782816360550395400,0.5193955078125,0.2596921920776367,0.41583114862442017,-0.0844193771481514
1782816360570477600,0.5394775390625,0.33399415016174316,0.5727482438087463,-0.23613902926445007
1782816360590559500,0.5595595703125,0.4589722156524658,0.6298641562461853,0.07195404171943665
1782816360610641400,0.579641357421875,0.4032062292098999,0.12192060798406601,0.467227041721344
1782816360630723600,0.5997236328125,0.01010981947183609,-1.1478195190429688,0.7344856858253479
1782816360650805500,0.619805419921875,-0.30164965987205505,-1.9821505546569824,0.975547194480896
1782816360670886400,0.639886474609375,-0.16226263344287872,-0.7313464879989624,1.0832691192626953
1782816360690968600,0.659968505859375,0.24664223194122314,0.5660886168479919,0.7811741232872009
1782816360711050500,0.680050537109375,0.439270555973053,0.6091097593307495,0.08434610068798065
1782816360731132400,0.70013232421875,0.09810936450958252,-0.4373975992202759,-0.5618066787719727
1782816360751214600,0.720214599609375,-0.36964136362075806,-1.292777180671692,-0.7502434253692627
1782816360771296500,0.740296630859375,-0.5482003092765808,-1.57096529006958,-1.0688682794570923
1782816360791378400,0.76037841796875,-0.7772679328918457,-1.041261911392212,-1.3620692491531372
1782816360811460600,0.780460693359375,-0.8703824281692505,0.3118191361427307,-1.3101950883865356
1782816360831542500,0.80054248046875,-1.0600789785385132,1.5877569913864136,-1.147567868232727
1782816360851624400,0.82062451171875,-1.196130633354187,1.9635823965072632,-0.9930324554443359
1782816360871706400,0.840706298828125,-1.0314569473266602,1.6072089672088623,-0.8023015260696411
1782816360891788500,0.86078857421875,-0.7455784678459167,1.624257206916809,-0.3859647810459137
1782816360911869400,0.880869384765625,-0.5860949158668518,1.8141894340515137,0.1277235597372055
1782816360931951600,0.90095166015625,-0.4883365035057068,1.598404049873352,0.5181663632392883
1782816360952033500,0.921033447265625,-0.2500011920928955,1.052759051322937,0.7115667462348938
1782816360972115500,0.941115478515625,0.2157667875289917,0.5597388744354248,0.6559267044067383
1782816360992197600,0.96119775390625,0.7926679253578186,0.40309223532676697,0.504913866519928
1782816361012279600,0.981279541015625,1.5554194450378418,1.1227456331253052,0.1135294958949089
1782816361032361500,1.001361572265625,2.3225674629211426,1.8351012468338013,-0.3759567141532898
1782816361052443400,1.021443359375,2.895688533782959,1.9367438554763794,-0.6879335045814514
1782816361072525600,1.041525634765625,3.279552936553955,1.3487118482589722,-0.5280159711837769
1782816361092607500,1.061607421875,3.361191987991333,0.7260110974311829,0.14694593846797943
1782816361112689400,1.081689453125,3.191112518310547,-0.5091703534126282,1.3438020944595337
1782816361132770600,1.1017705078125,0.8579663634300232,-4.412734508514404,2.159168243408203
1782816361152852500,1.1218525390625,-0.5887948870658875,-7.694044589996338,2.7657623291015625
1782816361172934700,1.1419345703125,-1.7189606428146362,-5.9400410652160645,3.346853256225586
1782816361193016600,1.1620166015625,-1.7174594402313232,-3.279046058654785,1.0160884857177734
1782816361213098500,1.182098388671875,-0.362657755613327,-1.3604233264923096,-1.0441563129425049
1782816361233180400,1.202180419921875,0.23387569189071655,-0.004973126109689474,-3.0531344413757324
1782816361253262600,1.2222626953125,-0.028401993215084076,0.12723805010318756,-3.474264621734619
1782816361273344500,1.242344482421875,-0.2160317748785019,-0.47255244851112366,-3.196711301803589
1782816361293426400,1.262426513671875,-0.27585288882255554,-1.6984587907791138,-2.880188465118408
1782816361313508600,1.282508544921875,-0.5100753903388977,-1.6036663055419922,-2.4145450592041016
1782816361333589200,1.30258935546875,-0.18357016146183014,-0.49477988481521606,-1.773328423500061
1782816361353671400,1.32267138671875,0.060417477041482925,0.22903314232826233,-1.5020536184310913
1782816361373753300,1.34275341796875,0.2991545796394348,0.2698999047279358,-1.2737188339233398
1782816361393835300,1.362835205078125,0.6875775456428528,0.3105059564113617,-0.7736412882804871
1782816361413917200,1.382917236328125,1.015496850013733,0.13108254969120026,-0.0727960616350174
1782816361433999400,1.402999267578125,1.3441399335861206,0.44696176052093506,0.603245735168457
1782816361454081300,1.423081298828125,1.558882474899292,0.8222092986106873,0.9210913181304932
1782816361474163200,1.4431630859375,1.636083960533142,1.1837083101272583,0.9124688506126404
1782816361494245400,1.463245361328125,1.3534833192825317,0.9839487671852112,0.8905849456787109
1782816361514327300,1.483327392578125,1.1109658479690552,0.4673454463481903,1.1731288433074951
1782816361534409200,1.5034091796875,0.9519765377044678,0.27694305777549744,1.3984100818634033
1782816361554490400,1.523490478515625,0.7612603902816772,0.005843907594680786,0.9554898738861084
1782816361574572300,1.543572265625,0.5535115003585815,0.07041757553815842,0.8013080358505249
1782816361594654200,1.563654296875,0.47440189123153687,0.3093409538269043,0.9091768264770508
1782816361614736400,1.583736328125,0.7512540221214294,-0.05747554078698158,0.4420471489429474
1782816361634818300,1.603818359375,1.118265986442566,0.003808107227087021,0.4556490480899811
1782816361654900200,1.623900146484375,1.6381536722183228,-0.22911936044692993,0.5715931057929993
1782816361674982400,1.643982421875,1.8712629079818726,-0.45268723368644714,0.4049626290798187
1782816361695064300,1.664064208984375,1.528307318687439,-0.6046867966651917,0.8265624642372131
1782816361715146200,1.684146240234375,0.5134926438331604,-1.8903796672821045,0.6411205530166626
1782816361735228400,1.704228515625,-0.48857036232948303,-2.993999719619751,-0.39616361260414124
1782816361755310300,1.724310302734375,-1.2390323877334595,-1.10532808303833,-1.2060253620147705
1782816361775391200,1.74439111328125,-1.3691136837005615,1.8498772382736206,-1.9159626960754395
1782816361795473400,1.764473388671875,-1.2484320402145386,2.5852527618408203,-1.9047118425369263
1782816361815555300,1.784555419921875,-1.334930658340454,1.237663745880127,-1.0269317626953125
1782816361835637200,1.80463720703125,-1.2208551168441772,0.16055454313755035,0.06968194246292114
1782816361855719400,1.824719482421875,-0.7210935354232788,0.07410082221031189,0.7449628114700317
1782816361875801300,1.84480126953125,-0.25835055112838745,0.14134135842323303,0.9141533970832825
1782816361895883300,1.86488330078125,0.048882219940423965,0.06626694649457932,0.9037745594978333
1782816361915965400,1.88496533203125,0.19733849167823792,-0.01633671298623085,1.0061248540878296
1782816361936047400,1.90504736328125,0.23217663168907166,0.12919579446315765,1.2445447444915771
1782816361956129300,1.92512939453125,0.34251686930656433,0.30012547969818115,1.5098313093185425
1782816361976211200,1.945211181640625,0.36632534861564636,0.23492929339408875,1.4964418411254883
1782816361996292400,1.965292236328125,0.2338939905166626,-0.18686912953853607,1.2004355192184448
1782816362016374300,1.985374267578125,0.0913098081946373,-0.4523729383945465,1.0768322944641113
1782816362036456400,2.00545654296875,-0.12466391175985336,-0.9229769706726074,0.9360226392745972
1782816362056538400,2.025538330078125,-0.506564736366272,-0.6355085372924805,1.153210163116455
1782816362076620300,2.045620361328125,-0.977484405040741,-0.7820192575454712,1.5946868658065796
1782816362096702500,2.065702392578125,-1.2603310346603394,-1.340501308441162,1.4388837814331055
1782816362116784400,2.085784423828125,-0.4855736196041107,-1.1364551782608032,0.48120376467704773
1782816362136866300,2.1058662109375,1.1092551946640015,0.5305260419845581,-0.24758709967136383
1782816362156948200,2.1259482421875,1.5292868614196777,0.7277644872665405,-0.36445245146751404
1782816362177030400,2.146030517578125,1.4702337980270386,-0.31150081753730774,-0.6286991238594055
1782816362197111300,2.166111328125,0.7906190156936646,-2.388709783554077,-2.503981590270996
1782816362217193500,2.186193359375,0.11509716510772705,-2.8405520915985107,-3.7719309329986572
1782816362237275400,2.206275390625,0.004436246585100889,-1.8847379684448242,-3.619194269180298
1782816362257357300,2.226357421875,0.18667687475681305,-0.6443649530410767,-2.8097736835479736
1782816362277439200,2.246439208984375,-0.05606026202440262,0.024470249190926552,-2.1560006141662598
1782816362297521400,2.266521484375,-0.4218498468399048,0.2028370350599289,-1.9235855340957642
1782816362317603300,2.286603271484375,-0.7112154364585876,0.6616141200065613,-1.8493144512176514
1782816362337686300,2.306686279296875,-0.6882678866386414,1.3479161262512207,-1.4435224533081055
1782816362357768200,2.326768310546875,-0.28424954414367676,1.6374975442886353,-0.8172414302825928
1782816362377850400,2.346850341796875,0.04793139174580574,1.763651967048645,-0.1576504409313202
1782816362397932300,2.366932373046875,0.31822699308395386,1.6250165700912476,0.4504472017288208
1782816362418013400,2.387013427734375,0.3343559801578522,1.170352816581726,0.8170205950737
1782816362438095400,2.407095458984375,-0.08297982811927795,0.23896785080432892,0.8819807767868042
1782816362458177300,2.42717724609375,-0.6317942142486572,-0.048981644213199615,0.7803338170051575
1782816362478259200,2.44725927734375,-0.7765857577323914,0.1874988079071045,0.7090873122215271
1782816362498341400,2.46734130859375,-0.8007440567016602,0.5457143783569336,0.7661616206169128
1782816362518423300,2.48742333984375,-0.7829639911651611,0.7867494225502014,0.9193816781044006
1782816362538505200,2.507505126953125,-0.45254266262054443,0.7670353055000305,1.0514856576919556
1782816362558587400,2.52758740234375,0.032724618911743164,0.6751173734664917,0.9484485983848572
1782816362578669300,2.54766943359375,0.21215376257896423,0.8837986588478088,0.8884872198104858
1782816362598751200,2.567751220703125,0.6069748997688293,1.5034265518188477,1.1842036247253418
1782816362618832400,2.587832275390625,0.6127681732177734,0.9602063894271851,1.1288247108459473
1782816362638914300,2.607914306640625,0.7945764660835266,-0.04743754491209984,0.9957675337791443
1782816362658996200,2.627996337890625,0.7002729177474976,-1.3315800428390503,0.5118981599807739
1782816362679078400,2.648078369140625,-0.21290534734725952,-2.4750702381134033,-0.6171007752418518
1782816362699160300,2.668160400390625,-1.4871430397033691,-2.7559752464294434,-2.164844274520874
1782816362719242200,2.6882421875,-2.0006401538848877,-1.5201255083084106,-2.987610101699829
1782816362739324400,2.708324462890625,-1.7734357118606567,-0.6878654956817627,-3.5773074626922607
1782816362759406300,2.72840625,-1.408370018005371,0.1105494350194931,-3.1728265285491943
1782816362779488300,2.74848828125,-0.7898521423339844,0.8897916674613953,-1.9427932500839233
1782816362799570400,2.7685703125,-0.3466796278953552,1.3337640762329102,-0.5863018035888672
1782816362819651300,2.7886513671875,0.05151379108428955,1.2829121351242065,0.3744127154350281
1782816362839733200,2.808733154296875,0.5379582047462463,1.1589391231536865,0.8402118682861328
1782816362859815400,2.8288154296875,1.0136343240737915,1.0560669898986816,0.9674860239028931
1782816362879897300,2.8488974609375,1.3530687093734741,0.928482711315155,1.0909950733184814
1782816362899979300,2.868979248046875,1.484731674194336,0.8419430255889893,1.2515854835510254
1782816362920061400,2.8890615234375,1.451346516609192,0.5736894607543945,1.076930046081543
1782816362940143400,2.909143310546875,1.3651562929153442,0.4640226364135742,0.7504443526268005
1782816362960225300,2.929225341796875,1.0689440965652466,0.5289446115493774,0.4866500198841095
1782816362980307500,2.949307373046875,0.710080623626709,0.623302161693573,0.41905441880226135
1782816363000389400,2.969389404296875,0.3718011677265167,0.6154916882514954,0.5120106935501099
1782816363020470300,2.98947021484375,0.1209838017821312,0.6530906558036804,0.7064177393913269
1782816363040552400,3.009552490234375,0.06397659331560135,1.5426783561706543,0.8856170773506165
1782816363060634400,3.02963427734375,0.22870223224163055,0.3628102242946625,0.44625866413116455
1782816363080716300,3.04971630859375,1.1657675504684448,0.23082923889160156,0.9920353889465332
1782816363100798500,3.069798583984375,1.6546186208724976,-1.5311156511306763,1.4525582790374756
1782816363120880400,3.08988037109375,1.1970406770706177,-2.7524914741516113,1.7780424356460571
1782816363140962300,3.10996240234375,0.6132704019546509,-2.602210760116577,1.4834498167037964
1782816363161044500,3.13004443359375,-0.20471322536468506,-1.9867998361587524,-0.5436729788780212
1782816363181126400,3.15012646484375,-1.7253782749176025,-2.6002445220947266,-3.559772253036499
1782816363201207300,3.170207275390625,-3.038738489151001,-2.8989479541778564,-4.661533832550049
1782816363221289500,3.19028955078125,-3.9014933109283447,-3.126202344894409,-3.6975982189178467
1782816363241371400,3.210371337890625,-3.8159892559051514,-1.3436734676361084,-1.856224775314331
1782816363261453300,3.230453369140625,-2.949512004852295,0.7296351790428162,-1.087894320487976
1782816363281535500,3.250535400390625,-1.6594468355178833,2.0920979976654053,-1.6447597742080688
1782816363301617400,3.270617431640625,-0.8979673385620117,2.768954038619995,-2.309921979904175
1782816363321699300,3.29069921875,-0.5572664737701416,2.9344263076782227,-2.1673736572265625
1782816363341780500,3.310780517578125,0.0904005840420723,2.7575390338897705,-1.620648741722107
1782816363361862400,3.3308623046875,0.7875092029571533,2.6303212642669678,-1.092239260673523
1782816363381944300,3.3509443359375,1.2489789724349976,2.2547597885131836,-0.7321311831474304
1782816363402025200,3.371025146484375,1.5060086250305176,1.3393319845199585,-0.4430575668811798
1782816363422107100,3.391107177734375,1.5841057300567627,0.029338793829083443,0.16625355184078217
1782816363442189300,3.411189208984375,1.4099485874176025,-1.301846981048584,1.261400818824768
1782816363462271200,3.431271240234375,0.8300707340240479,-1.3324861526489258,2.593571901321411
1782816363482353200,3.451353271484375,0.20205925405025482,-1.0947359800338745,3.6421618461608887
1782816363502435300,3.471435302734375,-0.2058737874031067,-2.453141927719116,2.637951135635376
1782816363522517200,3.491517333984375,0.17714165151119232,-0.3161880075931549,1.230195164680481
1782816363542599200,3.51159912109375,1.0363094806671143,1.8057302236557007,0.1612759232521057
1782816363562681000,3.53168115234375,1.419994831085205,1.7926990985870361,0.3690083622932434
1782816363582762200,3.55176220703125,1.2823363542556763,-0.39710700511932373,1.5506412982940674
1782816363602844200,3.57184423828125,0.9963749051094055,-2.516502618789673,2.3239099979400635
1782816363622926300,3.59192626953125,0.35714706778526306,-3.8005974292755127,1.7028844356536865
1782816363643008300,3.61200830078125,-0.5171032547950745,-4.543647289276123,-0.24879415333271027
1782816363663090200,3.632090087890625,-1.167625904083252,-3.878211498260498,-2.395531177520752
1782816363683172400,3.65217236328125,-1.3894466161727905,-1.4028254747390747,-3.211425304412842
1782816363703254300,3.672254150390625,-1.1133438348770142,0.5825609564781189,-3.364156484603882
1782816363723336200,3.692336181640625,-1.0463577508926392,1.6835180521011353,-2.9800243377685547
1782816363743418000,3.712418212890625,-1.1311684846878052,1.9103727340698242,-2.346111297607422
1782816363763500300,3.732500244140625,-1.0376808643341064,1.810583472251892,-1.6442492008209229
1782816363783581200,3.752581298828125,-0.7673507928848267,1.3063311576843262,-0.9443506598472595
1782816363803663400,3.772663330078125,-0.35201364755630493,0.9697988033294678,-0.1508667916059494
1782816363823745300,3.792745361328125,0.014890922233462334,0.917984127998352,0.5867648124694824
1782816363843827200,3.8128271484375,0.5159221887588501,0.6925827264785767,0.9938211441040039
1782816363863909000,3.8329091796875,0.9209343791007996,0.31692469120025635,1.1560872793197632
1782816363883991300,3.8529912109375,0.8554050922393799,0.06807336956262589,1.1549972295761108
1782816363904073200,3.8730732421875,0.6732969880104065,-0.21383345127105713,1.1825319528579712
1782816363924155100,3.893155029296875,0.5630452632904053,-0.2413390874862671,1.4755605459213257
1782816363944237300,3.9132373046875,0.46871083974838257,-0.12951797246932983,1.6131540536880493
1782816363964318200,3.933318115234375,0.35428398847579956,-0.1710580736398697,1.585646152496338
1782816363984400400,3.953400390625,0.14851617813110352,-0.26695743203163147,1.48975670337677
1782816364004482300,3.973482421875,0.1865984946489334,0.9338096976280212,1.157930850982666
1782816364024564200,3.993564208984375,0.8570984601974487,1.7801066637039185,0.3458329439163208
1782816364044646100,4.013646240234375,1.1376919746398926,1.561655879020691,-0.07180798053741455
1782816364064728300,4.033728271484375,1.0058902502059937,-0.35321322083473206,-0.3460594415664673
1782816364084810200,4.053810302734375,1.0507972240447998,-1.5392529964447021,-0.11359745264053345
1782816364104892200,4.07389208984375,1.132378339767456,-1.683254599571228,0.13015571236610413
1782816364124974300,4.093974365234375,0.6698447465896606,-1.4388096332550049,-0.29929137229919434
1782816364145055200,4.11405517578125,0.32566776871681213,-0.32225295901298523,-1.0266960859298706
1782816364165137400,4.134137451171875,0.22070960700511932,0.8844934701919556,-1.5154366493225098
1782816364185219300,4.15421923828125,0.025594064965844154,1.3057161569595337,-1.6604286432266235
1782816364205301200,4.17430126953125,-0.28928789496421814,1.1817625761032104,-1.4600777626037598
1782816364225383200,4.194383056640625,-0.5317318439483643,0.9136492013931274,-1.1313849687576294
1782816364245465300,4.21446533203125,-0.5770353078842163,0.7363026142120361,-0.7344382405281067
1782816364265547300,4.23454736328125,-0.47607001662254333,0.6976314783096313,-0.3148450255393982
1782816364285629200,4.254629150390625,-0.37816500663757324,0.632497251033783,-0.00905122235417366
1782816364305711400,4.27471142578125,-0.324930876493454,0.5297155976295471,0.2018071711063385
1782816364325792300,4.294792236328125,-0.21542325615882874,0.5735553503036499,0.38951724767684937
1782816364345874400,4.31487451171875,-0.0410275012254715,0.5943443179130554,0.5142066478729248
1782816364365956600,4.33495654296875,0.11925056576728821,0.47400999069213867,0.5751805305480957
1782816364386038500,4.35503857421875,0.19738444685935974,0.12492544203996658,0.6360380053520203
1782816364406120400,4.375120361328125,0.13780491054058075,-0.3002484440803528,0.8096635341644287
1782816364426202600,4.39520263671875,0.006512247491627932,-0.479825496673584,1.0722851753234863
1782816364446284500,4.415284423828125,-0.25364798307418823,-0.18192444741725922,1.2333543300628662
1782816364466366500,4.435366455078125,-0.10585533827543259,-0.7281619906425476,1.1492457389831543
1782816364486448600,4.45544873046875,0.5263155102729797,0.083102747797966,1.3590672016143799
1782816364506529300,4.475529296875,1.241046667098999,0.7789377570152283,1.5127211809158325
1782816364526611500,4.495611572265625,0.8650016784667969,-1.1982444524765015,0.8711006045341492
1782816364546693400,4.515693359375,-0.10843010246753693,-3.845088481903076,-0.12756195664405823
1782816364566775300,4.535775390625,-0.9977155923843384,-5.378528594970703,-0.9536976218223572
1782816364586857200,4.555857177734375,-1.676777958869934,-4.672394275665283,-1.333595633506775
1782816364606939400,4.575939453125,-1.5066832304000854,-2.577488660812378,-1.6952550411224365
1782816364627021300,4.596021240234375,-0.8341929316520691,-0.5539812445640564,-2.3263731002807617
1782816364647103500,4.616103515625,-0.7934741377830505,0.10392200946807861,-2.7903125286102295
1782816364667185700,4.636185546875,-1.0114949941635132,0.16195525228977203,-2.3787012100219727
1782816364687266300,4.656266357421875,-1.1992799043655396,0.6228538751602173,-1.4528995752334595
1782816364707348200,4.67634814453125,-1.272924542427063,1.5277931690216064,-0.5231717228889465
1782816364727430400,4.696430419921875,-1.0717538595199585,2.528872489929199,-0.056790731847286224
1782816364747512300,4.71651220703125,-0.6932212114334106,3.2387192249298096,-0.11218442767858505
1782816364767594200,4.73659423828125,-0.2609003782272339,3.3633501529693604,-0.24203243851661682
1782816364787676400,4.756676513671875,0.1280737817287445,3.1975960731506348,-0.1657581776380539
1782816364807758300,4.77675830078125,0.6459289193153381,2.6789345741271973,-0.06960996240377426
1782816364827840300,4.79684033203125,1.023145079612732,1.8173713684082031,0.1907113641500473
1782816364847922400,4.81692236328125,1.1603292226791382,1.1390953063964844,0.7991631627082825
1782816364868003300,4.83700341796875,1.0388425588607788,0.9129260182380676,1.3918514251708984
1782816364888085200,4.857085205078125,0.6752040982246399,0.4419204890727997,1.909964680671692
1782816364908167400,4.87716748046875,-0.11738083511590958,-0.45668530464172363,2.176971197128296
1782816364928249300,4.897249267578125,-0.8515617847442627,-1.1733042001724243,2.0939009189605713
1782816364948331300,4.917331298828125,-1.0648398399353027,-1.051848292350769,1.830391764640808
1782816364968413400,4.937413330078125,-0.26612967252731323,-0.49163365364074707,1.4212925434112549
1782816364988495400,4.957495361328125,0.05132918432354927,-0.7005667090415955,0.9783327579498291
1782816365008577300,4.977577392578125,0.028133412823081017,-1.1708176136016846,0.897362470626831
1782816365028659500,4.997659423828125,-0.17973878979682922,-1.6847259998321533,0.6489508152008057
1782816365048740400,5.017740234375,-0.5021033883094788,-2.4270620346069336,-0.07153692096471786
1782816365068822300,5.037822265625,-1.1073503494262695,-2.6263513565063477,-0.9307578206062317
1782816365088904400,5.057904541015625,-1.2695165872573853,-0.9898509979248047,-1.2226186990737915
1782816365108986400,5.077986328125,-0.6732174158096313,1.3726128339767456,-1.524642825126648
1782816365129068300,5.098068359375,-0.20606359839439392,2.6943185329437256,-1.9793250560760498
1782816365149150500,5.118150390625,-0.22135013341903687,2.0405101776123047,-1.7994858026504517
1782816365169232400,5.138232421875,-0.26733988523483276,1.0928590297698975,-0.8239829540252686
1782816365189314300,5.158314208984375,-0.10278218984603882,0.7042022943496704,0.24272982776165009
1782816365209395500,5.1783955078125,0.17313839495182037,0.5530688166618347,0.9475220441818237
1782816365229477400,5.198477294921875,0.4389244318008423,0.6324177384376526,1.1892521381378174
1782816365249559300,5.218559326171875,0.593195378780365,0.7839050889015198,1.1735663414001465
1782816365269641500,5.238641357421875,0.6284695267677307,0.8022985458374023,1.1149245500564575
1782816365289723400,5.258723388671875,0.6080194115638733,0.793626606464386,1.1165252923965454
1782816365309805300,5.278805419921875,0.5833067893981934,0.8518950343132019,1.107184648513794
1782816365329887500,5.298887451171875,0.5471919178962708,0.8934017419815063,1.019376516342163
1782816365349969000,5.318968994140625,0.50874263048172,0.6839461922645569,0.8957098126411438
1782816365370677000,5.339677001953125,0.42910823225975037,0.36212727427482605,0.8251728415489197
1782816365390759000,5.359759033203125,0.2641277611255646,-0.22971270978450775,0.7289667725563049
1782816365410841000,5.379841064453125,0.18369363248348236,-0.7617409229278564,0.3427651822566986
1782816365430923000,5.399923095703125,0.2967800796031952,-0.6726436614990234,-0.5800476670265198
1782816365451005000,5.4200048828125,0.48350420594215393,-0.8710548281669617,-1.576941967010498
1782816365471087000,5.440087158203125,0.7004275321960449,-1.265622615814209,-1.7826611995697021
1782816365491167700,5.460167724609375,1.1531516313552856,-1.486356258392334,-1.4219932556152344
1782816365511249700,5.480249755859375,1.0708000659942627,-3.1902518272399902,-1.4777623414993286
1782816365531331800,5.500331787109375,0.538889467716217,-3.3882739543914795,-1.7733370065689087
1782816365551413800,5.520413818359375,-0.17621061205863953,-2.158690929412842,-2.387539863586426
1782816365571495700,5.54049560546875,-0.9164687395095825,-0.6365647315979004,-3.1915786266326904
1782816365591578000,5.560578125,-1.1876803636550903,0.4721532464027405,-3.709782838821411
1782816365611660000,5.580659912109375,-0.5640457272529602,1.3875203132629395,-3.3806569576263428
1782816365631742000,5.600741943359375,0.3480340242385864,1.8896641731262207,-2.268425703048706
1782816365651823900,5.620823974609375,0.9781039357185364,1.5783849954605103,-0.9234097599983215
1782816365671904800,5.64090478515625,1.4631805419921875,1.2225477695465088,0.1796512007713318
1782816365692616000,5.661615966796875,1.7390683889389038,0.9728794693946838,0.9038705229759216
1782816365712697900,5.68169775390625,1.8578613996505737,0.48446279764175415,1.1801815032958984
1782816365732780000,5.701780029296875,1.9033255577087402,0.1273605078458786,1.2857239246368408
1782816365752860700,5.721860595703125,1.846300482749939,-0.17894867062568665,1.3775966167449951
1782816365772942800,5.74194287109375,1.6386398077011108,-0.38480472564697266,1.400704026222229
1782816365793024800,5.762024658203125,1.4022083282470703,-0.341580867767334,1.2526988983154297
1782816365813106700,5.782106689453125,1.2327189445495605,-0.20035651326179504,1.037439227104187
1782816365833188900,5.80218896484375,1.1987046003341675,0.2693055272102356,0.9961519241333008
1782816365853271000,5.82227099609375,1.2611950635910034,1.1845165491104126,0.9962522983551025
1782816365873353000,5.84235302734375,1.323941707611084,2.3760223388671875,0.8703247904777527
1782816365893435000,5.862434814453125,1.561133623123169,2.785578966140747,0.34852275252342224
1782816365913517000,5.88251708984375,1.801522135734558,1.3664718866348267,-0.3725751042366028
1782816365933597700,5.90259765625,1.7607965469360352,0.01622295007109642,-0.5077816247940063
1782816365953680000,5.922679931640625,1.2569217681884766,-1.1081446409225464,-0.5459470748901367
1782816365973761800,5.94276171875,0.5813456177711487,-1.1472980976104736,-0.6454455852508545
1782816365993843700,5.96284375,0.10132297873497009,-0.4325096011161804,-1.308393955230713
1782816366013926000,5.98292578125,-0.2804306149482727,0.41922393441200256,-2.055105447769165
1782816366034007800,6.0030078125,-0.5543065667152405,0.941378116607666,-2.3088808059692383
1782816366054089700,6.02308984375,-0.8495379686355591,0.31195902824401855,-2.101097583770752
1782816366074172000,6.043171875,-0.8936692476272583,-0.9076188206672668,-1.4796274900436401
1782816366094253800,6.06325390625,-0.5284168720245361,-1.5167070627212524,-0.7327229380607605
1782816366114334700,6.083334716796875,-0.251076340675354,-1.0078586339950562,0.4326716959476471
1782816366134417000,6.1034169921875,-0.21315626800060272,0.04083813726902008,1.2744011878967285
1782816366154498800,6.123498779296875,-0.09655305743217468,0.887226402759552,1.4070873260498047
1782816366174580700,6.143580810546875,0.0016787310596555471,0.39240944385528564,0.7451512217521667
1782816366194663000,6.163662841796875,0.14009210467338562,0.08264410495758057,0.21606598794460297
1782816366214744800,6.183744873046875,0.1698787361383438,0.3041747212409973,0.31983673572540283
1782816366234826800,6.20382666015625,0.21679694950580597,0.0881386250257492,0.7072356343269348
1782816366254909000,6.223908935546875,0.06262572854757309,-0.7954139709472656,0.8145648241043091
1782816366274990800,6.243990966796875,-0.6115192174911499,-2.139838933944702,0.35377398133277893
1782816366295071700,6.26407177734375,-1.40907621383667,-3.346954345703125,-0.741237461566925
1782816366315154000,6.28415380859375,-1.7154815196990967,-1.9695950746536255,-0.5641643404960632
1782816366335235800,6.30423583984375,-1.6524107456207275,0.8987393379211426,0.4039251506328583
1782816366355318000,6.324318115234375,-1.0361578464508057,2.0036611557006836,1.3057562112808228
1782816366375400200,6.344400146484375,-0.5331708788871765,1.7524651288986206,1.7614177465438843
1782816366395482000,6.364482177734375,-0.25310635566711426,0.6528972387313843,1.7301465272903442
1782816366415564000,6.38456396484375,-0.3772300183773041,-1.2938498258590698,1.2540305852890015
1782816366435646000,6.40464599609375,-0.5607380270957947,-3.3036746978759766,0.47933170199394226
1782816366455728000,6.42472802734375,-0.8441101312637329,-3.6459193229675293,0.053050439804792404
1782816366475809000,6.44480908203125,-0.7705882787704468,-2.3542721271514893,-0.2724999189376831
1782816366495891200,6.46489111328125,-0.27665552496910095,-0.6930776834487915,-0.8666948080062866
1782816366515973000,6.48497314453125,0.050452832132577896,0.9879921674728394,-1.3546209335327148
1782816366536055000,6.505054931640625,0.18446135520935059,2.0292768478393555,-1.5688601732254028
1782816366556137000,6.525136962890625,0.26916050910949707,2.343851327896118,-1.4751518964767456
1782816366576219100,6.54521923828125,0.48099878430366516,2.4417402744293213,-1.1778552532196045
1782816366596301000,6.565301025390625,0.616378903388977,2.628807544708252,-0.7280086874961853
1782816366616383000,6.585383056640625,0.7004366517066956,2.664273262023926,-0.31546711921691895
1782816366636464000,6.605464111328125,0.7724828720092773,2.584545135498047,0.035194799304008484
1782816366656546000,6.625546142578125,0.856458306312561,2.385190010070801,0.33847925066947937
1782816366676628200,6.645628173828125,0.8991892337799072,1.8371734619140625,0.5934588313102722
1782816366696710100,6.665710205078125,0.9240060448646545,0.9733080267906189,0.9204935431480408
1782816366716792000,6.6857919921875,0.7640502452850342,-0.013655785471200943,1.2733114957809448
1782816366736874000,6.7058740234375,0.2034437358379364,-1.5569549798965454,1.4376651048660278
1782816366756956200,6.7259560546875,-0.5460711121559143,-3.626126289367676,1.5601760149002075
1782816366777038000,6.7460380859375,-0.7978651523590088,-4.196331977844238,1.3049288988113403
1782816366797120000,6.7661201171875,-0.6704328060150146,-2.4977855682373047,0.8783811926841736
1782816366817201200,6.786201171875,-1.0798323154449463,0.14496177434921265,0.7129942774772644
1782816366837283000,6.806282958984375,-1.3484920263290405,0.8825570344924927,0.29489582777023315
1782816366857365200,6.826365234375,-1.5292102098464966,0.38048237562179565,0.31811222434043884
1782816366877447200,6.846447265625,-1.542178750038147,-0.9719536900520325,0.31209802627563477
1782816366897529000,6.866529052734375,-1.5116677284240723,-2.5400021076202393,-0.0755394920706749
1782816366917611000,6.886611083984375,-1.7013312578201294,-3.3766210079193115,-0.5989992022514343
1782816366937693200,6.906693115234375,-1.786670207977295,-2.492682695388794,-1.063720941543579
1782816366957775000,6.926775146484375,-1.5630265474319458,-1.3177387714385986,-1.605751395225525
1782816366977856300,6.946856201171875,-1.0209712982177734,-1.2669175863265991,-1.6300731897354126
1782816366997938200,6.966938232421875,-0.7981440424919128,-1.319058895111084,-0.5546026825904846
1782816367018020000,6.98702001953125,-0.6703019142150879,-0.6096577644348145,0.7845036387443542
1782816367038102300,7.007102294921875,-0.33913111686706543,0.2901160418987274,1.766500473022461
1782816367058184200,7.02718408203125,0.2863534092903137,1.0302081108093262,2.042647123336792
1782816367078266000,7.04726611328125,0.8806288242340088,1.6948431730270386,1.7591685056686401
1782816367098348000,7.06734814453125,1.0627084970474243,2.203157663345337,1.4619354009628296
1782816367118430200,7.08743017578125,1.0580172538757324,2.438763380050659,1.0998436212539673
1782816367138512100,7.10751220703125,0.9034358263015747,2.472507953643799,0.8138810396194458
1782816367158593300,7.12759326171875,0.6083527207374573,2.31813383102417,0.5652612447738647
1782816367178675200,7.14767529296875,0.047450434416532516,1.1831787824630737,0.7595639824867249
1782816367198757000,7.167757080078125,-0.45143526792526245,-0.25329163670539856,1.3634690046310425
1782816367218839300,7.18783935546875,-0.9011589884757996,-1.0691561698913574,1.487196683883667
1782816367238921200,7.207921142578125,-1.2985540628433228,-1.4295178651809692,0.7127593755722046
1782816367259003100,7.228003173828125,-1.4712015390396118,0.05823783949017525,0.39273104071617126
1782816367279085000,7.2480849609375,-1.436057448387146,1.5346628427505493,0.3125457167625427
1782816367299167200,7.268167236328125,-1.2623401880264282,0.8149173259735107,0.19397230446338654
1782816367319248100,7.288248046875,-1.0389846563339233,-0.6021585464477539,0.4217083156108856
1782816367339330600,7.30833056640625,-0.7973635792732239,-2.2097673416137695,0.5599614381790161
1782816367359412500,7.32841259765625,-0.8987246751785278,-3.4297609329223633,0.38054418563842773
1782816367379494400,7.348494384765625,-0.8498427271842957,-3.2311387062072754,0.11848749965429306
1782816367399576300,7.368576416015625,-0.3368356227874756,-1.6806927919387817,-0.0785914734005928
1782816367419658500,7.388658447265625,0.5319204926490784,-0.04679800570011139,-0.6389858722686768
1782816367439740400,7.408740478515625,0.6674368381500244,0.5289340615272522,-1.2516415119171143
1782816367459822300,7.428822265625,0.29884159564971924,0.5515696406364441,-1.1613003015518188
1782816367479903500,7.448903564453125,0.18545766174793243,1.0054279565811157,-0.6301549673080444
1782816367499985400,7.4689853515625,0.3639843463897705,1.55730402469635,-0.2727173864841461
1782816367520067300,7.4890673828125,0.5855675339698792,1.7308138608932495,-0.1657058596611023
1782816367540149500,7.5091494140625,0.6791516542434692,1.642346978187561,-0.06601762026548386
1782816367560231400,7.5292314453125,0.6340404748916626,1.2060548067092896,0.13200709223747253
1782816367580313300,7.549313232421875,0.6257619261741638,0.7915245890617371,0.2903077304363251
1782816367600395500,7.5693955078125,0.6703487038612366,0.2215813845396042,0.4186633229255676
1782816367620477400,7.5894775390625,0.607722282409668,-0.37865036725997925,0.5515250563621521
1782816367640559400,7.609559326171875,0.3332938849925995,-0.369276225566864,0.5247402191162109
1782816367660640500,7.629640625,0.26394760608673096,0.0399533174932003,0.4544493556022644
1782816367680722400,7.649722412109375,0.32841935753822327,0.6099170446395874,0.3669688403606415
1782816367700804400,7.669804443359375,0.4360741674900055,1.258097767829895,0.23837828636169434
1782816367720886500,7.689886474609375,0.37892454862594604,1.1026697158813477,0.024505402892827988
1782816367740968400,7.709968505859375,0.22569379210472107,-0.10182870924472809,0.011770645156502724
1782816367761050400,7.73005029296875,-0.27397239208221436,-1.8000051975250244,-0.23591074347496033
1782816367781132500,7.750132568359375,-0.4059459865093231,-2.1994965076446533,-1.0032885074615479
1782816367801214500,7.77021435546875,-0.3428100049495697,-1.617793321609497,-1.8215577602386475
1782816367821295600,7.790295654296875,-0.5224360227584839,-1.0393446683883667,-2.4341070652008057
1782816367841377500,7.81037744140625,-0.9384350776672363,-0.1429699808359146,-2.841952323913574
1782816367861459500,7.83045947265625,-0.9656733870506287,0.6001368761062622,-2.6926333904266357
1782816367881541400,7.850541259765625,-0.5639945864677429,0.8818317651748657,-1.953127384185791
1782816367901623600,7.87062353515625,0.011668272316455841,1.4344182014465332,-1.115990161895752
1782816367921705500,7.89070556640625,0.3515813946723938,1.510043978691101,-0.5339621305465698
1782816367941787400,7.910787353515625,0.48646193742752075,1.2385200262069702,-0.025199251249432564
1782816367961869600,7.93086962890625,0.38700971007347107,1.0751985311508179,0.4969187080860138
1782816367981950200,7.9509501953125,0.23313270509243011,1.104711890220642,0.8470898866653442
1782816368002032400,7.971032470703125,0.2326318621635437,1.0866162776947021,0.9800861477851868
1782816368022114300,7.9911142578125,0.43558207154273987,1.1139310598373413,1.02992582321167
1782816368042196200,8.0111962890625,0.7166098952293396,1.1179189682006836,1.122927188873291
1782816368062278100,8.031278076171875,0.8689155578613281,0.8098245859146118,1.2769215106964111
1782816368082360600,8.051360595703125,0.7403850555419922,0.26977601647377014,1.4937752485275269
1782816368102442500,8.0714423828125,0.527906060218811,-0.19497688114643097,1.7318453788757324
1782816368122524400,8.0915244140625,0.4031849801540375,-0.5939529538154602,1.7231624126434326
1782816368142605300,8.111605224609375,0.41925740242004395,-0.7286152839660645,1.1843892335891724
1782816368162687200,8.131687255859376,0.34755241870880127,-0.8076665997505188,0.19371025264263153
1782816368182769400,8.151769287109374,0.3102650046348572,-0.6343976855278015,-0.4554281234741211
1782816368202851300,8.171851318359375,0.3968777656555176,-0.818950355052948,-0.559300422668457
1782816368222933200,8.191933349609375,0.10838685184717178,-1.7203240394592285,-0.6244856119155884
1782816368243015200,8.21201513671875,-0.3338845670223236,-3.2684667110443115,-1.262035846710205
1782816368263097300,8.232097412109376,-0.7862758040428162,-3.871011972427368,-1.561267375946045
1782816368283179300,8.25217919921875,-0.6775149703025818,-2.6004605293273926,-1.0015627145767212
1782816368303260400,8.272260498046874,-0.24519968032836914,-0.3135274648666382,-0.29215025901794434
1782816368323342300,8.29234228515625,0.12970806658267975,1.1547915935516357,-0.18063268065452576
1782816368343423500,8.312423583984375,0.2867952585220337,1.4528934955596924,-0.39987286925315857
1782816368363505700,8.332505615234375,0.3029427230358124,1.5896371603012085,-0.3615901470184326
1782816368383587600,8.352587646484375,0.2907395660877228,1.5533621311187744,-0.22999559342861176
1782816368403669500,8.37266943359375,0.16059716045856476,1.5561516284942627,-0.1328262835741043
1782816368423751700,8.392751708984376,-0.07680125534534454,0.9448918104171753,-0.06676261126995087
1782816368443833600,8.41283349609375,-0.22970423102378845,-0.11026491224765778,0.10391564667224884
1782816368463914800,8.432914794921874,-0.2943885326385498,-0.8805996179580688,0.40706801414489746
1782816368483996700,8.45299658203125,-0.1923588067293167,-1.1989340782165527,0.592750608921051
1782816368504078600,8.47307861328125,0.0308561772108078,-1.4797585010528564,0.7059258818626404
1782816368524160500,8.493160400390625,0.14847129583358765,-1.7441033124923706,0.7747718691825867
1782816368544242700,8.51324267578125,0.06366286426782608,-1.803022861480713,0.6738535761833191
1782816368564324600,8.53332470703125,-0.1838899552822113,-1.6585297584533691,0.08139894157648087
1782816368584406500,8.553406494140624,-0.529654860496521,-1.1320182085037231,-0.72325599193573
1782816368604488700,8.57348876953125,-0.6770743131637573,-0.2502477169036865,-1.2441987991333008
1782816368624569600,8.593569580078125,-0.6011411547660828,0.8000448942184448,-1.2725170850753784
1782816368644651800,8.61365185546875,-0.3417518436908722,1.5515408515930176,-0.9974120855331421
1782816368664733700,8.633733642578125,-0.08966459333896637,1.7843438386917114,-0.6415955424308777
1782816368684815600,8.653815673828126,0.03945744037628174,1.4276165962219238,-0.350288063287735
1782816368704897500,8.6738974609375,0.03320508450269699,0.5945113301277161,-0.1156495213508606
1782816368724979700,8.693979736328124,-0.08123389631509781,-0.31278523802757263,-0.028352700173854828
1782816368745061600,8.7140615234375,-0.2236398458480835,-0.4124530255794525,-0.013387542217969894
1782816368765143600,8.7341435546875,-0.335143506526947,0.0445990115404129,-0.13772685825824738
1782816368785224700,8.754224609375,-0.3859682083129883,0.43799230456352234,-0.5142563581466675
1782816368805306600,8.774306640625,-0.5127820372581482,0.40685153007507324,-1.0444942712783813
1782816368825388500,8.794388427734376,-0.896370530128479,0.06397996097803116,-1.231382131576538
1782816368845470700,8.814470703125,-1.1442748308181763,-0.49448010325431824,-0.9596770405769348
1782816368865552600,8.834552734375,-0.5623382925987244,-0.15496721863746643,-0.728795051574707
1782816368885634600,8.854634521484375,-0.10860271006822586,0.6382967829704285,-0.582184374332428
1782816368905716700,8.874716796875,0.28616243600845337,0.6371970772743225,-0.6725633144378662
1782816368925798700,8.894798583984375,0.5344149470329285,0.2178293913602829,-0.7181692719459534
1782816368945879800,8.9148798828125,0.5794966220855713,-0.2304554581642151,-0.44490745663642883
1782816368965961700,8.934961669921876,0.6007966995239258,-0.19425329566001892,0.07631570845842361
1782816368986043600,8.955043701171874,0.68977290391922,0.05018383637070656,0.5153945684432983
1782816369006125600,8.97512548828125,0.6873780488967896,0.19433805346488953,0.5886297225952148
1782816369026207700,8.995207763671875,0.6872098445892334,0.3314419090747833,0.34861069917678833
1782816369046289700,9.01528955078125,0.6721139550209045,0.13932490348815918,0.16120535135269165
1782816369066371600,9.03537158203125,0.6182353496551514,-0.20722587406635284,0.16144627332687378
1782816369086453800,9.055453857421876,0.5228303074836731,-0.6212645769119263,0.2599118649959564
1782816369106534700,9.07553466796875,0.4800969660282135,-0.6703600883483887,0.3619948923587799
1782816369126616800,9.095616943359374,0.47269779443740845,-0.42414575815200806,0.36251771450042725
1782816369146698800,9.11569873046875,0.45766857266426086,-0.04023681581020355,0.29864102602005005
1782816369166780700,9.13578076171875,0.43765872716903687,0.31389060616493225,0.2426489293575287
1782816369186862600,9.155862548828125,0.41543757915496826,0.4272962510585785,0.2616724967956543
1782816369206944800,9.17594482421875,0.3939858675003052,0.39637646079063416,0.35613229870796204
1782816369227026700,9.196026611328126,0.393321692943573,0.4634341597557068,0.40025752782821655
1782816369247108600,9.216108642578124,0.44854310154914856,0.6037340760231018,0.2767667770385742
1782816369267189800,9.236189697265624,0.4959932565689087,0.622613251209259,0.028434855863451958
1782816369287271700,9.256271728515625,0.4884282052516937,0.4576055705547333,-0.12996330857276917
1782816369307353900,9.276353759765625,0.4102625250816345,0.15381759405136108,-0.04778333380818367
1782816369327435800,9.296435791015625,0.2953931987285614,-0.15918958187103271,0.0840308889746666
1782816369347518200,9.316518310546876,0.16767972707748413,-0.4395448863506317,0.08701974898576736
1782816369367599400,9.336599365234376,0.07433202117681503,-0.3909708857536316,0.08096255362033844
1782816369387681300,9.356681396484374,0.06000722199678421,-0.11759018152952194,0.03871449455618858
1782816369407763200,9.37676318359375,0.06763659417629242,0.09144610166549683,-0.0857207328081131
1782816369427845000,9.39684521484375,0.06445202231407166,0.15520627796649933,-0.12376175820827484
1782816369447927300,9.41692724609375,0.09617156535387039,0.09666791558265686,0.0019934361334890127
1782816369468009200,9.43700927734375,0.14407141506671906,-0.0005405878182500601,0.12053408473730087
1782816369488091100,9.457091064453126,0.1638154536485672,-0.06588512659072876,0.09148667752742767
1782816369508173300,9.47717333984375,0.14110803604125977,-0.05684030055999756,-0.0689481645822525
1782816369528254000,9.49725390625,0.10111220926046371,-0.07823796570301056,-0.19367097318172455
1782816369548336000,9.517336181640625,0.06589759886264801,-0.12546248733997345,-0.15678364038467407
1782816369568418000,9.53741796875,0.044497668743133545,-0.06112928315997124,-0.02965008094906807
1782816369588500000,9.5575,0.04380924254655838,0.06256868690252304,0.028735999017953873
1782816369608582100,9.57758203125,0.055907830595970154,0.10431122779846191,-0.024509863927960396
1782816369628664300,9.597664306640626,0.07829814404249191,0.10708344727754593,-0.07214150577783585
1782816369648746200,9.617746337890624,0.10847895592451096,0.08500132709741592,-0.07323116064071655
1782816369668827100,9.6378271484375,0.10860486328601837,0.02488592267036438,-0.06092502176761627
1782816369688910300,9.657910400390625,0.07490818947553635,-0.07969380915164948,-0.0778244212269783
1782816369708991000,9.677990966796875,0.04316968843340874,-0.1335325688123703,-0.07944811135530472
1782816369729073200,9.6980732421875,0.036938752979040146,-0.14354003965854645,-0.0515313521027565
1782816369749155000,9.718155029296875,0.06153703108429909,-0.09685084223747253,-0.013890346512198448
1782816369769237000,9.738237060546876,0.10101701319217682,-0.008001524955034256,-0.009451070800423622
1782816369789319000,9.75831884765625,0.10407733917236328,-0.007535673212260008,-0.030460581183433533
1782816369809401000,9.778401123046875,0.07449260354042053,-0.03472732752561569,-0.03735179081559181
1782816369829483000,9.79848291015625,0.05545448884367943,-0.08198173344135284,0.0042919013649225235
1782816369849565000,9.81856494140625,0.0695805624127388,-0.041163261979818344,0.041148941963911057
1782816369869646000,9.83864599609375,0.08322150260210037,0.03021695464849472,0.04119335487484932
1782816369889728000,9.85872802734375,0.07384251803159714,0.08779576420783997,0.03421769291162491
1782816369909810200,9.87881005859375,0.06547330319881439,0.04928787052631378,0.014249993488192558
1782816369929892000,9.89889208984375,0.0456119030714035,-0.03091859072446823,0.006003835704177618
1782816369949974000,9.91897412109375,0.020850995555520058,-0.08909057825803757,-0.011251797899603844
1782816369970056000,9.939055908203125,-0.0016742387088015676,-0.10458659380674362,-0.010187119245529175
1782816369990138000,9.95913818359375,-0.007446704898029566,-0.029651394113898277,-0.03472185879945755
1782816370010220000,9.979219970703125,-0.013074206188321114,0.02172037959098816,-0.12374349683523178
1782816370030301200,9.99930126953125,-0.02137930504977703,0.06870444864034653,-0.1664430946111679
1782816370050383000,10.019383056640624,-0.022727632895112038,0.09140811860561371,-0.10300040245056152
1782816370070465000,10.039465087890624,-0.018375888466835022,0.07750329375267029,-0.00036202440969645977
1782816370090547200,10.059547119140625,-0.023718327283859253,0.06181426718831062,0.026462245732545853
1782816370110629000,10.079629150390625,0.013398890383541584,0.042268916964530945,-0.009826953522861004
1782816370130711000,10.0997109375,0.047812964767217636,0.05881251394748688,0.0033349788282066584
1782816370150793000,10.11979296875,0.03837776556611061,0.02888007089495659,0.03175468370318413
1782816370170874000,10.1398740234375,0.017330089583992958,0.005775091238319874,0.0525963269174099
1782816370190956000,10.1599560546875,0.016691697761416435,0.0008019632659852505,0.05356203392148018
1782816370211038200,10.1800380859375,0.02472323179244995,0.012007808312773705,0.04408016800880432
1782816370231120100,10.2001201171875,0.027480537071824074,0.046016573905944824,0.03161067143082619
1782816370251202000,10.2202021484375,0.03795762360095978,0.13456228375434875,0.02593221887946129
1782816370271284200,10.2402841796875,0.03971191868185997,0.14028812944889069,0.006068820599466562
1782816370291366100,10.2603662109375,0.034254852682352066,0.07297559082508087,-0.009024647995829582
1782816370311448000,10.280447998046874,0.03213846683502197,0.015036048367619514,-0.0062593817710876465
1782816370331529200,10.300529296875,0.02401060424745083,0.003576722927391529,-0.006668702233582735
1782816370351610600,10.320610595703124,0.017357777804136276,0.03637426719069481,-0.0623367577791214
1782816370371692500,10.340692626953125,0.01781163178384304,0.09012710303068161,-0.12090105563402176
1782816370391774700,10.360774658203125,0.009565809741616249,0.07234561443328857,-0.12085206061601639
1782816370411856600,10.380856689453125,0.0023670936934649944,0.04231080412864685,-0.05239890515804291
1782816370431938600,10.4009384765625,0.01672014407813549,-0.003708223346620798,0.026232995092868805
1782816370452020700,10.421020751953124,0.03280631825327873,0.011118203401565552,0.08002197742462158
1782816370472103000,10.44110302734375,0.03790251538157463,0.08513686060905457,0.04995739087462425
1782816370492183800,10.461183837890625,0.022036854177713394,0.13469712436199188,-0.05317112058401108
1782816370512265700,10.481265625,0.012552419677376747,0.16298985481262207,-0.12619702517986298
1782816370532347600,10.50134765625,0.0023051428142935038,0.15119412541389465,-0.10520683228969574
1782816370552429600,10.5214296875,-0.020781833678483963,0.1507856547832489,-0.05772555246949196
1782816370572511700,10.54151171875,0.00489660631865263,0.12893955409526825,-0.04477151110768318
1782816370592593700,10.56159375,0.07877030223608017,0.18854083120822906,-0.0036333955358713865
1782816370612675600,10.581675537109374,0.0891609862446785,0.09138788282871246,0.09982087463140488
1782816370632757800,10.6017578125,0.0738813653588295,-0.14867664873600006,0.1304967701435089
1782816370652838700,10.621838623046875,0.0651954859495163,-0.18557561933994293,0.033771660178899765
1782816370672920600,10.641920654296875,0.01033913716673851,0.002731249202042818,-0.17788849771022797
1782816370693002800,10.662002685546875,-0.0781722292304039,0.1963091492652893,-0.26903945207595825
