time,seconds_elapsed,z,y,x
1782816348481282300,0.0692822265625,0.6229501122802495,-0.16170505817234515,-0.07860493282247334
1782816348501364200,0.0893642578125,0.7667372364461421,-0.053230070406198496,-0.47169484419077634
1782816348521446100,0.109446044921875,-0.19689210688769815,1.4627134219706057,-2.1495359947025774
1782816348541527300,0.12952734375,0.6487111610025167,1.2716726714596152,-1.1702362040281296
1782816348561609200,0.149609130859375,2.5946231102138757,1.1220070106491447,-0.42890342141892757
1782816348581691400,0.16969140625,3.0587264763623474,1.9851285457037389,0.8555984460733831
1782816348601773300,0.189773193359375,2.550624394011497,0.6702288730666041,1.385548349225521
1782816348621855200,0.209855224609375,-1.4927256983965635,-1.9020275070384143,3.1667718405395746
1782816348641937200,0.229937255859375,-1.2996855907618998,-3.146531601065397,4.673938736742735
1782816348662019300,0.250019287109375,2.456039399909973,-0.01350157886892557,2.5307731538549065
1782816348682101200,0.270101318359375,0.4049234474271536,0.45438788168951866,2.1328880806319415
1782816348702183200,0.29018310546875,0.537800470522046,0.4967199798539281,2.136893663011491
1782816348722265300,0.310265380859375,-1.5906991658926009,-0.9342650094226003,1.7940768354073167
1782816348742347300,0.33034716796875,-3.719088912191987,-1.5368112160995602,0.31795791535340245
1782816348762428200,0.35042822265625,-3.6852123615533112,-0.5244986520089209,-0.8637534032173454
1782816348782510300,0.37051025390625,-1.6880173843502997,0.6580898877877742,-1.6183496816232799
1782816348802592300,0.39059228515625,-1.561302975538373,1.6660706332191824,-1.1048422330975531
1782816348822674200,0.410674072265625,-1.142303071963787,1.393170806927979,-1.2782833217710257
1782816348842756400,0.43075634765625,0.22943010239899156,0.2824072940226644,-0.9363156583420932
1782816348862838300,0.45083837890625,1.8809411721289158,0.4312613461893052,-1.71137151806131
1782816348882920200,0.470920166015625,3.309385829272866,0.40775852472260593,-0.956045902467519
1782816348903002400,0.49100244140625,4.690716268542409,0.3880529766470194,0.4454878783319145
1782816348923084300,0.511084228515625,3.0318688645750282,0.3382088954173028,0.9568808189217001
1782816348943166200,0.531166259765625,-1.0228940177291632,-0.24288396966867148,-0.06370294910371303
1782816348963248000,0.551248046875,1.0852081428229807,-0.7215331630419939,1.9830073157660661
1782816348983330300,0.571330322265625,0.9317097719818354,0.8921476499874145,1.8233542216874659
1782816349003411200,0.5914111328125,-0.3447890044599771,2.2769006841167805,0.05127046077102423
1782816349023493400,0.611493408203125,0.19591887794137,1.078306985132396,0.7389321877408772
1782816349043575300,0.6315751953125,1.2736410489231347,-0.596683963580057,1.7376466537855564
1782816349063657200,0.6516572265625,4.620942475092411,-1.0746589840188623,1.0064337351851165
1782816349083739400,0.671739501953125,4.893091775277257,-1.4809157258763908,0.27569356692926955
1782816349103821300,0.6918212890625,1.6851052962958812,-0.7534349064763635,-0.4667302440533414
1782816349123903200,0.7119033203125,-1.483711201813817,0.35746516535542905,-1.6600535648867487
1782816349143985200,0.731985107421875,-5.588634830081462,-0.3032674189608544,-0.9744032508045435
1782816349164067300,0.7520673828125,-12.55025780302286,1.481698985208571,-1.2694877286359667
1782816349184149200,0.772149169921875,-16.697438272261618,4.362487646000087,-0.026196955921500918
1782816349204231200,0.792231201171875,-19.088794479858873,4.457646932858228,-0.7514853067785501
1782816349224312300,0.812312255859375,-18.56329877963662,1.677556926742941,-2.660769945338368
1782816349244394200,0.832394287109375,-16.16001481835842,-0.2768530939616263,-8.21787157303691
1782816349264476400,0.852476318359375,-7.95471631116867,-2.6760975705906747,-7.559669530111551
1782816349284558300,0.872558349609375,-1.3721569527328012,-3.1002780916735526,-6.221604816594719
1782816349304640300,0.89264013671875,1.6954986800163983,-2.4244544673398134,-1.5132529381185769
1782816349324722400,0.912722412109375,5.035372002011537,-1.5012230392374097,0.7326940970689058
1782816349344804600,0.9328046875,4.588680373913049,0.6417201330713928,1.718530596035719
1782816349364886500,0.952886474609375,5.800577791106701,1.9692263354338704,4.2796576793611045
1782816349384968400,0.972968505859375,9.527029925543069,1.8294819107875226,3.9132591929003593
1782816349405050600,0.993050537109375,11.925492750275135,1.269361325777322,3.4980487447366118
1782816349425132500,1.013132568359375,12.057732644510269,2.109868001180887,2.7420667110607027
1782816349445214500,1.03321435546875,10.94374498192668,3.189723677060008,2.908034979635477
1782816349465295600,1.053295654296875,11.24531502238512,2.47299813349545,3.412780152773857
1782816349485377500,1.07337744140625,11.106598625612259,2.5603601906061173,2.46697405090034
1782816349505459500,1.09345947265625,10.285125590372084,2.822292632681131,1.5466095565363764
1782816349525541600,1.113541748046875,8.242995492899418,2.511271457788348,0.9515963757127522
1782816349545623600,1.13362353515625,6.584726181080937,3.1293022338449954,0.4167456949070096
1782816349565705500,1.15370556640625,4.469018806222081,3.509887066568434,0.1498515387713909
1782816349585787600,1.17378759765625,1.5116525171846151,2.140853798814118,-0.5808553300030529
1782816349605869600,1.19386962890625,-0.5323030421495437,-0.09636866264790296,0.9254813989862799
1782816349625951500,1.213951416015625,-7.371370479524135,-2.163335679735243,-0.6777110455155372
1782816349646033400,1.234033447265625,-10.498889921605587,-1.2260051452621816,-2.604990190449357
1782816349666115600,1.254115478515625,-15.306605845153332,-0.41056905209869143,-3.5965099957495927
1782816349686196500,1.274196533203125,-11.180253059887885,-4.575824107210338,-3.2646380482688544
1782816349706278700,1.294278564453125,-7.2780708490580315,-4.993053786242008,-3.102153822417557
1782816349726360600,1.314360595703125,-7.755097994187474,-4.526229470697045,-5.441608870124816
1782816349746442500,1.3344423828125,-8.721561099642514,-0.10624386771321297,-2.830098337996006
1782816349766524700,1.354524658203125,-1.5410031148314476,1.9778841275334358,1.1246119324505328
1782816349786606600,1.374606689453125,5.1295671200126405,-1.0770751783151178,2.3474562755942343
1782816349806688500,1.3946884765625,6.165936705386638,-0.3177165078129619,2.5076336858078836
1782816349826770400,1.4147705078125,3.471977022629976,-0.20456585638597607,1.279938687762618
1782816349846852600,1.4348525390625,-0.13579320280253887,-0.15431597083434462,1.811985417063534
1782816349866934500,1.4549345703125,-0.3685679394543171,-0.6194884275190532,2.841278780440986
1782816349887016400,1.475016357421875,2.8257734605342146,-0.7203364275380969,3.2656676835775373
1782816349907097300,1.495097412109375,6.143351364091038,-0.8514264210857451,2.600224291221797
1782816349927179300,1.51517919921875,7.403198280939459,-2.220626715970039,2.4643118459537625
1782816349947261400,1.535261474609375,6.853392315325141,-2.176384400270134,1.8342524861901996
1782816349967343600,1.555343505859375,5.652803643131255,-2.0179145246267316,1.4194278224736452
1782816349987425500,1.575425537109375,5.100416428852081,-1.5779335000827908,0.7527657019779086
1782816350007507500,1.595507568359375,4.768362987324595,-1.5426001747645437,0.5841434117630123
1782816350027589600,1.615589599609375,4.542425987738371,-1.4957836246624587,0.8636533038437366
1782816350047671600,1.635671630859375,3.4674557458132504,-1.3478740137390792,0.45246641210764643
1782816350067753500,1.65575341796875,1.160005901914835,-0.6063948449291289,0.5690861278846859
1782816350087835600,1.675835693359375,-3.0040315941005944,1.319922323104739,-0.20342472352683544
1782816350107916300,1.695916259765625,-10.59483802075386,3.5118723951667543,0.32459245799705383
1782816350127998500,1.71599853515625,-14.819212788832187,2.7757410171255468,1.4553385092884301
1782816350148080400,1.736080322265625,-14.103760333943367,5.1002387341976165,-0.7321398972522467
1782816350168162300,1.756162353515625,-14.435801500511168,2.607047707501054,-0.7530371393304318
1782816350188244200,1.776244140625,-15.036690003108978,1.4613583540998398,-1.3292989309981464
1782816350208326400,1.796326416015625,-14.374910686218739,1.1946952302411198,-3.104158732499182
1782816350228408300,1.816408203125,-12.16317688627839,1.919733697990328,-3.76384341519773
1782816350248490200,1.836490234375,-8.016055453750491,3.953011942096054,0.28069354890733955
1782816350268572700,1.85657275390625,-3.053264703825116,3.557024957579374,4.455702813053131
1782816350288654600,1.876654541015625,1.3487930282801388,1.603669998885691,5.634800368928909
1782816350308736500,1.896736572265625,5.541157624113559,-1.630699460108578,4.687438269785046
1782816350328817200,1.916817138671875,7.135314236983657,-4.523326734992861,0.9664221889227628
1782816350348899000,1.936899169921875,6.75091159953773,-5.4122407368212935,1.2986395888403057
1782816350368981200,1.956981201171875,9.45675344326794,-3.665609543199837,-0.5702579481430351
1782816350389063200,1.977063232421875,11.96182896902561,-0.9962050405070185,-0.11523805216029286
1782816350409145000,1.99714501953125,13.711886337703465,0.14276391859799623,1.493151814854145
1782816350429227000,2.01722705078125,14.56858616914749,0.908084566244483,1.4962258154720067
1782816350449309200,2.03730908203125,14.07647017595768,1.1646433524571358,1.5679593646876513
1782816350469391000,2.05739111328125,12.83959613841772,0.8999806086353958,1.0755560789890586
1782816350489473000,2.07747314453125,11.079660349804163,0.98324516729936,0.8487636316172779
1782816350509555200,2.09755517578125,9.279047682887315,1.2406164389386773,-0.12671367815956472
1782816350529637000,2.11763720703125,7.671893641278147,1.9514160995855927,0.23951719664931295
1782816350549718000,2.137718017578125,-1.2554741085916756,1.7224088987737893,2.6152938500598073
1782816350569800200,2.15780029296875,-6.818117003804445,3.118689654415846,0.24009364483039825
1782816350589882000,2.177882080078125,-16.954515675520895,4.558161609269678,0.6454124847833067
1782816350609964000,2.197964111328125,-18.729276108300684,4.981237091720104,3.1587706126526
1782816350630046200,2.218046142578125,-15.780754804497956,6.916177565062045,-0.2925562745280564
1782816350650128100,2.238128173828125,-13.512345762133597,3.6681110046267507,-2.1347405766308305
1782816350670210000,2.2582099609375,-9.295074688580632,-0.05208645332902669,-6.5865270930230615
1782816350690292200,2.278292236328125,-3.774042153128981,-4.215819705700874,-10.320492671829461
1782816350710374100,2.2983740234375,0.08671206876933574,-4.5898818586573,-7.697820694217086
1782816350730456000,2.3184560546875,2.725073782944679,-1.925323188560456,-1.2284575068503618
1782816350750538000,2.3385380859375,-0.10952537360191344,-0.3540346794500947,1.7205530417740345
1782816350770619100,2.358619140625,-3.917459859460592,-0.33779651522412896,2.068494957306981
1782816350790701000,2.378701171875,-7.1148927957236765,-1.6379175747938453,2.0000112036675213
1782816350810783200,2.398783203125,-3.474213987901807,-1.1803605615489183,4.68733773202002
1782816350830865200,2.418865234375,3.023376346039772,-0.9316589185774325,6.800131265258789
1782816350850947000,2.438947021484375,7.523283627000451,-1.1658254018485545,7.079665999519825
1782816350871029200,2.459029296875,9.07483677741885,-1.174184868588671,5.795417631864547
1782816350891111200,2.479111083984375,8.594538063272834,-0.8823519398991018,4.703350124666095
1782816350911193000,2.499193115234375,8.178603392487764,-0.6762541247054934,3.353659270763397
1782816350931275000,2.51927490234375,7.816367578664422,-0.3943240928057581,2.5808520667538044
1782816350951357200,2.539357177734375,8.08610455701053,-0.37132717503458257,2.1205925165519117
1782816350971439000,2.559439208984375,7.4236167995899915,0.2206912078872323,1.83161307759732
1782816350991520300,2.579520263671875,6.540137682291865,0.7376507696282119,1.4265528520479798
1782816351011602200,2.599602294921875,4.9024593230813736,1.0626188560046255,0.5499405517794191
1782816351031684000,2.61968408203125,1.1405085897624492,2.155061626256257,0.006064852996915579
1782816351051766300,2.639766357421875,-1.6926853761613367,3.4893595345854758,-0.4101302222900092
1782816351071848200,2.65984814453125,-4.62458112385571,2.1103392719544467,0.4191707300968468
1782816351091930000,2.67993017578125,-12.347113065481185,1.1270093489810824,-0.3421316218189895
1782816351112012000,2.700011962890625,-13.955920719516277,0.975558558319509,-3.5624522433251142
1782816351132094200,2.72009423828125,-15.52925140197873,-0.8825403751432895,-5.606064103788137
1782816351152176000,2.740176025390625,-12.351139252257346,-4.110059237590432,-6.5967094643414015
1782816351172258000,2.760258056640625,-7.812682752671837,-7.174338671904802,-6.422603774279356
1782816351192339200,2.780339111328125,-5.253543043771386,-5.351332386872172,-5.543589235174656
1782816351212421000,2.800421142578125,-3.22259952622354,-2.0929135053791104,-4.537500514034926
1782816351232503300,2.82050341796875,-2.7600533263891935,-0.4538924993880093,-2.92004895029515
1782816351252585200,2.840585205078125,-0.8107441359549761,0.6114187375057488,0.9048957070752978
1782816351272667100,2.860667236328125,1.7338573445051908,0.31247663439810275,3.6850735376045107
1782816351292749000,2.8807490234375,4.054270714873075,-0.6377674499228596,5.524118811029195
1782816351312831200,2.900831298828125,5.762811831814051,-1.9174745208866892,4.98795733988583
1782816351332913200,2.9209130859375,6.906319603392482,-1.7866762037619948,4.019049763888121
1782816351352995000,2.9409951171875,8.11488290772736,-1.4940304973848164,3.3601600309595465
1782816351373077200,2.9610771484375,8.46106775045991,-1.2187250712566078,2.516372580319643
1782816351393159200,2.9811591796875,8.787671694409847,-1.0139327857036142,2.2597955277979374
1782816351413240300,3.001240234375,9.36521965343058,-0.759936762651056,2.200167719178647
1782816351433322200,3.021322265625,9.458747247433662,-0.7076227111112326,2.0504221249997614
1782816351453404200,3.041404052734375,8.80275294368565,-0.5676846270563081,1.7492773242160677
1782816351473486000,3.061486083984375,7.532238502350449,0.03284320726925507,0.961610112465918
1782816351493568300,3.081568359375,6.142921155980229,0.6396149044204503,-0.44920770257264375
1782816351513650200,3.101650146484375,4.988455937057733,1.4575737209945916,-1.9064980765812098
1782816351533732000,3.121732177734375,3.7280543089359997,2.801241076824069,-0.4135653113052249
1782816351553814300,3.141814208984375,-0.2990764700770378,3.981992537386715,3.829101192528009
1782816351573896200,3.161896240234375,-10.61776063117981,1.781488425860554,1.6323133250460027
1782816351593978000,3.18197802734375,-25.516459044659136,4.143635051716864,-4.987469264107943
1782816351614060300,3.202060302734375,-26.68103006253242,3.097819300344586,-7.752096474283933
1782816351634141000,3.222140869140625,-20.630384454667567,0.8844901940368115,-9.22327435773909
1782816351654222800,3.242222900390625,-14.584365922081469,-1.3112903960987925,-7.911137866204976
1782816351674305000,3.262304931640625,-7.428441443267464,-3.0832120983213183,-4.94776736831665
1782816351694387000,3.282386962890625,-4.825933717283606,-6.826973094955086,-4.13923097153902
1782816351714469000,3.30246923828125,-7.151627658402919,-6.493285330224037,-2.4851921368971466
1782816351734551300,3.32255126953125,-3.902062383842468,-4.09287692438215,1.4736207465626299
1782816351754633200,3.34263330078125,3.513841064891219,-1.8557513474233447,4.189124590998888
1782816351774715100,3.362715087890625,9.499771331739424,-1.3113972174741326,4.400668031312525
1782816351794797000,3.382797119140625,11.466409258115291,-1.1185845619197934,3.206909789660573
1782816351814879200,3.402879150390625,11.836299386084079,-1.1525945296797901,2.292166203918308
1782816351834961200,3.422961181640625,11.499289783453941,-1.4157342286527157,1.9135534019201992
1782816351855042000,3.4430419921875,11.310557017624378,-1.6049337352111934,1.8517295445613562
1782816351875124000,3.4631240234375,10.728284368169307,-1.6478383725665509,1.6648174182876943
1782816351895206000,3.483205810546875,9.388364382174611,-1.1922870000556112,1.5795336287558077
1782816351915288000,3.5032880859375,8.166614264008402,-0.6679754681166261,1.3092781794935464
1782816351935370000,3.523369873046875,7.127488073402643,-0.0819962192285806,1.1275593840792775
1782816351955452000,3.543451904296875,6.546853838804364,0.5261738186795264,1.661121047987789
1782816351975534000,3.5635341796875,4.0148055504471065,1.181633065702766,1.642317563318461
1782816351995616000,3.583615966796875,0.26185996136069295,1.6641836504288017,0.8180174879588187
1782816352015698200,3.6036982421875,-5.872728250560164,3.8940103025510906,-0.06976356431692839
1782816352035780000,3.623780029296875,-12.903479704785346,5.8485237836301325,-0.85201386558488
1782816352055862300,3.6438623046875,-12.309109790301322,5.161147668668628,-2.8561966558486223
1782816352075943000,3.66394287109375,-9.916685076689719,5.33132361806631,-4.799709142702818
1782816352096025000,3.684025146484375,-9.84639281232357,1.9246479196473956,-5.938735384953022
1782816352116107000,3.70410693359375,-8.08571643447578,-0.2867669505368918,-7.134052254223823
1782816352136189000,3.72418896484375,-8.167984967839717,-0.3591143208019435,-7.1401003022164105
1782816352156271000,3.74427099609375,-5.575803405559062,0.4052412446720525,-5.10899779471457
1782816352176353000,3.76435302734375,-3.1003409277766942,0.9465816893558948,-1.5825988615453241
1782816352196435000,3.78443505859375,-3.3033459645867347,-0.03885455824695527,0.3277867239937186
1782816352216516900,3.804516845703125,-2.4506916091412303,-1.315793260475993,1.935855834621191
1782816352236599000,3.82459912109375,-0.41121231843829154,-1.9760889146797358,4.07305169544965
1782816352256680000,3.844679931640625,2.3969810617417098,-2.1779694775044915,5.968536648976802
1782816352276762000,3.86476220703125,4.584226901635527,-2.5012358014643192,6.55943158082664
1782816352296844000,3.884843994140625,5.725614612320065,-2.578524208328128,6.095335813462734
1782816352316926000,3.904926025390625,6.8256216803461305,-2.4596026453495026,4.909885673689842
1782816352337008000,3.925008056640625,8.23174403104484,-2.3691870458871125,3.5696149745613335
1782816352357090300,3.94509033203125,9.414297280332445,-2.5153718788444994,2.872019663402438
1782816352377172200,3.965172119140625,9.91295465798974,-2.3040388664111493,2.452068450452387
1782816352397254100,3.985254150390625,8.980391484048962,-1.8617898969352245,1.7503586897119878
1782816352417336300,4.00533642578125,8.36097129946053,-1.5878388080254195,1.3447379076704382
1782816352437418200,4.025418212890625,7.986013366708159,-1.314858171582967,0.7229580082133412
1782816352457499400,4.04549951171875,7.645947299116849,-1.3596736109957097,-0.6914516938373446
1782816352477581300,4.065581298828125,6.519144578623771,-1.2163861069150268,-1.250927551203221
1782816352497663200,4.085663330078125,1.9258283616036176,0.06320911943847313,-1.8012956807449458
1782816352517745200,4.1057451171875,-7.741352377429604,1.3342499775342642,-3.446016067421436
1782816352537827300,4.125827392578125,-15.913973188376426,1.013111605513841,-3.2293168517798185
1782816352557909200,4.1459091796875,-19.228968674224614,4.633711355772614,-4.344601568436622
1782816352577991200,4.1659912109375,-20.590534090316293,5.345221795037388,-5.014006557899713
1782816352598073300,4.1860732421875,-18.330463837230205,2.9930560265779493,-3.2267870410412547
1782816352618155300,4.2061552734375,-16.315012487846612,2.525917822778225,-4.354192988124489
1782816352638236200,4.226236083984375,-13.22104577127695,2.954746169666946,-2.1723532450579106
1782816352658318000,4.246318115234375,-4.0836254041731355,1.8765052355080842,0.7444988088920712
1782816352678400300,4.266400146484375,1.7193839979946612,0.4150337033573538,2.9161659713819623
1782816352698482200,4.286482177734375,3.8318350014060734,-0.1156110501911491,4.431590992842614
1782816352718564400,4.306564453125,5.047734055456519,-0.8696778248302638,4.328133540977538
1782816352738646300,4.326646240234375,6.171245917710661,-1.3959113378077745,3.7884044404804706
1782816352758728200,4.346728271484375,7.949373781096935,-1.8173733937121928,2.721814488887787
1782816352778810400,4.366810302734375,9.265490866699814,-2.4975214571163056,1.5415288922712207
1782816352798892300,4.386892333984375,10.073283167111873,-2.85150119150877,0.8755026585262268
1782816352818973200,4.40697314453125,9.857848272317648,-2.6669740606755017,0.5328389756571501
1782816352839055000,4.42705517578125,8.90068491012752,-2.16146725551486,0.265159002906084
1782816352859137000,4.447136962890625,8.179106665834784,-1.696870260630548,0.10210019203722476
1782816352879219000,4.467218994140625,7.763041062146425,-1.5012617638126016,-0.015141674226149916
1782816352899301000,4.487301025390625,7.309442723399401,-1.0333761757116764,-0.1042756363801658
1782816352919383000,4.507383056640625,6.31345600181818,-0.3948990431495011,-0.1780480710122734
1782816352939465000,4.52746484375,5.33507274146676,0.36494985855501144,-0.3132149586100131
1782816352959547100,4.547547119140625,3.575896831309795,0.9178425746709108,-0.2476611574752256
1782816352979629300,4.56762939453125,2.03750068410635,1.1597222626678645,-0.6039955287024379
1782816352999710200,4.587710205078125,-2.3150088809758422,0.18366167311035095,-0.843114227553457
1782816353019792100,4.607792236328125,-13.458754457199573,0.24018019060268997,-1.2876768807992338
1782816353039874000,4.6278740234375,-16.332649851346016,-0.41237990091294047,-3.8142426460921763
1782816353059956000,4.6479560546875,-15.920695190107821,0.1240731735881418,-7.9747209883213035
1782816353080038100,4.6680380859375,-12.829863848954439,-2.9448344319835305,-8.366034428068994
1782816353100120000,4.6881201171875,-10.722602815401553,-4.168880844393373,-6.543367165732383
1782816353120202000,4.708201904296875,-7.792314502903818,-3.3890164153486486,-5.056603006088733
1782816353140284200,4.7282841796875,-7.143567686066031,-0.8142199223067611,-3.842642811146378
1782816353160365000,4.748364990234375,-5.715676571151614,0.604328961907886,-1.2913044236466287
1782816353180447000,4.768447021484375,-3.1501059524208306,1.6924406076200305,3.3065199184477327
1782816353200529200,4.788529052734375,2.4357395392030474,0.6748133513126522,5.949188974428177
1782816353220611000,4.808611083984375,6.037969081643223,-0.6201560976475476,5.56368626678586
1782816353240693000,4.82869287109375,7.601340095627307,-1.3262927349194884,4.21850236891359
1782816353260775200,4.848775146484375,8.722289998438955,-1.4707814314834773,3.7375700330391526
1782816353280857000,4.868857177734375,9.147830117437243,-0.7433926742810756,3.562239185096323
1782816353300939000,4.88893896484375,9.48396761340797,-0.2599246459165588,3.226619283258915
1782816353321021200,4.909021240234375,10.166639496201276,-0.08647109962031245,2.5155223932310937
1782816353341102600,4.9291025390625,10.2308632543087,-0.2894143232405186,1.9269097270995377
1782816353361183700,4.949183837890625,9.950921692812441,-0.4654953319635242,1.4357875672526657
1782816353381265700,4.969265625,9.169024296635389,-0.4566220704823732,0.9795913209669291
1782816353401347600,4.98934765625,7.366410226768255,-0.022061454418813808,0.9031313277512788
1782816353421429800,5.0094296875,5.2977673854231835,0.9304979119740426,0.5469432696595787
1782816353441511700,5.02951171875,2.109066621670127,1.786989215233922,0.14222805815562606
1782816353461593600,5.049593505859375,-1.4663053089827298,1.870975950692594,-1.8227791982784867
1782816353481675500,5.069675537109375,-3.4879560975283384,0.20787359269447622,-2.4760475841939447
1782816353501757700,5.0897578125,-6.309791634091734,-0.8984840864673256,0.5841962379287928
1782816353521839600,5.109839599609375,-11.620004075068234,-3.5192595828086137,2.7920225821018216
1782816353541920500,5.12992041015625,-14.910197128093241,0.5105962372541427,-1.7989017713457345
1782816353562002400,5.15000244140625,-17.20339574379921,0.41891544016152615,-3.2151094627290964
1782816353582084400,5.17008447265625,-13.508399070334434,-2.0724650299817324,-5.08585248144865
1782816353602166500,5.19016650390625,-10.72270335316658,-2.504673959219456,-5.8202077897280455
1782816353622248700,5.210248779296875,-9.68284767924249,-0.5164717051587998,-3.573721240836382
1782816353642330600,5.23033056640625,-5.40825546657741,-0.13841807141341267,-1.3774233488284051
1782816353662412500,5.25041259765625,-0.4975596455484628,-1.0045324316084385,-0.78778309321478
1782816353682494700,5.27049462890625,2.489879710191488,-0.7508718510553241,0.346543300781399
1782816353702576600,5.29057666015625,3.235406400826573,0.6700177875991911,3.1700115531131625
1782816353722657500,5.310657470703125,4.851282678073645,1.0622481229960918,4.306486357314885
1782816353742739500,5.330739501953125,6.902116306483745,0.6330033042609692,3.60740665281713
1782816353762821400,5.3508212890625,9.069349285918474,-0.13944463798217474,2.547120769804716
1782816353782903600,5.370903564453125,10.63635544153452,-0.8728259135976433,1.8555600626349449
1782816353802985500,5.3909853515625,11.066078399175405,-0.751105075289309,1.7201637501955032
1782816353823067400,5.4110673828125,10.657253268134593,-0.7371509303472936,1.0045874497313052
1782816353843149300,5.4311494140625,9.793445650511979,-0.798342408086732,0.3296161313779652
1782816353863231500,5.4512314453125,8.91722746412754,-0.5798597430944442,-0.2848738302666694
1782816353883313400,5.4713134765625,7.725739797756075,-0.24982852810956535,-0.6689684977419674
1782816353903394600,5.49139453125,5.826994673389196,0.16180778789445757,-1.0718795093681663
1782816353923476500,5.5114765625,1.4146370810657738,1.2915452466651796,-1.189963598609343
1782816353943558400,5.531558349609375,-7.945823395138978,1.8612706953667104,-3.449423830038309
1782816353963640600,5.551640625,-13.816308835208416,1.1773591877758502,-4.752625319966674
1782816353983722500,5.571722412109375,-11.985505612689256,-2.1777530582748352,-2.6710212902396915
1782816354003804400,5.591804443359375,-10.380496181893347,-1.1633210178121924,-5.247300349989533
1782816354023886300,5.61188623046875,-15.134217480403183,-1.240241322015971,-3.6719828776240346
1782816354043968500,5.631968505859375,-12.678541653108596,-1.7724236603952943,-2.404163228330761
1782816354064050400,5.652050537109375,-7.017977312847972,-1.7936916354820132,-1.750644667046517
1782816354084132400,5.67213232421875,-2.0996376990675927,-0.4529603331044316,-0.004442612956790253
1782816354104214500,5.692214599609375,-1.7943384089529513,1.631798069000244,1.4382530805833638
1782816354124296400,5.71229638671875,-3.2013696911901235,2.4223475581884384,4.898971480965614
1782816354144378400,5.73237841796875,-0.9219014946728944,0.06453925379738211,5.272303858342767
1782816354164459500,5.75245947265625,3.15044263702929,-2.074964883973449,2.903178187254071
1782816354184541400,5.77254150390625,7.720343491670489,-2.7494614974871276,1.508239055479318
1782816354204623400,5.792623291015625,10.986412741786241,-2.349447157150507,1.4791241662845014
1782816354224705500,5.81270556640625,12.013655017852782,-1.9522481664955615,1.6661954286426304
1782816354244787500,5.832787353515625,11.114342371606826,-1.5422382095843552,0.742581138702482
1782816354264869400,5.852869384765625,9.999571449691057,-1.2751239809572696,0.27133812993243334
1782816354284951600,5.87295166015625,8.417482291233538,-0.876613834638521,0.7562278251305222
1782816354305033500,5.893033447265625,7.0537009526580565,-0.2213791901513934,1.3045385837510228
1782816354325116700,5.91311669921875,6.251086931666731,0.4134170619409531,1.5323944225706159
1782816354345198600,5.933198486328125,5.306748564258218,0.516454754023999,1.1166894688881932
1782816354365280500,5.953280517578125,4.414807323563099,0.18897987245842812,0.6366764398157596
1782816354385361400,5.973361328125,1.8122984285354613,0.4664255620183423,0.2041159206613898
1782816354405443300,5.993443359375,-3.690424543243646,1.0627988156814128,-1.9965883896119891
1782816354425525500,6.013525390625,-9.731569332313537,0.9633758069641888,-2.5082734450161457
1782816354445607400,6.033607421875,-11.605180599945783,2.0641037366107104,-2.510383569037914
1782816354465689300,6.053689453125,-9.462215800327062,0.7957520262673496,-2.389150514246523
1782816354485771500,6.073771484375,-11.387264994251728,-0.5538324446514249,-3.2668858271956442
1782816354505853700,6.093853759765625,-12.410386390995978,-1.6933846104718744,-3.203336607348919
1782816354525935600,6.113935546875,-11.075668065297602,-0.7265732030358165,-2.994582213231921
1782816354546017500,6.134017578125,-8.759210739079117,0.5614588844092563,-1.3282844932585953
1782816354566099700,6.154099609375,-6.8666896037936205,1.1769344595577567,0.027736440448462962
1782816354586180400,6.174180419921875,-4.371024880459904,0.45518020111098884,1.334435270973295
1782816354606262500,6.194262451171875,-2.8984172564625736,0.8952357521958648,2.565916071167588
1782816354626344400,6.214344482421875,0.49400224532783027,0.3145066789209843,3.3921880311220884
1782816354646426400,6.23442626953125,4.0758536011278625,-0.5150340735711157,3.6553377400323748
1782816354666508500,6.254508544921875,6.62041650314331,-1.099363582490757,3.0676860278874636
1782816354686590500,6.274590576171875,8.171717140105367,-0.24434067128300666,3.325443522365391
1782816354706672400,6.29467236328125,9.25688378187418,0.5989419716399162,2.5952643307268617
1782816354726754300,6.31475439453125,10.074484944117069,0.12136186880283056,0.8237476291086524
1782816354746836500,6.33483642578125,10.86168161574602,-0.842789160317555,0.46515660152845084
1782816354766918400,6.35491845703125,10.188762480682135,-0.7174884907610714,0.7905548960156739
1782816354787000300,6.375000244140625,8.11605896576941,0.013138622741471043,0.629389205417037
1782816354807081500,6.39508154296875,6.274869373792409,-0.012780032261880113,0.5720201355099678
1782816354827163400,6.415163330078125,5.721151203170418,1.238681817614287,-0.016421557968854902
1782816354847245600,6.43524560546875,4.9986704570800065,1.216046499697119,0.10587298857420682
1782816354867327500,6.455327392578125,3.1900141844391823,1.0501061420425772,0.946334948053211
1782816354887409400,6.475409423828125,-1.023787751698494,1.4871516976565122,0.41476679604947564
1782816354907491300,6.4954912109375,-8.556088797891139,2.3457941876009105,-0.6527687658302486
1782816354927573500,6.515573486328125,-13.755081336307525,0.6427438500959426,-0.2216066422317177
1782816354947655400,6.535655517578125,-14.385252047491072,1.8881717079043387,-4.627616253767908
1782816354967737300,6.5557373046875,-14.391674774014948,-0.012707012691441923,-4.26258262591958
1782816354987819500,6.575819580078125,-12.669556382620334,-2.123095585414022,-3.0572023355349898
1782816355007901400,6.5959013671875,-9.423508760792016,-2.395296177394688,-3.727119073912501
1782816355027982600,6.615982666015625,-8.267343752214313,-2.589335525199771,-3.9250381857603784
1782816355048064500,6.636064453125,-5.464692808592319,-1.1601232446841896,-3.02998202791512
1782816355068146400,6.656146484375,-1.5656810444921254,-1.2073439186077564,-2.5358073486298323
1782816355088228400,6.676228271484375,2.5357588333129883,-1.9052879701390861,-2.9717338370859623
1782816355108310500,6.696310546875,4.558541840758919,-1.9371404676042496,-2.18082179819569
1782816355128392400,6.716392333984375,4.530618061044812,-0.6604059827104211,0.13961882550530136
1782816355148474400,6.736474365234375,5.27160652372837,0.42524566609635944,1.7760437505885958
1782816355168556500,6.756556640625,6.389236926728486,0.8412191345218568,2.2703699671737847
1782816355188638500,6.776638427734375,7.528937707239389,0.8044906285181641,2.1845345351085066
1782816355208720400,6.796720458984375,8.28862502517402,0.42552506755962966,1.9243185415625572
1782816355228802600,6.816802490234375,8.250326566439867,0.501133558512479,1.4950504880823194
1782816355248883500,6.836883544921875,8.069784121328592,0.7206586452297866,0.8823751015789806
1782816355268965400,6.85696533203125,7.895282709947228,0.8542387020274996,0.21001981094293296
1782816355289047600,6.877047607421875,7.610406614658236,0.9589861937031149,-0.19184497956596314
1782816355309129500,6.89712939453125,7.1109630550593135,1.284143592106551,-0.21008513126410544
1782816355329211000,6.9172109375,6.182622467249631,1.4958274638041853,0.05680522547923028
1782816355349293000,6.93729296875,3.183841048762202,1.4616080910772085,0.09581490122266113
1782816355369375000,6.957375,-2.827206708207726,2.3410241967201233,0.20105266063325106
1782816355389457000,6.977456787109375,-9.08664236602485,1.1093734467864036,-0.3682298666063696
1782816355409539000,6.9975390625,-11.833645656704903,-2.441831718598306,-0.4053011216331273
1782816355429621000,7.01762109375,-12.696208242702484,-1.6370353851318358,-2.143378056594729
1782816355449702100,7.0377021484375,-15.005775809407233,-2.5460008258640765,-1.011616909976676
1782816355469784000,7.0577841796875,-17.67617341479063,-1.9063389404967426,-1.6748513210460543
1782816355489866000,7.077865966796875,-15.630540862154959,-1.1379676731079815,-2.1774679577231404
1782816355509948000,7.097947998046875,-10.148283170777558,-0.4477224324509501,-0.4052374087471515
1782816355530030000,7.118030029296875,-3.0161189222574234,-0.08473229312896728,1.5468170618072152
1782816355550112000,7.138112060546875,2.7015912005484104,-0.5750353916779161,1.6155148965887725
1782816355570194000,7.15819384765625,6.682710754492878,-1.3590291756123303,0.7038503529656678
1782816355590276000,7.178276123046875,8.131703109624981,-1.5349666111461817,0.15699614982903004
1782816355610358000,7.19835791015625,6.199645498242974,-0.5170132646895945,1.0124342177089303
1782816355630440000,7.21843994140625,6.203061444166302,0.03585786064900458,1.5046623660363256
1782816355650522000,7.238522216796875,6.906483269521594,0.34221718121059236,1.3363700384281574
1782816355670602800,7.258602783203125,7.597078931051493,0.10906608552709221,0.6608174861207604
1782816355690684700,7.2786845703125,8.320067042142153,-0.144896985103935,0.1803386296348646
1782816355710766800,7.298766845703125,9.0615774828732,-0.15886501244083046,0.012846823020931333
1782816355730849000,7.31884912109375,9.188574800279737,0.1043815809726715,-0.21159560889229176
1782816355750931000,7.338930908203125,8.600745101219415,0.5363995176829397,-0.6237465233549475
1782816355771013000,7.35901318359375,7.932772774907946,0.9440954985633492,-0.6706865537062286
1782816355791095000,7.379094970703125,7.775895283022522,1.024911348900944,-0.6310469094961881
1782816355811177000,7.399177001953125,6.665485478925705,0.9128069185912608,-0.9161812173299491
1782816355831259100,7.419259033203125,2.8240362614780663,1.274951108608395,-0.7414271463617682
1782816355851341000,7.439341064453125,-4.446032482910156,1.8603110565543173,-0.30415050367200747
1782816355871421700,7.459421630859375,-10.272399379789828,-1.5112481741674244,0.7397890237659216
1782816355891503900,7.47950390625,-15.500526827275753,-2.4357846935190257,1.5085693103469908
1782816355911585800,7.499585693359375,-21.574010874414444,1.2225446295447646,0.7627261011086404
1782816355931667700,7.519667724609375,-18.883963981187343,-1.366994601533562,0.8350244446001946
1782816355951750000,7.53975,-16.858037999540567,-2.6579940508842466,0.5061548572732135
1782816355971831800,7.559831787109375,-13.97409935028553,-2.267229331060499,-1.1134466145094484
1782816355991913700,7.579913818359375,-9.539656182882188,-1.316200087711215,-1.7211812566749751
1782816356011996000,7.599995849609375,-1.5197808785825966,-0.14486001409441232,0.23601233033351599
1782816356032078000,7.620078125,6.085068686470389,-0.2780130776517093,1.2066445381667463
1782816356052160000,7.640159912109375,7.453698049598932,0.4912871411502361,0.7266085666101425
1782816356072241000,7.660240966796875,6.101653326046466,1.4805926314018665,1.162254119233042
1782816356092322800,7.68032275390625,8.928886922261118,0.8987846768490969,1.2131697021517902
1782816356112404700,7.70040478515625,13.225271864539383,0.026297932077944276,0.7010912635158747
1782816356132487000,7.72048681640625,13.15191086025238,-0.08034881734773516,0.15409531382098793
1782816356152568800,7.74056884765625,11.903787114423512,-0.5128545375749468,-0.4931491356298327
1782816356172650800,7.760650634765625,11.474043113994597,-0.48089185773357745,-0.8761258319258689
1782816356192733000,7.78073291015625,11.710489232635497,-0.32868031183257695,-0.5958500335065647
1782816356212814800,7.80081494140625,10.239771367907524,0.06410831503421068,-0.7331829034991562
1782816356232896800,7.820896728515625,7.949604082721471,0.7049955044128,-0.797476365841925
1782816356252978700,7.840978759765625,7.376051915338635,1.008046138817817,-0.9183179370976984
1782816356273060900,7.861060791015625,6.399896267908812,1.888000296860188,-0.6317204248435795
1782816356293141800,7.881141845703125,5.994293606045842,3.0196243000298737,-0.20132745898663995
1782816356313224000,7.901223876953125,4.496607070371509,3.5796485850587487,-0.8099736630391329
1782816356333306400,7.921306396484375,1.2673510088682174,2.4978219013676046,-1.972408764862269
1782816356353388300,7.94138818359375,-10.517019452536106,-1.1475715138860045,0.22178382542952893
1782816356373470200,7.96147021484375,-16.44385163372755,2.1325817911617455,-1.5814423849865793
1782816356393552400,7.981552490234375,-24.4369102427721,2.1192185978502036,-1.9881497932210563
1782816356413634300,8.00163427734375,-25.974576906657216,1.9352485163778066,-3.8737481435060497
1782816356433716200,8.02171630859375,-19.72460232014656,0.5025003898862749,-4.484093918018043
1782816356453798400,8.04179833984375,-11.419714142435788,-0.490188459193334,-2.590030521726608
1782816356473880300,8.06188037109375,-4.966932087513804,-1.4473667997568844,-1.7139990900859237
1782816356493961200,8.081961181640626,0.433168129658699,-2.6435011228904126,-1.1095834362752734
1782816356514043400,8.10204345703125,0.5788333226561546,-2.002320649653673,1.2100682290051132
1782816356534125300,8.122125244140625,0.41126667897403235,-1.7509625008240342,2.96196530726552
1782816356554207200,8.142207275390625,0.48545419721305366,-4.344019384634494,0.9644296268660575
1782816356574289400,8.162289306640625,2.212477311784029,-5.885363860249519,-0.32127858420871197
1782816356594371300,8.182371337890626,4.211628099229932,-2.7680244513988495,1.9017964747615157
1782816356614453200,8.202453369140626,8.593509304746984,-0.7924136756248772,2.1620891868054866
1782816356634535400,8.222535400390624,11.366102963757514,-0.5502156423937529,1.2988532315909862
1782816356654617300,8.242617431640625,12.507766568773985,-1.6286540718860922,-0.5785701782079413
1782816356674699300,8.26269921875,11.800185285651683,-1.233098902915418,-0.97810480873622
1782816356694781200,8.28278125,9.927573550450802,-1.1028824042666703,-1.8137201319016516
1782816356714862300,8.3028623046875,8.381659867224096,-0.6261285961858928,-2.5339625975459814
1782816356734944300,8.3229443359375,7.933351451578736,-0.2400406360015273,-2.9085759546443817
1782816356755026400,8.3430263671875,7.343517426958679,0.08332359537482262,-3.007029314611852
1782816356775108400,8.3631083984375,7.336931618827581,0.09456965040192007,-2.4779119167611
1782816356795190300,8.383190185546875,4.602987131685018,-0.30088673436939717,-1.715251428234577
1782816356815272400,8.4032724609375,-6.130751410236955,-0.5098949571169913,-2.7663904204562306
1782816356835354400,8.423354248046875,-15.403900682735442,-0.25501097224876285,-0.963044236922264
1782816356855436300,8.443436279296876,-15.270510449421405,3.4746266603559253,-1.7736890041559934
1782816356875518200,8.463518310546876,-13.050813123255967,1.9568942387357353,0.317761589063704
1782816356895600400,8.483600341796874,-13.501193084478377,-0.645366161423549,0.061720104723423715
1782816356915681300,8.503681396484374,-12.788338244867324,-3.3219682474702594,0.8033082868658006
1782816356935763500,8.523763427734375,-6.854874078315496,0.07430961024872958,1.231797172667086
1782816356955845400,8.543845458984375,-4.575746073538065,3.9010821406334637,-1.6136621083289384
1782816356975927300,8.56392724609375,-1.816084961336851,5.456629329124093,-3.661569912420213
1782816356996009500,8.584009521484376,0.7143453704297542,3.68810516038537,-3.1739637978702784
1782816357016091400,8.60409130859375,2.529119833689928,0.22978775673024354,-2.12181738217175
1782816357036173300,8.62417333984375,2.7572031976550817,-2.885343255355954,-0.5289831039465963
1782816357056255200,8.644255126953125,1.9474428120404481,-3.8965491733789444,1.6284749159269034
1782816357076337400,8.66433740234375,1.2031085460603237,-2.8429525588721036,1.8558607991471885
1782816357096419300,8.68441943359375,2.6408921094357964,-0.9129686850242316,1.3674647032633422
1782816357116501200,8.704501220703126,4.872367551678419,-0.8739550637580454,0.9822923966191709
1782816357136582400,8.72458251953125,5.677546454721689,-1.497983034402877,0.6669555504843592
1782816357156664300,8.744664306640624,5.558726014029979,-2.0138640801921484,0.5891322330262512
1782816357176746500,8.76474658203125,4.889996147349477,-1.5424015834525227,0.6932818318739533
1782816357196828400,8.784828369140625,3.9908419065356253,-0.06817673351690173,0.32554555747080594
1782816357216910300,8.804910400390625,2.863122071197629,0.9095243897892534,-0.13512991658821702
1782816357236992300,8.8249921875,0.11948562660217285,0.3130279116053134,-0.2914960979506373
1782816357257074400,8.845074462890626,2.3593822757095095,2.242372245440632,1.0553921196214855
1782816357277156400,8.86515625,-2.857480265918374,1.522594474698603,1.4754675434730946
1782816357297238300,8.88523828125,-3.75662573890388,0.4228223844721913,1.8488234478563068
1782816357317320400,8.905320556640625,-4.615360291045904,1.6698232637509702,0.22788279989175497
1782816357337402000,8.925402099609375,-5.949558976784348,1.5865069748997687,0.21776289935037493
1782816357357483300,8.945483154296875,-6.743917210605741,0.7803679946526885,-0.9768247788630425
1782816357377565200,8.965565185546875,-5.748986135557294,0.6882178264826536,-2.6324346622139214
1782816357397647000,8.985647216796876,-3.6441911998569965,0.28285306502878665,-3.0234751302391287
1782816357417729000,9.00572900390625,-0.5919236903756857,0.3011827947065234,-1.9460346988081931
1782816357437811200,9.025811279296875,2.035129278799891,0.26601211260408164,-1.7282307367950678
1782816357457893000,9.04589306640625,3.387992917519808,-0.9586071312576532,-0.5474080741597339
1782816357477975000,9.06597509765625,4.437457546788454,-0.5752852747857571,1.0402375859137625
1782816357498057200,9.08605712890625,5.7371080662369724,-0.10974076991826295,1.1850573410630225
1782816357518139100,9.10613916015625,6.5051476174533365,-0.29713001218438145,1.2448596294663845
1782816357538221000,9.126220947265624,4.861629884564876,0.12041487027630209,1.2464105121701956
1782816357558303200,9.14630322265625,3.5718940254092213,0.5267166203193366,0.778829752234742
1782816357578384100,9.166384033203125,3.3116754015147682,0.22622473048642278,-0.28853673668839036
1782816357598466000,9.186466064453125,3.297800605419278,-0.3886351604491472,-0.8956776507444679
1782816357618548200,9.20654833984375,2.301589427432418,-1.0399546042539178,-1.00009064976871
1782816357638630100,9.226630126953125,0.5204600441426038,-1.3169419921196996,-1.0576371951345354
1782816357658712000,9.246712158203126,-2.049136176842451,-0.8339763968519865,-1.4348026478685438
1782816357678794200,9.266794189453124,-5.217698407930135,0.1491952668197453,-2.146417716551572
1782816357698876200,9.286876220703125,-5.568760501310229,0.4723381105303764,-1.8446249732531605
1782816357718958000,9.3069580078125,-3.604544833645224,-0.04880509357079863,-0.22698336683399975
1782816357739039200,9.327039306640625,-1.5012281538039445,-0.29584939778931435,0.8729310544725507
1782816357759121200,9.34712109375,-0.06724748984277248,-0.41639563936032353,1.6054161119006574
1782816357779203000,9.367203125,0.5923913078874349,-0.28088315319530666,1.7596356366232035
1782816357799285200,9.38728515625,-0.4221937311798334,-0.23596418034285305,0.7197520517788827
1782816357819367200,9.4073671875,-0.8860843313604593,-0.39940577998422083,-0.3522940463278442
1782816357839449000,9.427448974609375,-0.552569585108757,-0.49145855219438667,-0.38700807070396837
1782816357859531300,9.44753125,-0.4263064271956682,-0.18830533419772982,0.40211116648539896
1782816357879613200,9.46761328125,0.07060556809902191,-0.06740903708003461,0.5918734945584089
1782816357899695000,9.487695068359375,0.26789222726225853,-0.3877458103939891,0.4789060176786035
1782816357919777300,9.50777734375,0.13876783469915388,-0.5997540186751633,0.3168216047998518
1782816357939858200,9.527858154296876,-0.1848638154417276,-0.6324055575635283,0.12481266684383154
1782816357959940000,9.547940185546874,-0.39946050584614273,-0.5331006222680211,-0.11127952379286289
1782816357980022300,9.568022216796875,-0.8366618365436792,-0.17433343440331517,-0.12363419764898717
1782816358000104200,9.588104248046875,-1.4117314227521418,0.04244651832431554,-0.06057319971062242
1782816358020186000,9.60818603515625,-1.1156249083966017,0.031449104296043515,0.16207907911650835
1782816358040268300,9.628268310546876,-0.4311901075839996,-0.06905402780808508,0.287399512819387
1782816358060350200,9.64835009765625,0.21221184109449384,-0.17905337559729814,0.3072277008939534
1782816358080432000,9.66843212890625,0.29263036267757414,-0.1780512858826667,0.35750834691002964
1782816358100514000,9.68851416015625,0.3946089741617441,-0.07851034987419843,0.17799009374734012
1782816358120596200,9.70859619140625,0.7151292142838239,-0.05758402783200144,0.1636921403363347
1782816358140678100,9.72867822265625,0.6808095960527658,-0.0323009718850255,0.10262739424910396
1782816358160760000,9.748760009765626,0.31800562695264817,-0.07426284849755466,-0.22844945733118802
1782816358180842200,9.76884228515625,0.07679214777946472,-0.08818301810473203,-0.20055903189741073
1782816358200924200,9.788924072265624,-0.038248189851641655,0.06515431695580481,0.04435914701260626
1782816358221006000,9.809006103515625,0.12087094348073005,0.032865181639045477,0.1376020423227921
1782816358241088300,9.829088134765625,0.20366496202349663,-0.04206175679042935,0.12285864669922739
1782816358261169200,9.849169189453125,-0.041861704173684115,0.04679565344452858,0.17261022733990103
1782816358281251000,9.8692509765625,-0.17498948715925217,0.06572568710297345,0.08345156913604587
1782816358301333200,9.889333251953126,-0.24163199684619902,-0.04641542195528745,-0.055319188172556454
1782816358321415200,9.909415283203124,-0.3795172034919262,-0.0720901075683534,-0.10433441736269741
1782816358341497300,9.929497314453124,-0.28781507135033607,-0.031028759992122647,0.019069442129135132
1782816358361579500,9.94957958984375,-0.10255436554551124,-0.09858560804501175,-0.08107793533988296
1782816358381661400,9.969661376953125,0.06962590941190719,-0.09682561263516545,-0.08548910284563899
1782816358401743400,9.989743408203125,0.09867138663232326,-0.006467588578909635,0.021351598249562082
1782816358421825500,10.009825439453126,0.22218612262010573,-0.0360983183413744,-0.07322707570903003
1782816358441907500,10.029907470703124,0.388823961019516,-0.11143792922496795,-0.15619089786075055
1782816358461989400,10.0499892578125,0.37224925831556316,-0.09320932183414697,-0.16405980460494757
1782816358482071300,10.0700712890625,0.1979489224642515,-0.04427022662013769,-0.15377959893532098
1782816358502152400,10.09015234375,0.03243044348359108,-0.045251200481504196,-0.14600264479089528
1782816358522234400,10.110234375,-0.24309154800474642,0.09434855499714613,-0.17636596314422784
1782816358542316500,10.130316650390625,-0.3159925335645675,0.11992109540998935,-0.24440884114839134
1782816358562398500,10.1503984375,0.05156184493303299,0.09170593153387308,-0.2142306335709989
1782816358582480400,10.17048046875,0.33024726888835426,0.11115531289130448,0.10443309196420013
1782816358602562300,10.190562255859374,0.23623685980439185,0.2778013345971703,0.25430384689271446
1782816358622644500,10.21064453125,0.21961890248060226,0.25864582161977884,0.19362269329559056
1782816358642726400,10.230726318359375,0.33866789123117924,0.04238894291818142,-0.025228439682908353
1782816358662808300,10.250808349609375,0.24288871890902516,0.06940189139768481,-0.15276490546744315
