time,seconds_elapsed,z,y,x
1782815236419780600,0.063780517578125,-0.5900717973709106,-0.515527606010437,0.35769176483154297
1782815236439862500,0.083862548828125,-0.6097977161407471,-0.06669627875089645,0.34989452362060547
1782815236459945500,0.103945556640625,-0.6640200614929199,0.19304561614990234,0.2945001721382141
1782815236480027400,0.12402734375,-0.7834343314170837,0.292147159576416,0.22686587274074554
1782815236500109300,0.144109375,-0.9154486060142517,0.16565735638141632,0.20070703327655792
1782815236520191500,0.16419140625,-0.9806991219520569,0.00015497393906116486,0.25016894936561584
1782815236540273400,0.1842734375,-1.0007344484329224,0.0760132372379303,0.33737561106681824
1782815236560355300,0.204355224609375,-1.0480785369873047,0.08528800308704376,0.36995893716812134
1782815236580437500,0.2244375,-1.1534162759780884,-0.06065167114138603,0.42721977829933167
1782815236600519400,0.24451953125,-1.3045237064361572,-0.26776576042175293,0.5363348722457886
1782815236620601300,0.264601318359375,-1.5902690887451172,-0.3247784972190857,0.5918172597885132
1782815236640684300,0.284684326171875,-1.8098845481872559,-0.30795371532440186,0.4851250946521759
1782815236660766500,0.304766357421875,-1.8845016956329346,-0.2767125070095062,0.3081101179122925
1782815236680848400,0.324848388671875,-1.9506701231002808,-0.3092583417892456,0.1008438989520073
1782815236700930300,0.344930419921875,-1.9860048294067383,-0.34528958797454834,-0.002317279577255249
1782815236721012500,0.365012451171875,-2.0430636405944824,-0.4583381116390228,0.1417703926563263
1782815236741094400,0.385094482421875,-2.105231285095215,-0.6713978052139282,0.42658334970474243
1782815236761176300,0.40517626953125,-2.112687110900879,-1.0033938884735107,0.6015400886535645
1782815236781258200,0.42525830078125,-2.1096181869506836,-1.1792718172073364,0.6290947198867798
1782815236801340400,0.44534033203125,-2.133389711380005,-1.0936915874481201,0.5929517149925232
1782815236821423400,0.46542333984375,-2.1625235080718994,-0.9480925798416138,0.5582026839256287
1782815236841505300,0.48550537109375,-2.16638445854187,-0.8827206492424011,0.5291938185691833
1782815236861587200,0.505587158203125,-2.2470016479492188,-0.9149004220962524,0.4557723104953766
1782815236881669400,0.52566943359375,-2.3885293006896973,-0.9402559399604797,0.3764571249485016
1782815236901751300,0.545751220703125,-2.4709017276763916,-0.9235435724258423,0.3262295722961426
1782815236921833200,0.565833251953125,-2.4719319343566895,-0.7803068161010742,0.24261941015720367
1782815236941915400,0.585915283203125,-2.444213390350342,-0.4912230968475342,0.12055058777332306
1782815236961997300,0.605997314453125,-2.44119930267334,-0.2328145056962967,0.04164506122469902
1782815236982079200,0.626079345703125,-2.4566092491149902,-0.17869701981544495,0.10603151470422745
1782815237002162400,0.646162353515625,-2.4950945377349854,-0.36201146245002747,0.16513276100158691
1782815237022244400,0.666244384765625,-2.5136446952819824,-0.5243251323699951,0.12157157808542252
1782815237042326500,0.686326416015625,-2.516024112701416,-0.620319128036499,0.036609429866075516
1782815237062408400,0.706408447265625,-2.5290024280548096,-0.6792533993721008,-0.03456785902380943
1782815237082490400,0.726490478515625,-2.5347230434417725,-0.6338694095611572,-0.0500996895134449
1782815237102572500,0.746572509765625,-2.5159473419189453,-0.5034744143486023,-0.024537693709135056
1782815237122654500,0.766654541015625,-2.432084321975708,-0.34511294960975647,0.022425713017582893
1782815237142736400,0.786736328125,-2.295046806335449,-0.26903235912323,0.06489740312099457
1782815237162818300,0.806818359375,-2.160092353820801,-0.26779523491859436,0.06526514887809753
1782815237182901500,0.826901611328125,-2.008380174636841,-0.25005006790161133,0.009516900405287743
1782815237202983400,0.8469833984375,-1.843543291091919,-0.26935505867004395,-0.03463614359498024
1782815237223065300,0.8670654296875,-1.6972026824951172,-0.31429147720336914,0.00767001137137413
1782815237243147300,0.887147216796875,-1.5914106369018555,-0.3205503523349762,0.13535994291305542
1782815237263229400,0.9072294921875,-1.486802339553833,-0.30127546191215515,0.26991328597068787
1782815237283311600,0.9273115234375,-1.3623974323272705,-0.2831716239452362,0.37917137145996094
1782815237303393500,0.9473935546875,-1.2985732555389404,-0.31514012813568115,0.419686883687973
1782815237323475700,0.967475830078125,-1.268402338027954,-0.2993685305118561,0.3919343948364258
1782815237343557600,0.9875576171875,-1.1633634567260742,-0.2711057662963867,0.35502907633781433
1782815237363640600,1.007640625,-1.0313990116119385,-0.49307385087013245,0.2543165981769562
1782815237383722500,1.027722412109375,-0.9520314335823059,-0.8113667964935303,0.047342829406261444
1782815237403804400,1.047804443359375,-0.9203434586524963,-0.9436488151550293,-0.07918873429298401
1782815237423886600,1.067886474609375,-0.8414961695671082,-0.7793276309967041,-0.007465824484825134
1782815237443968500,1.087968505859375,-0.7504439949989319,-0.5125728249549866,0.16983400285243988
1782815237464050400,1.108050537109375,-0.7963230013847351,-0.33941787481307983,0.19003798067569733
1782815237484132600,1.128132568359375,-0.8928356170654297,-0.21156445145606995,0.05120149999856949
1782815237504214500,1.148214599609375,-0.9493072628974915,-0.025322720408439636,-0.1007300391793251
1782815237524296400,1.16829638671875,-0.9362398386001587,0.10924677550792694,-0.1976660043001175
1782815237544379400,1.18837939453125,-0.9246643781661987,0.1563461571931839,-0.23324231803417206
1782815237564461600,1.208461669921875,-0.9689273834228516,0.14148248732089996,-0.2660653293132782
1782815237584543500,1.22854345703125,-1.0530526638031006,0.0933237373828888,-0.30255115032196045
1782815237604625400,1.24862548828125,-1.0589396953582764,-0.004252396523952484,-0.2211306393146515
1782815237624707600,1.26870751953125,-0.9787291884422302,-0.15505175292491913,-0.056278977543115616
1782815237644789500,1.28878955078125,-0.821821928024292,-0.2575981914997101,-0.00019715912640094757
1782815237664871400,1.308871337890625,-0.7244380116462708,-0.25754985213279724,-0.1016826182603836
1782815237684953300,1.328953369140625,-0.6207665801048279,-0.1972757875919342,-0.2280847281217575
1782815237705035500,1.349035400390625,-0.5070581436157227,-0.09926868975162506,-0.2627761960029602
1782815237725118700,1.36911865234375,-0.3805771470069885,-0.037317801266908646,-0.18088027834892273
1782815237745200600,1.38920068359375,-0.2840675413608551,-0.038888297975063324,-0.03752061352133751
1782815237765282600,1.409282470703125,-0.24112607538700104,-0.016360266134142876,0.06339173763990402
1782815237785364700,1.42936474609375,-0.2577430009841919,-0.03513098880648613,0.06259199231863022
1782815237805446700,1.44944677734375,-0.2637723684310913,-0.013355485163629055,0.019188934937119484
1782815237825528600,1.469528564453125,-0.2634117007255554,0.0362841859459877,0.007688046898692846
1782815237845610500,1.489610595703125,-0.27749869227409363,0.12759064137935638,0.016775721684098244
1782815237865692700,1.509692626953125,-0.29699355363845825,0.31295764446258545,0.04247458279132843
1782815237885774600,1.529774658203125,-0.3050065040588379,0.4274425804615021,0.04326312616467476
1782815237905856500,1.5498564453125,-0.3058975338935852,0.4444482624530792,0.05140433460474014
1782815237925939500,1.569939453125,-0.32403331995010376,0.46552640199661255,0.09588317573070526
1782815237946021600,1.590021728515625,-0.3677949905395508,0.5210434198379517,0.18974222242832184
1782815237966103600,1.610103515625,-0.4235309660434723,0.5607432723045349,0.37689781188964844
1782815237986185500,1.630185546875,-0.44178149104118347,0.5502914786338806,0.5067024230957031
1782815238006267600,1.650267578125,-0.4798414409160614,0.36207571625709534,0.46656396985054016
1782815238026349600,1.670349609375,-0.5109231472015381,0.15544596314430237,0.4343167841434479
1782815238046431500,1.690431396484375,-0.5329956412315369,-0.09363342076539993,0.37942418456077576
1782815238066513700,1.710513671875,-0.5155119299888611,-0.19457098841667175,0.3170666992664337
1782815238086595600,1.730595703125,-0.44919610023498535,-0.05335383489727974,0.27077987790107727
1782815238106678500,1.750678466796875,-0.3980919420719147,0.2669016420841217,0.20276343822479248
1782815238126760400,1.770760498046875,-0.41150739789009094,0.4953387975692749,0.10466549545526505
1782815238146842400,1.79084228515625,-0.49253979325294495,0.5693386197090149,0.032580532133579254
1782815238166924500,1.810924560546875,-0.6161876916885376,0.4579094350337982,0.006391122937202454
1782815238187006500,1.83100634765625,-0.6476845741271973,0.22041955590248108,-0.006268667988479137
1782815238207088400,1.85108837890625,-0.6976323127746582,-0.020373422652482986,0.07020247727632523
1782815238227170600,1.871170654296875,-0.777726411819458,-0.059924252331256866,0.22344106435775757
1782815238247252500,1.89125244140625,-0.7706150412559509,-0.11153487861156464,0.31421518325805664
1782815238267334400,1.91133447265625,-0.6173859238624573,-0.450237512588501,0.2318795621395111
1782815238287417000,1.9314169921875,-0.6516916751861572,-1.1850950717926025,0.10670391470193863
1782815238307500000,1.9515,-0.8645737767219543,-1.8583667278289795,0.019113408401608467
1782815238327582200,1.971582275390625,-0.9915232062339783,-2.1750946044921875,0.008260142058134079
1782815238347664100,1.9916640625,-0.9015684723854065,-1.8982138633728027,0.048903949558734894
1782815238367746000,2.01174609375,-0.7319161891937256,-1.3335026502609253,-0.0113504808396101
1782815238387828200,2.031828125,-0.6895684003829956,-0.6841098070144653,-0.21364076435565948
1782815238407910100,2.05191015625,-0.7583755254745483,-0.22737474739551544,-0.36261963844299316
1782815238427992000,2.071991943359375,-0.8461146354675293,0.08454915881156921,-0.30670809745788574
1782815238448074000,2.092073974609375,-0.8312826156616211,0.2938609719276428,-0.1797841638326645
1782815238468156200,2.11215625,-0.7698151469230652,0.4544426202774048,-0.1382591873407364
1782815238488239000,2.132239013671875,-0.741466760635376,0.4315822124481201,-0.1378762125968933
1782815238508321300,2.1523212890625,-0.7558092474937439,0.24286070466041565,-0.12655828893184662
1782815238528403200,2.1724033203125,-0.7486986517906189,-0.045273855328559875,-0.10712634772062302
1782815238548485400,2.1924853515625,-0.7520607709884644,-0.19278380274772644,-0.08209101855754852
1782815238568567300,2.2125673828125,-0.7566537261009216,-0.09159652143716812,0.11425139755010605
1782815238588649200,2.232649169921875,-0.7421267032623291,0.05853860452771187,0.27714067697525024
1782815238608731400,2.2527314453125,-0.6987003087997437,0.10284006595611572,0.3727615475654602
1782815238628813300,2.272813232421875,-0.6340349316596985,0.06962002068758011,0.43748027086257935
1782815238648895200,2.292895263671875,-0.5990356206893921,0.02888736128807068,0.5548000931739807
1782815238668977200,2.31297705078125,-0.6060460209846497,-0.005259625613689423,0.6608524918556213
1782815238689060000,2.33306005859375,-0.628224790096283,-0.06523185968399048,0.6391137838363647
1782815238709142300,2.353142333984375,-0.662648618221283,-0.07008996605873108,0.5418866872787476
1782815238729224200,2.37322412109375,-0.7358223795890808,0.0795716643333435,0.4158801734447479
1782815238749306000,2.39330615234375,-0.834970235824585,0.44000065326690674,0.22953256964683533
1782815238769388300,2.41338818359375,-0.896723210811615,0.9381135106086731,-0.028906570747494698
1782815238789470200,2.43347021484375,-0.9207051396369934,1.2891788482666016,-0.319204181432724
1782815238809552100,2.45355224609375,-0.8490644097328186,1.4727351665496826,-0.5929442048072815
1782815238829634300,2.47363427734375,-0.7585777044296265,1.2942687273025513,-0.8708290457725525
1782815238849716200,2.49371630859375,-0.7795065641403198,0.72738116979599,-0.9836627244949341
1782815238869799200,2.513799072265625,-0.7874612808227539,0.02774989604949951,-0.7635842561721802
1782815238889881000,2.533881103515625,-0.754621684551239,-0.7148052453994751,-0.3510131537914276
1782815238909963000,2.553962890625,-0.6546199321746826,-1.052349328994751,-0.11790439486503601
1782815238930045200,2.574045166015625,-0.5037932991981506,-0.9800295233726501,-0.09551896154880524
1782815238950127000,2.594127197265625,-0.41769370436668396,-0.6945528984069824,-0.1479666382074356
1782815238970209000,2.614208984375,-0.37573951482772827,-0.47441309690475464,-0.16148820519447327
1782815238990291200,2.634291259765625,-0.390431672334671,-0.33922460675239563,-0.14863988757133484
1782815239010373000,2.654373046875,-0.40770915150642395,-0.2940618097782135,-0.15794602036476135
1782815239030455000,2.674455078125,-0.3670831024646759,-0.28945261240005493,-0.20983313024044037
1782815239050537200,2.694537109375,-0.2916898727416992,-0.27377572655677795,-0.2633374333381653
1782815239070620200,2.7146201171875,-0.28410810232162476,-0.36199238896369934,-0.2776415944099426
1782815239090702000,2.7347021484375,-0.37336573004722595,-0.3616200089454651,-0.2974211573600769
1782815239110784000,2.754783935546875,-0.4418194591999054,-0.1981831192970276,-0.3862403333187103
1782815239130866200,2.7748662109375,-0.4258895218372345,0.007028241641819477,-0.527591347694397
1782815239150948400,2.7949482421875,-0.3141380548477173,0.18105679750442505,-0.6479477286338806
1782815239171030300,2.8150302734375,-0.14698313176631927,0.04910161718726158,-0.6208563446998596
1782815239191112200,2.8351123046875,-0.00035896606277674437,-0.1887264996767044,-0.39275816082954407
1782815239211194400,2.8551943359375,0.08377260714769363,-0.39942246675491333,-0.05086598917841911
1782815239231276300,2.8752763671875,0.10261856764554977,-0.4894653856754303,0.22678668797016144
1782815239251359200,2.895359130859375,0.10200528800487518,-0.5766052007675171,0.29304420948028564
1782815239271441200,2.915441162109375,0.08583822101354599,-0.5561756491661072,0.22467128932476044
1782815239291522800,2.935522705078125,0.0483713336288929,-0.47975724935531616,0.2465425580739975
1782815239311604700,2.955604736328125,-0.03683939203619957,-0.2549421191215515,0.31371915340423584
1782815239331686700,2.975686767578125,-0.10165335983037949,-0.19602631032466888,0.2931511104106903
1782815239351768800,2.995768798828125,-0.1419178694486618,-0.20385834574699402,0.33758196234703064
1782815239371850800,3.015850830078125,-0.17513717710971832,-0.27422961592674255,0.3566552400588989
1782815239391932700,3.0359326171875,-0.18918249011039734,-0.38136425614356995,0.35169804096221924
1782815239412014800,3.056014892578125,-0.16093890368938446,-0.34158146381378174,0.4589724540710449
1782815239432096800,3.0760966796875,-0.0961238443851471,-0.12375655025243759,0.6273313164710999
1782815239452180000,3.096179931640625,-0.018652506172657013,0.17286613583564758,0.6633885502815247
1782815239472262000,3.116261962890625,0.04728507250547409,0.54353266954422,0.4973161220550537
1782815239492343800,3.13634375,0.09943558275699615,0.7457712292671204,0.245022252202034
1782815239512426000,3.156426025390625,0.10540208220481873,0.6105656623840332,0.040261160582304
1782815239532508000,3.1765078125,0.07586568593978882,0.30643659830093384,-0.06894388049840927
1782815239552589800,3.19658984375,0.039248302578926086,0.04257272928953171,-0.0980464369058609
1782815239572672000,3.216672119140625,-0.002860062289983034,-0.10895691812038422,-0.03939250856637955
1782815239592754000,3.23675390625,0.022006690502166748,-0.21802106499671936,0.037533361464738846
1782815239612835800,3.2568359375,0.07779471576213837,-0.21057851612567902,0.1261669397354126
1782815239632917800,3.276917724609375,0.08899543434381485,-0.0689101591706276,0.24572494626045227
1782815239653000700,3.297000732421875,0.060581061989068985,0.15907256305217743,0.3629160523414612
1782815239673083000,3.317082763671875,-0.025031596422195435,0.3387369215488434,0.40435871481895447
1782815239693164800,3.337164794921875,-0.1535254269838333,0.3191312551498413,0.3013741672039032
1782815239713246700,3.357246826171875,-0.2863572835922241,0.1071908250451088,0.09239880740642548
1782815239733329000,3.377328857421875,-0.34599894285202026,-0.09003013372421265,-0.06992814689874649
1782815239753410800,3.397410888671875,-0.3479461669921875,-0.1270790696144104,-0.14326119422912598
1782815239773492700,3.41749267578125,-0.2555357813835144,-0.07740294188261032,-0.12361149489879608
1782815239793575000,3.437574951171875,-0.10521857440471649,0.055969953536987305,-0.00987173244357109
1782815239813656800,3.45765673828125,0.08212640136480331,0.22820943593978882,0.09905673563480377
1782815239833738800,3.47773876953125,0.2170589566230774,0.25090712308883667,0.11790068447589874
1782815239853821700,3.49782177734375,0.2958206832408905,0.16352050006389618,0.08303914964199066
1782815239873903900,3.51790380859375,0.32734090089797974,0.09062144160270691,0.009751297533512115
1782815239893985800,3.53798583984375,0.3284708559513092,0.024977797642350197,-0.11278671026229858
1782815239914067700,3.558067626953125,0.29975640773773193,-0.13204553723335266,-0.2137455940246582
1782815239934149600,3.578149658203125,0.2647581100463867,-0.24169708788394928,-0.2620271146297455
1782815239954231800,3.598231689453125,0.2421480119228363,-0.29263076186180115,-0.3148539960384369
1782815239974313700,3.618313720703125,0.20114605128765106,-0.2713952958583832,-0.4056078791618347
1782815239994395600,3.638395751953125,0.18541528284549713,-0.20421242713928223,-0.5113696455955505
1782815240014477800,3.658477783203125,0.2487979531288147,-0.10000589489936829,-0.6499228477478027
1782815240034560800,3.678560791015625,0.4184075891971588,0.0357358492910862,-0.8345779776573181
1782815240054642700,3.698642578125,0.5689367055892944,0.30143555998802185,-1.068885087966919
1782815240074724900,3.718724853515625,0.6191374063491821,0.28618326783180237,-1.161067247390747
1782815240094806800,3.738806884765625,0.559939444065094,0.10530498623847961,-0.8144239783287048
1782815240114889000,3.758888916015625,0.507153332233429,0.07055982202291489,-0.2716996371746063
1782815240134971000,3.778970947265625,0.542701005935669,0.0039374264888465405,0.049733832478523254
1782815240155052800,3.799052734375,0.623522162437439,-0.054326388984918594,0.14199571311473846
1782815240175135000,3.819135009765625,0.7091341018676758,-0.004931665491312742,0.19176030158996582
1782815240195217000,3.839216796875,0.7013073563575745,0.12604515254497528,0.24367143213748932
1782815240215298800,3.859298828125,0.6346218585968018,0.15780295431613922,0.2453131526708603
1782815240235381800,3.8793818359375,0.5849550366401672,0.10426528751850128,0.22102366387844086
1782815240255464000,3.8994638671875,0.5661536455154419,0.07456403970718384,0.2171584665775299
1782815240275545900,3.9195458984375,0.5479491949081421,0.05330958962440491,0.22748017311096191
1782815240295627800,3.939627685546875,0.5296756029129028,0.04325596243143082,0.19852492213249207
1782815240315710000,3.9597099609375,0.5319192409515381,0.011086324229836464,0.11650106310844421
1782815240335791900,3.9797919921875,0.5394703149795532,-0.008954878896474838,-0.002880948130041361
1782815240355873800,3.999873779296875,0.502336323261261,-0.13329549133777618,-0.13935905694961548
1782815240375955700,4.019955810546875,0.43053025007247925,-0.09618466347455978,-0.19987326860427856
1782815240396038000,4.040037841796875,0.37445396184921265,-0.001974957762286067,-0.1893349140882492
1782815240416119800,4.060119873046875,0.3760457932949066,0.07101743668317795,-0.1359691172838211
1782815240436202800,4.08020263671875,0.4197148382663727,0.14907680451869965,-0.053642258048057556
1782815240456284700,4.10028466796875,0.4733561873435974,0.12755392491817474,0.00010386179201304913
1782815240476366800,4.120366943359375,0.4862009882926941,-0.022258948534727097,0.030506232753396034
1782815240496448800,4.14044873046875,0.4843091070652008,-0.1689596027135849,0.09445586800575256
1782815240516530700,4.16053076171875,0.48154211044311523,-0.20353107154369354,0.16964125633239746
1782815240536612900,4.18061279296875,0.4560237526893616,-0.22493378818035126,0.18878600001335144
1782815240556694800,4.20069482421875,0.38496699929237366,-0.29715561866760254,0.15825331211090088
1782815240576776700,4.220776611328125,0.31770059466362,-0.44309887290000916,0.13982494175434113
1782815240596858600,4.240858642578125,0.2532658874988556,-0.5408469438552856,0.157049760222435
1782815240616940800,4.26094091796875,0.19404321908950806,-0.5611637830734253,0.1316891312599182
1782815240637023700,4.281023681640625,0.1926846206188202,-0.47269415855407715,0.10590463131666183
1782815240657105700,4.301105712890625,0.19381868839263916,-0.45019790530204773,0.1350288689136505
1782815240677187600,4.3211875,0.16342684626579285,-0.4135207533836365,0.25689464807510376
1782815240697269800,4.341269775390625,0.10834239423274994,-0.230291485786438,0.3759438991546631
1782815240717351700,4.3613515625,0.042809776961803436,-0.10457827150821686,0.40746310353279114
1782815240737433900,4.381433837890625,0.05079871788620949,-0.06999801099300385,0.40140002965927124
1782815240757516000,4.40151611328125,0.01804925501346588,-0.12443127483129501,0.3431791365146637
1782815240777598000,4.421597900390625,-0.11025610566139221,-0.3143925070762634,0.16439568996429443
1782815240797679900,4.441679931640625,-0.1575729250907898,-0.13910041749477386,0.0923159122467041
1782815240817761800,4.46176171875,-0.1720583289861679,0.0440840870141983,0.04511250928044319
1782815240837844700,4.4818447265625,-0.16150455176830292,0.10828343033790588,-0.0038396643940359354
1782815240857927000,4.501927001953125,-0.110118567943573,0.14311698079109192,-0.04115850105881691
1782815240878008800,4.5220087890625,-0.05733844265341759,0.1842484325170517,-0.04219580441713333
1782815240898090800,4.5420908203125,-0.0309588685631752,0.2185845971107483,-0.03757771849632263
1782815240918173000,4.5621728515625,-0.039635978639125824,0.19687007367610931,-0.07459237426519394
1782815240938254800,4.5822548828125,-0.05897831544280052,0.17818298935890198,-0.17305153608322144
1782815240958336800,4.602336669921875,-0.07991153746843338,0.10700540244579315,-0.315449595451355
1782815240978419000,4.6224189453125,-0.14653892815113068,-0.06065702810883522,-0.482902854681015
1782815240998500900,4.6425009765625,-0.25577017664909363,-0.30284321308135986,-0.6297546029090881
1782815241018582800,4.662582763671875,-0.31362205743789673,-0.40110495686531067,-0.63783860206604
1782815241038665700,4.682665771484375,-0.27025464177131653,-0.21213550865650177,-0.4477030038833618
1782815241058747600,4.70274755859375,-0.15262001752853394,0.12366388738155365,-0.17248010635375977
1782815241078829800,4.722829833984375,-0.01659625954926014,0.3741150200366974,-0.03537660837173462
1782815241098911700,4.742911865234375,0.09155470877885818,0.43852704763412476,-0.0685444101691246
1782815241118993700,4.76299365234375,0.1898936927318573,0.44536542892456055,-0.13927815854549408
1782815241139075800,4.783075927734375,0.2566530704498291,0.4594639837741852,-0.1827799677848816
1782815241159157800,4.80315771484375,0.30558493733406067,0.41600802540779114,-0.24464349448680878
1782815241179239700,4.82323974609375,0.3435423970222473,0.31436845660209656,-0.31541892886161804
1782815241199321900,4.84332177734375,0.3657612204551697,0.16541694104671478,-0.35850217938423157
1782815241219404800,4.86340478515625,0.36853307485580444,0.07014670222997665,-0.41603362560272217
1782815241239486700,4.88348681640625,0.4154912829399109,0.05559540167450905,-0.4946437478065491
1782815241259568600,4.903568603515625,0.5169872641563416,-0.07822553813457489,-0.5434755682945251
1782815241279650800,4.92365087890625,0.7502366900444031,-0.0015337469521909952,-0.37259969115257263
1782815241299732700,4.943732666015625,0.8447464108467102,-0.17835767567157745,-0.3059019446372986
1782815241319814700,4.963814697265625,0.8923929333686829,-0.3083103597164154,-0.23028472065925598
1782815241339896600,4.983896484375,1.023795247077942,-0.36055949330329895,-0.05174955725669861
1782815241359978800,5.003978759765625,1.026745319366455,-0.4391014873981476,0.16470745205879211
1782815241380060700,5.024060791015625,0.9284662008285522,-0.5313679575920105,0.38475075364112854
1782815241400142600,5.044142578125,0.8724084496498108,-0.6224687695503235,0.5305501222610474
1782815241420225500,5.0642255859375,0.872850775718689,-0.4844161570072174,0.6011766195297241
1782815241440307700,5.0843076171875,0.8851831555366516,-0.14392361044883728,0.5915126204490662
1782815241460389600,5.1043896484375,0.8871780037879944,0.2115820050239563,0.487484335899353
1782815241480471600,5.124471435546875,0.8632736802101135,0.318055123090744,0.29676419496536255
1782815241500553700,5.1445537109375,0.8522092700004578,0.16484035551548004,0.13474641740322113
1782815241520635600,5.1646357421875,0.8523328304290771,-0.1137876883149147,0.06977766007184982
1782815241540717600,5.184717529296875,0.8559752106666565,-0.40744221210479736,0.07873307168483734
1782815241560799500,5.204799560546875,0.8591298460960388,-0.5512828230857849,0.18801556527614594
1782815241580881700,5.224881591796875,0.8211106061935425,-0.4665314257144928,0.3930526673793793
1782815241600964900,5.24496484375,0.7817022800445557,-0.2038443237543106,0.5298535823822021
1782815241621046800,5.265046875,0.7470982670783997,0.12378422915935516,0.46546030044555664
1782815241641128700,5.285128662109375,0.6933789253234863,0.31043344736099243,0.26862648129463196
1782815241661211000,5.3052109375,0.5936800837516785,0.372871071100235,0.060449082404375076
1782815241681918700,5.325918701171875,0.49929991364479065,0.32315361499786377,-0.09748759120702744
1782815241702001700,5.346001708984375,0.4448053538799286,0.18915672600269318,-0.15515442192554474
1782815241722083600,5.36608349609375,0.43396151065826416,0.04949489235877991,-0.09922979772090912
1782815241742165500,5.38616552734375,0.4433208107948303,-0.021747587248682976,0.01995488628745079
1782815241762247700,5.40624755859375,0.4391965866088867,-0.013970817439258099,0.09381408989429474
1782815241782329600,5.42632958984375,0.4052359163761139,0.10901807993650436,0.07401686161756516
1782815241802411500,5.44641162109375,0.37185922265052795,0.2525455355644226,0.008062531240284443
1782815241822493400,5.466493408203125,0.32831087708473206,0.3934516906738281,-0.05085579305887222
1782815241842575600,5.48657568359375,0.3406926393508911,0.47405651211738586,-0.08586634695529938
1782815241862657800,5.50665771484375,0.3861653208732605,0.5624046921730042,-0.09123310446739197
1782815241882740700,5.52674072265625,0.43157196044921875,0.5410388708114624,-0.0990230068564415
1782815241902822700,5.54682275390625,0.4618334472179413,0.46725961565971375,-0.13549815118312836
1782815241922904800,5.56690478515625,0.5171785354614258,0.3309113383293152,-0.20188578963279724
1782815241942986800,5.58698681640625,0.5946387648582458,0.14586365222930908,-0.30468621850013733
1782815241963068700,5.607068603515625,0.6060602068901062,-0.013013536110520363,-0.407603919506073
1782815241983150800,5.62715087890625,0.5519781112670898,-0.028515437617897987,-0.443112313747406
1782815242003232800,5.647232666015625,0.5267747044563293,0.053375110030174255,-0.40365782380104065
1782815242022688500,5.6666884765625,0.5947433114051819,0.17483878135681152,-0.3008141815662384
1782815242042770700,5.686770751953125,0.7182229161262512,0.24365586042404175,-0.185377299785614
1782815242062852600,5.7068525390625,0.8173966407775879,0.28746721148490906,-0.11232505738735199
1782815242082934500,5.7269345703125,0.8660284280776978,0.26347509026527405,-0.10467918962240219
1782815242103016700,5.7470166015625,0.867925226688385,0.1865037977695465,-0.1425800770521164
1782815242123098600,5.7670986328125,0.8051818013191223,0.1195886880159378,-0.17915651202201843
1782815242143180500,5.7871806640625,0.7149345874786377,0.12132468074560165,-0.21143580973148346
1782815242163262700,5.8072626953125,0.6495636105537415,0.1837800145149231,-0.25562745332717896
1782815242183344600,5.8273447265625,0.6055876016616821,0.23147475719451904,-0.3233685791492462
1782815242203427600,5.847427490234375,0.5557599067687988,0.25133568048477173,-0.36990582942962646
1782815242223509500,5.867509521484375,0.5166773796081543,0.20591484010219574,-0.3963169753551483
1782815242243591700,5.887591796875,0.5471713542938232,0.12833213806152344,-0.3661225438117981
1782815242263673900,5.907673828125,0.5961406230926514,0.025817666202783585,-0.28095850348472595
1782815242283756000,5.927756103515625,0.6119162440299988,-0.03164607658982277,-0.18032391369342804
1782815242303838000,5.947837890625,0.6290854811668396,-0.057800937443971634,-0.10652711987495422
1782815242323920100,5.967920166015625,0.6739608645439148,-0.019145209342241287,-0.027122071012854576
1782815242344002000,5.988001953125,0.7230867743492126,-0.0017504028510302305,0.04172069579362869
1782815242364084200,6.008084228515625,0.7341861128807068,-0.012040959671139717,0.08469846844673157
1782815242384166100,6.028166259765625,0.7047039866447449,-0.010037818923592567,0.07103613018989563
1782815242404249000,6.0482490234375,0.6806569695472717,0.005993952974677086,0.021033840253949165
1782815242424331300,6.068331298828125,0.6594634652137756,0.028251642361283302,-0.0038073663599789143
1782815242444413200,6.0884130859375,0.652860164642334,-0.0016139405779540539,-0.004945889115333557
1782815242464495000,6.1084951171875,0.6541634202003479,-0.08534778654575348,0.010426750406622887
1782815242484577300,6.128577392578125,0.6554704904556274,-0.1551283448934555,0.061379630118608475
1782815242504659200,6.1486591796875,0.648737370967865,-0.2524583041667938,0.12162984907627106
1782815242524741000,6.1687412109375,0.5815340280532837,-0.32345783710479736,0.15155228972434998
1782815242544823300,6.1888232421875,0.4911833107471466,-0.2600444555282593,0.18539117276668549
1782815242564905200,6.2089052734375,0.39341625571250916,-0.14681467413902283,0.24223019182682037
1782815242584988200,6.22898828125,0.3081144690513611,0.014018547721207142,0.3341951370239258
1782815242605070000,6.249070068359375,0.26434001326560974,0.17363841831684113,0.45634257793426514
1782815242625152000,6.269152099609375,0.2568073272705078,0.2887256443500519,0.5659154653549194
1782815242645234200,6.289234130859375,0.2525895833969116,0.3203093409538269,0.6364333033561707
1782815242665316000,6.309316162109375,0.22852203249931335,0.31482362747192383,0.6407518982887268
1782815242685398000,6.32939794921875,0.20445244014263153,0.23178695142269135,0.5741365551948547
1782815242705480200,6.349480224609375,0.1361416131258011,0.10894016921520233,0.4455772936344147
1782815242725562000,6.36956201171875,0.03338230401277542,-0.004283984657377005,0.29373806715011597
1782815242745644000,6.38964404296875,-0.08209013193845749,-0.02083280123770237,0.15867792069911957
1782815242765727000,6.40972705078125,-0.150620698928833,0.03909632936120033,0.05709662660956383
1782815242785809200,6.42980908203125,-0.17848867177963257,0.15948417782783508,0.02112438715994358
1782815242805891000,6.44989111328125,-0.1599809229373932,0.3386539816856384,0.07229802012443542
1782815242825973000,6.469972900390625,-0.11201459169387817,0.42654550075531006,0.11420655250549316
1782815242846055000,6.490054931640625,-0.06208143010735512,0.41130900382995605,0.12431125342845917
1782815242866137000,6.51013720703125,-0.02357320860028267,0.3464823365211487,0.10669717937707901
1782815242886219000,6.530218994140625,-0.0013205292634665966,0.24740402400493622,0.07000833004713058
1782815242906301000,6.550301025390625,0.017285481095314026,0.1476462334394455,0.038845714181661606
1782815242926383000,6.570383056640625,0.02993631362915039,0.09577301889657974,0.0367002971470356
1782815242946466300,6.59046630859375,0.02251998335123062,0.07613472640514374,0.0826839879155159
1782815242966548200,6.61054833984375,0.001760275918059051,0.114844411611557,0.133404940366745
1782815242986630100,6.630630126953125,-0.0391949787735939,0.096440389752388,0.070484459400177
1782815243006712300,6.65071240234375,-0.09593000262975693,0.050536125898361206,-0.08811052143573761
1782815243026794200,6.670794189453125,-0.17255799472332,0.010712241753935814,-0.31078416109085083
1782815243046876200,6.690876220703125,-0.2564021050930023,-0.007772575132548809,-0.5408921241760254
1782815243066958000,6.7109580078125,-0.312349408864975,-0.04554896056652069,-0.7094574570655823
1782815243087040300,6.731040283203125,-0.3389304280281067,-0.1452241688966751,-0.7193396687507629
1782815243107122200,6.7511220703125,-0.3106568455696106,-0.24315029382705688,-0.537471354007721
1782815243127205000,6.771205078125,-0.2149004489183426,-0.20283915102481842,-0.2710454761981964
1782815243147287000,6.791287109375,-0.07036900520324707,-0.017475072294473648,-0.07882125675678253
1782815243167369200,6.811369140625,0.07506302744150162,0.11795030534267426,-0.03211243450641632
1782815243187451100,6.831451171875,0.1802404224872589,0.11187492311000824,-0.043684542179107666
1782815243207533000,6.851532958984375,0.2275824099779129,0.07787426561117172,-0.05554588511586189
1782815243227615200,6.871615234375,0.2571428418159485,0.045802194625139236,-0.07374381273984909
1782815243247697200,6.891697265625,0.28248587250709534,0.003495374694466591,-0.1267462968826294
1782815243267779000,6.911779052734375,0.3048180937767029,-0.04669187217950821,-0.19581152498722076
1782815243287861000,6.931861083984375,0.30293336510658264,-0.07997661828994751,-0.2596002221107483
1782815243307943000,6.95194287109375,0.27103447914123535,-0.14071917533874512,-0.3072313368320465
1782815243328025900,6.97202587890625,0.24850569665431976,-0.22829806804656982,-0.3666289448738098
1782815243348107800,6.992107666015625,0.2492503672838211,-0.30034899711608887,-0.4341862201690674
1782815243368189700,7.012189697265625,0.23497380316257477,-0.3614002466201782,-0.45758646726608276
1782815243388271900,7.03227197265625,0.2114461213350296,-0.39970725774765015,-0.40549495816230774
1782815243408353800,7.052353759765625,0.19693832099437714,-0.3454757630825043,-0.27626174688339233
1782815243428435700,7.072435791015625,0.22808510065078735,-0.2209654152393341,-0.11095146089792252
1782815243448518000,7.092517822265625,0.2562556862831116,-0.1690317690372467,0.05695537105202675
1782815243468599800,7.112599853515625,0.28002581000328064,-0.1900881677865982,0.20869037508964539
1782815243488681700,7.132681640625,0.28006255626678467,-0.2226472944021225,0.3458788990974426
1782815243508764000,7.152763916015625,0.24405737221240997,-0.20780064165592194,0.4333583116531372
1782815243528846800,7.172846923828125,0.1891484409570694,-0.1785971224308014,0.46052640676498413
1782815243548928800,7.1929287109375,0.15948177874088287,-0.09017980098724365,0.44728514552116394
1782815243569010700,7.2130107421875,0.17193034291267395,0.04651040956377983,0.4073459804058075
1782815243589092600,7.233092529296875,0.19503913819789886,0.10476379096508026,0.3704109489917755
1782815243609174800,7.2531748046875,0.24390049278736115,0.09975149482488632,0.33035361766815186
1782815243629256700,7.273256591796875,0.3095734715461731,0.04506922513246536,0.2801717221736908
1782815243649338600,7.293338623046875,0.34469470381736755,-0.08754786103963852,0.1845656782388687
1782815243669420800,7.3134208984375,0.31209081411361694,-0.2677367329597473,0.06632383912801743
1782815243689502700,7.333502685546875,0.2587141990661621,-0.3412468433380127,0.010895522311329842
1782815243709586000,7.3535859375,0.18974685668945312,-0.3481462895870209,0.005927662365138531
1782815243729667800,7.373667724609375,0.12411077320575714,-0.30069291591644287,0.023422149941325188
1782815243749750000,7.39375,0.05287109315395355,-0.17877541482448578,0.02573649026453495
1782815243769832000,7.41383203125,0.03927164152264595,0.03675667196512222,0.03010103479027748
1782815243789913900,7.433913818359375,0.06312469393014908,0.28017762303352356,0.05664645880460739
1782815243809995800,7.453995849609375,0.0759921446442604,0.46380576491355896,0.0766870453953743
1782815243830078000,7.474077880859375,0.10470081120729446,0.5537624955177307,0.055545780807733536
1782815243850159900,7.494159912109375,0.14245954155921936,0.5483904480934143,-0.022109879180788994
1782815243870241800,7.51424169921875,0.16054648160934448,0.45614680647850037,-0.10679396986961365
1782815243890324000,7.534323974609375,0.16556385159492493,0.2990727722644806,-0.11938479542732239
1782815243910407000,7.554406982421875,0.16745945811271667,0.15728868544101715,-0.06628096103668213
1782815243930488800,7.57448876953125,0.19109977781772614,0.03786623105406761,-0.0325755700469017
1782815243950570800,7.59457080078125,0.2508518397808075,-0.05874451994895935,-0.04431154951453209
1782815243970653000,7.61465283203125,0.27657550573349,-0.13974206149578094,-0.08467236161231995
1782815243990734800,7.63473486328125,0.27129894495010376,-0.16141168773174286,-0.12237566709518433
1782815244010816800,7.654816650390625,0.26522067189216614,-0.09412831813097,-0.13380667567253113
1782815244030898700,7.674898681640625,0.2852371037006378,0.03854232281446457,-0.10406452417373657
1782815244050980900,7.69498095703125,0.33305618166923523,0.18766829371452332,-0.03769071027636528
1782815244071062800,7.715062744140625,0.40413349866867065,0.23595188558101654,0.02544059418141842
1782815244091145700,7.735145751953125,0.4439297318458557,0.12921173870563507,0.027270732447504997
1782815244111227600,7.7552275390625,0.5253275632858276,-0.16985377669334412,-0.05966606363654137
1782815244131309800,7.775309814453125,0.6720823049545288,-0.5709913969039917,-0.18721503019332886
1782815244151391700,7.795391845703125,0.7071296572685242,-0.8106676340103149,-0.2261965125799179
1782815244171473700,7.8154736328125,0.5838757753372192,-0.7909762859344482,-0.1401049941778183
1782815244191555800,7.835555908203125,0.396190345287323,-0.45322632789611816,-0.04684494435787201
1782815244211637800,7.8556376953125,0.2467879056930542,-0.020033394917845726,-0.11592850089073181
1782815244231719700,7.8757197265625,0.22950702905654907,0.43723392486572266,-0.25046393275260925
1782815244251801900,7.8958017578125,0.2859218120574951,0.7126439809799194,-0.4233330190181732
1782815244271884800,7.915884765625,0.33383703231811523,0.8328144550323486,-0.5708225965499878
1782815244291966700,7.935966796875,0.3072231113910675,0.8099902868270874,-0.5561912655830383
1782815244312048600,7.956048583984375,0.218095600605011,0.7067242860794067,-0.3937632739543915
1782815244332130600,7.976130615234375,0.14493785798549652,0.5583230257034302,-0.20847861468791962
1782815244352212700,7.996212646484375,0.12465338408946991,0.43859872221946716,-0.12008491158485413
1782815244372294700,8.016294677734376,0.12184429913759232,0.396301805973053,-0.13793277740478516
1782815244392376600,8.03637646484375,0.11847519129514694,0.4254474639892578,-0.23553676903247833
1782815244412458800,8.056458740234374,0.10329144448041916,0.3318552076816559,-0.33828285336494446
1782815244432540700,8.076540771484375,0.016213741153478622,0.13672545552253723,-0.3678053021430969
1782815244452623600,8.09662353515625,-0.08393342047929764,-0.08146098256111145,-0.3120070993900299
1782815244472705500,8.11670556640625,-0.09433013945817947,-0.22453665733337402,-0.16580432653427124
1782815244492787700,8.13678759765625,0.02114141546189785,-0.14550915360450745,0.025799185037612915
1782815244512869600,8.15686962890625,0.2016953080892563,-0.09387917816638947,0.16692641377449036
1782815244532951600,8.17695166015625,0.353579580783844,-0.26311638951301575,0.20902122557163239
1782815244553033500,8.197033447265625,0.42908135056495667,-0.3367520868778229,0.25544437766075134
1782815244573115600,8.21711572265625,0.46441635489463806,-0.1690879613161087,0.33152255415916443
1782815244593197600,8.237197509765625,0.4779302179813385,0.009208578616380692,0.39681103825569153
1782815244613279500,8.257279541015626,0.4637564718723297,0.06713571399450302,0.4145811200141907
1782815244633361700,8.277361572265624,0.45113077759742737,0.07967232912778854,0.3994210660457611
1782815244653444600,8.297444580078125,0.4350831210613251,0.04671720787882805,0.37294068932533264
1782815244673526500,8.317526611328125,0.44878363609313965,-0.09028559923171997,0.36720189452171326
1782815244693608400,8.3376083984375,0.4530479311943054,-0.31915250420570374,0.32698869705200195
1782815244713690600,8.357690673828126,0.3836124837398529,-0.5037434697151184,0.27579352259635925
1782815244733772500,8.3777724609375,0.2977615296840668,-0.5862456560134888,0.2542581558227539
1782815244753854500,8.3978544921875,0.24864481389522552,-0.4992973506450653,0.34958013892173767
1782815244773936400,8.417936279296875,0.20710180699825287,-0.3451589047908783,0.4675835371017456
1782815244794018800,8.438018798828125,0.12835337221622467,-0.26873326301574707,0.5344374179840088
1782815244814100700,8.458100830078125,0.0514538437128067,-0.2646717429161072,0.5317506194114685
1782815244834182700,8.4781826171875,-0.0341012142598629,-0.25575265288352966,0.49920371174812317
1782815244854264800,8.498264892578124,-0.09765900671482086,-0.10992985963821411,0.4614928662776947
1782815244874347800,8.51834765625,-0.11006542295217514,0.10710084438323975,0.40075621008872986
1782815244894429700,8.5384296875,-0.07534017413854599,0.2675603926181793,0.30784785747528076
1782815244914511600,8.55851171875,-0.0206085667014122,0.21939538419246674,0.22202607989311218
1782815244934593800,8.57859375,0.017405036836862564,0.061212360858917236,0.17872707545757294
1782815244954675700,8.59867578125,0.06202377751469612,-0.05643552914261818,0.18610604107379913
1782815244974757600,8.618757568359374,0.10359152406454086,-0.1046014130115509,0.20740820467472076
1782815244994839600,8.638839599609375,0.1374087780714035,-0.140591099858284,0.22339984774589539
1782815245014921700,8.658921630859375,0.1603284776210785,-0.10866094380617142,0.21967639029026031
1782815245035003600,8.679003662109375,0.16404475271701813,-0.01624714583158493,0.17241470515727997
1782815245055085600,8.69908544921875,0.1322113573551178,-0.004043452441692352,0.07153698801994324
1782815245075167700,8.719167724609376,0.11065172404050827,-0.05385370925068855,-0.0471348874270916
1782815245095249700,8.739249755859374,0.11163169145584106,-0.038995370268821716,-0.1355525404214859
1782815245115332600,8.75933251953125,0.12567949295043945,0.027907341718673706,-0.16531577706336975
1782815245135414500,8.77941455078125,0.12781083583831787,-0.00952203944325447,-0.1438789814710617
1782815245155496700,8.79949658203125,0.12566567957401276,-0.09101894497871399,-0.08166985958814621
1782815245175578600,8.81957861328125,0.1236686110496521,-0.14669354259967804,-0.04450256749987602
1782815245195660500,8.83966064453125,0.11967840790748596,-0.16865502297878265,-0.08494246751070023
1782815245215742500,8.859742431640624,0.12169545143842697,-0.11150200664997101,-0.16254577040672302
1782815245235824600,8.87982470703125,0.10719338804483414,-0.023684505373239517,-0.2471817433834076
1782815245255906600,8.899906494140625,0.1006527841091156,0.011200232431292534,-0.35864806175231934
1782815245275988500,8.919988525390625,0.10029623657464981,0.019725751131772995,-0.45917966961860657
1782815245296070700,8.940070556640626,0.10250188410282135,0.052582427859306335,-0.5433072447776794
1782815245316152600,8.960152587890626,0.12797853350639343,0.1118907779455185,-0.6405764222145081
1782815245336234500,8.980234375,0.1808580607175827,0.22686730325222015,-0.7083287239074707
1782815245356316700,9.000316650390625,0.2579101026058197,0.32000717520713806,-0.6563405394554138
1782815245376399600,9.020399658203125,0.3404311239719391,0.29525241255760193,-0.5130728483200073
1782815245396481500,9.0404814453125,0.3952172100543976,0.2130463719367981,-0.33651959896087646
1782815245416563500,9.0605634765625,0.4306936264038086,0.1280226707458496,-0.17497225105762482
1782815245436645600,9.080645751953124,0.44217655062675476,0.08407612890005112,-0.060643430799245834
1782815245456727800,9.100727783203125,0.4576644003391266,0.1047910526394844,-0.02371794544160366
1782815245476809700,9.120809814453125,0.47148048877716064,0.07632070779800415,-0.04826655238866806
1782815245496891600,9.1408916015625,0.46474045515060425,-0.02697351947426796,-0.09929637610912323
1782815245516973800,9.160973876953125,0.4381842017173767,-0.11485543847084045,-0.12900125980377197
1782815245537055700,9.1810556640625,0.37086251378059387,-0.16018779575824738,-0.13816425204277039
1782815245557137700,9.2011376953125,0.2857775390148163,-0.16834349930286407,-0.1352473795413971
1782815245577219800,9.2212197265625,0.20457015931606293,-0.16308464109897614,-0.08366819471120834
1782815245597301800,9.2413017578125,0.12770459055900574,-0.2156742364168167,0.03533301502466202
1782815245617383700,9.2613837890625,0.06440173089504242,-0.30608856678009033,0.1644493192434311
1782815245637466600,9.281466552734376,-0.007301785983145237,-0.3435335159301758,0.24392423033714294
1782815245657548500,9.301548583984374,-0.07599224895238876,-0.2972925007343292,0.2806410491466522
1782815245677630700,9.321630615234374,-0.13562732934951782,-0.1954934298992157,0.32507264614105225
1782815245697712600,9.341712646484375,-0.19538046419620514,-0.06276356428861618,0.35630276799201965
1782815245717794600,9.361794677734375,-0.23760820925235748,-0.0035715142730623484,0.2939334213733673
1782815245737876700,9.381876708984375,-0.2820887863636017,-0.08961918950080872,0.18895763158798218
1782815245757958700,9.401958740234376,-0.3202785551548004,-0.1257701963186264,0.1276279240846634
1782815245778040600,9.42204052734375,-0.3185417056083679,-0.13769491016864777,0.15842430293560028
1782815245798122800,9.442122802734374,-0.2984112501144409,-0.09831073880195618,0.2750350534915924
1782815245818204700,9.46220458984375,-0.26592811942100525,-0.04028540477156639,0.44262105226516724
1782815245838286600,9.48228662109375,-0.25591620802879333,0.04217017441987991,0.5912565588951111
1782815245858368500,9.502368408203125,-0.24426361918449402,0.16115660965442657,0.6586328148841858
1782815245878450700,9.52245068359375,-0.23141109943389893,0.27505049109458923,0.6494233012199402
1782815245898532600,9.54253271484375,-0.22122783958911896,0.33069998025894165,0.5859781503677368
1782815245918614500,9.562614501953124,-0.24563689529895782,0.3651684820652008,0.45751866698265076
1782815245938696700,9.58269677734375,-0.26174086332321167,0.4043106734752655,0.2748337686061859
1782815245958779600,9.602779541015625,-0.2808752954006195,0.43297770619392395,0.10100158303976059
1782815245978861600,9.622861572265625,-0.3148106336593628,0.3545965254306793,-0.056845325976610184
1782815245998943500,9.642943603515626,-0.3639669716358185,0.24661365151405334,-0.2068948745727539
1782815246019025700,9.663025634765624,-0.4064289629459381,0.1621892899274826,-0.324582040309906
1782815246039107600,9.683107666015625,-0.40987905859947205,0.20592685043811798,-0.32439425587654114
1782815246059189500,9.703189453125,-0.3708276152610779,0.31546613574028015,-0.2134639024734497
1782815246079271700,9.723271728515625,-0.312055379152298,0.38865166902542114,-0.06160246208310127
1782815246099354600,9.743354736328126,-0.23175236582756042,0.2779303193092346,0.04212312027812004
1782815246119436800,9.763436767578124,-0.1746479570865631,0.07979051768779755,0.1747930347919464
1782815246139518700,9.783518798828124,-0.16286422312259674,-0.07135529816150665,0.2707444429397583
1782815246159600600,9.8036005859375,-0.15788406133651733,-0.17521454393863678,0.2648645043373108
1782815246179682800,9.823682861328125,-0.16904477775096893,-0.2692767083644867,0.15956223011016846
1782815246199764700,9.8437646484375,-0.19269147515296936,-0.37430113554000854,0.028082355856895447
1782815246219846700,9.8638466796875,-0.2399059534072876,-0.41552382707595825,-0.12608271837234497
1782815246239928800,9.8839287109375,-0.272453248500824,-0.3004070818424225,-0.2749294638633728
1782815246260010800,9.9040107421875,-0.28097420930862427,-0.06884906440973282,-0.3294358551502228
1782815246280092700,9.9240927734375,-0.2663467228412628,0.06014588102698326,-0.26171594858169556
1782815246300174600,9.944174560546875,-0.23704440891742706,0.1292867511510849,-0.09069669991731644
1782815246320257500,9.964257568359375,-0.21121308207511902,0.0273126307874918,0.03703054040670395
1782815246340339700,9.984339599609376,-0.20336148142814636,-0.12735715508460999,0.06440648436546326
1782815246360421600,10.004421630859374,-0.1770215481519699,-0.2642941176891327,0.01132926531136036
1782815246380503600,10.024503662109375,-0.16726696491241455,-0.2987271249294281,-0.05660935118794441
1782815246400585700,10.044585693359375,-0.20174244046211243,-0.25089049339294434,-0.15645034611225128
1782815246420667600,10.064667724609375,-0.2538904547691345,-0.18431363999843597,-0.2676454782485962
1782815246440749600,10.08474951171875,-0.2722826600074768,-0.14092987775802612,-0.3634507358074188
1782815246460831700,10.104831787109376,-0.25056371092796326,-0.1020594984292984,-0.3962501883506775
1782815246480913700,10.12491357421875,-0.19382815062999725,-0.01980227418243885,-0.37288525700569153
1782815246500995600,10.14499560546875,-0.12985669076442719,0.06530192494392395,-0.2954331338405609
1782815246521077800,10.165077880859375,-0.08003275841474533,0.09535369277000427,-0.18964926898479462
1782815246541160700,10.18516064453125,-0.020782703533768654,0.09149666130542755,-0.11881331354379654
1782815246561242600,10.20524267578125,0.0519314669072628,0.12733766436576843,-0.09913084656000137
1782815246581324500,10.225324462890624,0.12795445322990417,0.17177259922027588,-0.10881504416465759
1782815246601406500,10.245406494140624,0.18377752602100372,0.14073844254016876,-0.11682198941707611
1782815246621488600,10.265488525390625,0.21836307644844055,0.08880911022424698,-0.09548167884349823
1782815246641570600,10.285570556640625,0.25951090455055237,0.06824131309986115,-0.07939945161342621
1782815246661652500,10.305652587890625,0.29768842458724976,0.10088549554347992,-0.0795358344912529
1782815246681734700,10.325734619140626,0.3387880027294159,0.11797355860471725,-0.10729814320802689
1782815246701816600,10.345816650390624,0.3435898423194885,-0.028639283031225204,-0.18602988123893738
1782815246721899500,10.3658994140625,0.30982184410095215,-0.019434725865721703,-0.24197082221508026
1782815246741981700,10.385981689453125,0.2693863809108734,0.2166004180908203,-0.25675705075263977
