time,seconds_elapsed,z,y,x
1782814942777054700,0.0620546875,-0.20643700659275055,-0.0038743542972952127,-0.37532567977905273
1782814942797137700,0.0821376953125,-0.17373205721378326,-0.07632165402173996,-0.08831016719341278
1782814942817220600,0.102220703125,-0.26031866669654846,-0.22575531899929047,0.26031693816185
1782814942837303800,0.1223037109375,-0.37176579236984253,-0.5261055827140808,0.26752644777297974
1782814942857386800,0.14238671875,-0.34729817509651184,-1.027773380279541,-0.09871088713407516
1782814942877469700,0.1624697265625,-0.36962607502937317,-0.7504041790962219,-0.8141781091690063
1782814942897552600,0.182552734375,0.23849675059318542,0.6136028170585632,-1.7271090745925903
1782814942917635800,0.2026357421875,0.6576741933822632,0.7733064293861389,-1.9640913009643555
1782814942937718800,0.22271875,0.6937626004219055,0.6204282641410828,-1.7967146635055542
1782814942957801000,0.242801025390625,0.4889944791793823,0.15690761804580688,-1.3838568925857544
1782814942977884000,0.2628837890625,0.13878105580806732,-0.13377420604228973,-0.6974221467971802
1782814942997966800,0.282966796875,-0.1466580033302307,-0.4663219749927521,0.13782593607902527
1782814943018049800,0.3030498046875,-0.31067806482315063,-1.0657756328582764,0.6487106680870056
1782814943038132700,0.3231328125,-0.5746909379959106,-0.9053678512573242,0.791016697883606
1782814943058215700,0.343215576171875,-0.9479503035545349,-0.3860943615436554,0.6330905556678772
1782814943078298600,0.363298583984375,-0.946619987487793,-0.5220448970794678,0.084200918674469
1782814943098381800,0.3833818359375,-0.7790563702583313,-0.19411590695381165,-0.20247143507003784
1782814943118464800,0.40346484375,-0.5227307081222534,0.05592184513807297,-0.27573880553245544
1782814943138547700,0.423547607421875,-0.2714037597179413,0.23947353661060333,-0.2535262405872345
1782814943158629600,0.443629638671875,-0.09932424128055573,0.3342150151729584,-0.2580154538154602
1782814943178712600,0.463712646484375,-0.07010199129581451,0.28386300802230835,-0.29088595509529114
1782814943198795800,0.483795654296875,-0.0937034860253334,0.09627614170312881,-0.235163152217865
1782814943218878700,0.503878662109375,-0.1245669573545456,-0.1980472058057785,-0.08124521374702454
1782814943238961700,0.523961669921875,-0.17437843978405,-0.441099613904953,0.11097276955842972
1782814943259044600,0.544044677734375,-0.13043540716171265,-0.5862422585487366,0.2782471776008606
1782814943279127600,0.56412744140625,-0.052504681050777435,-0.6139127612113953,0.3418058753013611
1782814943299210800,0.584210693359375,-0.005594122689217329,-0.6250196695327759,0.26926907896995544
1782814943319293700,0.604293701171875,-0.03556167334318161,-0.6816417574882507,0.1293042153120041
1782814943339376600,0.624376708984375,-0.07729368656873703,-0.6767443418502808,-0.04435925930738449
1782814943359458600,0.64445849609375,-0.1193903386592865,-0.6717947125434875,-0.20709726214408875
1782814943379541800,0.664541748046875,-0.16796351969242096,-0.5276848673820496,-0.2707006335258484
1782814943399624700,0.684624755859375,-0.21049070358276367,-0.27297425270080566,-0.17707638442516327
1782814943419707600,0.704707763671875,-0.19627748429775238,0.016484234482049942,-0.031109973788261414
1782814943439790800,0.724790771484375,-0.17640575766563416,0.14872480928897858,0.07314909249544144
1782814943459873800,0.744873779296875,-0.18698960542678833,0.1448925882577896,0.07083269953727722
1782814943479956700,0.764956787109375,-0.2094879001379013,0.13035795092582703,-0.12053541094064713
1782814943500039700,0.785039794921875,-0.208155557513237,0.1961841881275177,-0.30220386385917664
1782814943520123000,0.805122802734375,-0.19423483312129974,0.2541961371898651,-0.2746504247188568
1782814943540205800,0.825205810546875,-0.15906907618045807,0.24390579760074615,-0.10967540740966797
1782814943560287700,0.845287841796875,-0.1314716339111328,0.21122236549854279,0.022046346217393875
1782814943580370700,0.86537060546875,-0.1487589329481125,0.23178261518478394,0.020671308040618896
1782814943600453600,0.88545361328125,-0.192119300365448,0.23613259196281433,-0.07504142820835114
1782814943620536600,0.90553662109375,-0.23894712328910828,0.171253964304924,-0.15730710327625275
1782814943640619800,0.925619873046875,-0.27907395362854004,0.1281379759311676,-0.16671203076839447
1782814943660702700,0.94570263671875,-0.318491667509079,0.05996595323085785,-0.14404571056365967
1782814943680785700,0.96578564453125,-0.37104636430740356,-0.04794275388121605,-0.1347702592611313
1782814943700868600,0.98586865234375,-0.4274730384349823,-0.1754593402147293,-0.13949094712734222
1782814943720951800,1.005951904296875,-0.47121644020080566,-0.21207323670387268,-0.14535653591156006
1782814943741034800,1.02603466796875,-0.4926415979862213,-0.10276716202497482,-0.18303237855434418
1782814943761116700,1.04611669921875,-0.48741793632507324,0.07993783801794052,-0.24992993474006653
1782814943781199600,1.06619970703125,-0.5086828470230103,0.18759053945541382,-0.2901376485824585
1782814943801282600,1.086282470703125,-0.543279230594635,0.14595037698745728,-0.21856525540351868
1782814943821365500,1.106365478515625,-0.5700550675392151,0.029787994921207428,-0.04280730336904526
1782814943841448700,1.12644873046875,-0.544548749923706,-0.07113953679800034,0.1320902556180954
1782814943861531600,1.14653173828125,-0.4923507571220398,-0.13439679145812988,0.20242300629615784
1782814943881614600,1.166614501953125,-0.456104040145874,-0.17337803542613983,0.1954474300146103
1782814943901697500,1.186697509765625,-0.4784102141857147,-0.21139322221279144,0.18992464244365692
1782814943921780500,1.206780517578125,-0.5177246928215027,-0.19894860684871674,0.20817366242408752
1782814943941862700,1.226862548828125,-0.5284247398376465,-0.19431130588054657,0.2031361162662506
1782814943961945900,1.24694580078125,-0.5264816284179688,-0.20001967251300812,0.23773185908794403
1782814943982028800,1.26702880859375,-0.5220882296562195,-0.16005514562129974,0.2428508996963501
1782814944002112000,1.287112060546875,-0.4958309233188629,-0.19656598567962646,0.14804033935070038
1782814944022195000,1.30719482421875,-0.45142149925231934,-0.15668544173240662,0.056219473481178284
1782814944042278000,1.32727783203125,-0.41560423374176025,-0.07797501236200333,-0.003989792428910732
1782814944062361000,1.347361083984375,-0.3887503445148468,-0.009762248024344444,-0.017944211140275
1782814944082444000,1.367444091796875,-0.3463010787963867,-0.011132870800793171,0.035017263144254684
1782814944102527000,1.38752685546875,-0.2916960120201111,-0.01805998757481575,0.17020580172538757
1782814944122609000,1.40760888671875,-0.22078120708465576,0.004538437817245722,0.3315808176994324
1782814944142691800,1.42769189453125,-0.12757091224193573,0.09266851097345352,0.4314269721508026
1782814944162775000,1.447775146484375,-0.021571125835180283,0.14376676082611084,0.4105788767337799
1782814944182858000,1.46785791015625,0.06825128197669983,0.18801987171173096,0.35678085684776306
1782814944202941000,1.48794091796875,0.1310078650712967,0.13118088245391846,0.30576181411743164
1782814944223023900,1.50802392578125,0.14098022878170013,-0.02107633836567402,0.275531142950058
1782814944243106800,1.52810693359375,0.10542500764131546,-0.2089625746011734,0.2643701732158661
1782814944263190000,1.54818994140625,0.0516965314745903,-0.2996962070465088,0.2921525239944458
1782814944283273000,1.56827294921875,0.0020266789942979813,-0.17577019333839417,0.34177401661872864
1782814944303355000,1.58835498046875,-0.036300573498010635,-0.00760306604206562,0.3194212317466736
1782814944323437800,1.608437744140625,-0.05951457470655441,0.24611231684684753,0.24419863522052765
1782814944343520800,1.628520751953125,-0.09512514621019363,0.4754737615585327,0.16141504049301147
1782814944363603700,1.648603759765625,-0.09657716006040573,0.5916333198547363,0.07741337269544601
1782814944383687000,1.66868701171875,-0.112458236515522,0.5767219662666321,-0.02046741172671318
1782814944403769900,1.688769775390625,-0.16297759115695953,0.4686129689216614,-0.15142056345939636
1782814944423852800,1.708852783203125,-0.21027153730392456,0.27891603112220764,-0.33596375584602356
1782814944443935700,1.728935791015625,-0.23492999374866486,0.20541879534721375,-0.446447491645813
1782814944464018000,1.749017822265625,-0.23745882511138916,0.20269542932510376,-0.48426851630210876
1782814944484100900,1.769100830078125,-0.19725891947746277,0.2176101803779602,-0.4736179709434509
1782814944504184000,1.78918408203125,-0.11024978011846542,0.2576195299625397,-0.4472837746143341
1782814944524267000,1.80926708984375,0.022131621837615967,0.25303131341934204,-0.4281129539012909
1782814944544350000,1.829349853515625,0.1395786553621292,0.16586896777153015,-0.38596439361572266
1782814944564433000,1.849432861328125,0.21900002658367157,0.061479780822992325,-0.3064541518688202
1782814944584515800,1.869515869140625,0.24166613817214966,-0.028083456680178642,-0.23847615718841553
1782814944604599000,1.88959912109375,0.2530674338340759,-0.09468290954828262,-0.235068678855896
1782814944624681000,1.909680908203125,0.2722993493080139,-0.1036929115653038,-0.264177143573761
1782814944644764000,1.929763916015625,0.289137065410614,-0.0846066027879715,-0.31147974729537964
1782814944664846800,1.949846923828125,0.2934017479419708,-0.06575711816549301,-0.3455873727798462
1782814944684929800,1.9699296875,0.2939688563346863,-0.05546962469816208,-0.3596518933773041
1782814944705013000,1.990012939453125,0.32621222734451294,-0.03625689819455147,-0.32534313201904297
1782814944725096000,2.010095947265625,0.3661210834980011,-0.01969757303595543,-0.26757410168647766
1782814944745179000,2.030178955078125,0.3956621587276459,0.009804604575037956,-0.2209419161081314
1782814944765261800,2.05026171875,0.4046703577041626,0.029778819531202316,-0.2134586125612259
1782814944785344000,2.070343994140625,0.40430954098701477,0.06036980822682381,-0.2186320424079895
1782814944805427000,2.090427001953125,0.41010409593582153,0.013907171785831451,-0.2711330056190491
1782814944825510100,2.11051025390625,0.433088481426239,0.01626565493643284,-0.2930600941181183
1782814944845593000,2.130593017578125,0.45697829127311707,0.014631496742367744,-0.28024718165397644
1782814944865676000,2.150676025390625,0.4712512195110321,-0.03213386610150337,-0.23540142178535461
1782814944885759000,2.170759033203125,0.4626378118991852,-0.05397646129131317,-0.1467544436454773
1782814944905842000,2.190842041015625,0.44445809721946716,-0.061766091734170914,-0.05765523388981819
1782814944925925000,2.210925048828125,0.4129054546356201,0.002061964012682438,0.015240967273712158
1782814944946007000,2.231007080078125,0.40221869945526123,0.16154275834560394,0.07390020787715912
1782814944966090000,2.251090087890625,0.38924357295036316,0.31560570001602173,0.1472475677728653
1782814944986173000,2.2711728515625,0.3201114535331726,0.27692893147468567,0.14098148047924042
1782814945006255900,2.291255859375,0.286641389131546,0.22873727977275848,0.12827938795089722
1782814945026338800,2.3113388671875,0.2553017735481262,0.2057410478591919,0.1692649871110916
1782814945046422000,2.331422119140625,0.19809763133525848,0.10254133492708206,0.1613762527704239
1782814945066505000,2.3515048828125,0.1371447890996933,-0.0582769550383091,0.0996437519788742
1782814945086588000,2.371587890625,0.10419164597988129,-0.17593802511692047,0.06883520632982254
1782814945106669800,2.391669921875,0.10471270233392715,-0.1123707965016365,0.14078892767429352
1782814945126752800,2.411752685546875,0.11015105992555618,0.060259509831666946,0.29644402861595154
1782814945146836000,2.4318359375,0.12371376156806946,0.22043468058109283,0.42009231448173523
1782814945166919000,2.4519189453125,0.1251268833875656,0.2282150685787201,0.44322383403778076
1782814945187001900,2.472001953125,0.10504140704870224,0.15579578280448914,0.42801985144615173
1782814945207084800,2.492084716796875,0.07355547696352005,0.07599134743213654,0.4273817539215088
1782814945227167700,2.512167724609375,0.057824891060590744,0.04270518943667412,0.43339917063713074
1782814945247250000,2.53225,0.06874242424964905,0.07131728529930115,0.4453684985637665
1782814945267333000,2.5523330078125,0.052325423806905746,0.1060355007648468,0.4334299564361572
1782814945287416000,2.572416015625,0.013949772343039513,0.08163543045520782,0.3813120722770691
1782814945307499000,2.5924990234375,-0.030028318986296654,-0.009571574628353119,0.31871485710144043
1782814945327582000,2.61258203125,-0.06354593485593796,-0.12683168053627014,0.24933622777462006
1782814945347665000,2.632664794921875,-0.05724233761429787,-0.1508064717054367,0.21469742059707642
1782814945367748000,2.652748046875,-0.040272582322359085,-0.08443240076303482,0.24253569543361664
1782814945387831000,2.6728310546875,-0.043308041989803314,-0.05078129470348358,0.26385730504989624
1782814945407913000,2.692912841796875,-0.0648486316204071,-0.12302769720554352,0.2276412695646286
1782814945427996000,2.712995849609375,-0.11493351310491562,-0.24392879009246826,0.14165695011615753
1782814945448078800,2.733078857421875,-0.17733027040958405,-0.33884692192077637,0.03228536620736122
1782814945468161800,2.753161865234375,-0.26978957653045654,-0.43513816595077515,-0.08418989181518555
1782814945488245000,2.773244873046875,-0.3937526047229767,-0.5408804416656494,-0.2009679079055786
1782814945508328000,2.793327880859375,-0.5002902746200562,-0.5672122836112976,-0.2514949142932892
1782814945528411000,2.813410888671875,-0.5569602251052856,-0.4411928355693817,-0.13424070179462433
1782814945548492800,2.833492919921875,-0.5651081800460815,-0.14023162424564362,0.0938352569937706
1782814945568575700,2.85357568359375,-0.5322802066802979,0.1630987823009491,0.29728415608406067
1782814945588658700,2.87365869140625,-0.5273470878601074,0.35211166739463806,0.377482146024704
1782814945608742000,2.893741943359375,-0.5563970804214478,0.4318563640117645,0.3577432334423065
1782814945628824800,2.913824951171875,-0.6352235674858093,0.3875490427017212,0.26691070199012756
1782814945648907800,2.93390771484375,-0.7509521245956421,0.1959410160779953,0.1125260591506958
1782814945668991000,2.953990966796875,-0.87763911485672,-0.06762312352657318,-0.044432349503040314
1782814945689074000,2.974073974609375,-0.9807531237602234,-0.2602362334728241,-0.1532607227563858
1782814945709156000,2.994156005859375,-1.051274299621582,-0.3362869322299957,-0.2035142332315445
1782814945729239000,3.014239013671875,-1.0933077335357666,-0.35503721237182617,-0.18032801151275635
1782814945749322000,3.034322021484375,-1.1430515050888062,-0.3124805688858032,-0.14098814129829407
1782814945769405000,3.054405029296875,-1.1872036457061768,-0.2608925700187683,-0.14776396751403809
1782814945789487900,3.07448779296875,-1.2270660400390625,-0.2017211616039276,-0.15901197493076324
1782814945809571000,3.094571044921875,-1.2482911348342896,-0.1229478120803833,-0.16429850459098816
1782814945829654000,3.114654052734375,-1.2587127685546875,-0.0273443516343832,-0.16946543753147125
1782814945849736000,3.13473583984375,-1.2519793510437012,0.06670334935188293,-0.17913660407066345
1782814945869819000,3.15481884765625,-1.2380359172821045,0.09603171795606613,-0.19288857281208038
1782814945889901800,3.17490185546875,-1.21877121925354,0.05580487474799156,-0.20718435943126678
1782814945909984800,3.19498486328125,-1.1653335094451904,-0.008871780708432198,-0.2140335887670517
1782814945930068000,3.21506787109375,-1.0851945877075195,-0.08614559471607208,-0.18672573566436768
1782814945950151000,3.23515087890625,-1.000123381614685,-0.14525775611400604,-0.14723029732704163
1782814945970233900,3.25523388671875,-0.9164549708366394,-0.16677892208099365,-0.12386686354875565
1782814945990315800,3.275315673828125,-0.8385285139083862,-0.1559656262397766,-0.11509901285171509
1782814946010397700,3.295397705078125,-0.7583937048912048,-0.18187299370765686,-0.10051856189966202
1782814946030481000,3.31548095703125,-0.6732056140899658,-0.2712951600551605,-0.06072472035884857
1782814946050563800,3.335563720703125,-0.5824941396713257,-0.36583516001701355,0.007227588444948196
1782814946070646800,3.355646728515625,-0.5142073631286621,-0.334476113319397,0.046530578285455704
1782814946090729700,3.375729736328125,-0.505500078201294,-0.40696391463279724,-0.036518629640340805
1782814946110812700,3.395812744140625,-0.5056467056274414,-0.5587232112884521,-0.16779227554798126
1782814946130896000,3.415895751953125,-0.48470592498779297,-0.7490710020065308,-0.19516421854496002
1782814946150977800,3.435977783203125,-0.42146530747413635,-0.8194562196731567,-0.052532680332660675
1782814946171060700,3.456060791015625,-0.252663791179657,-0.7226686477661133,0.22316783666610718
1782814946191143700,3.476143798828125,-0.03872264549136162,-0.35527291893959045,0.5211196541786194
1782814946211226600,3.4962265625,0.046697188168764114,0.11521780490875244,0.7977656722068787
1782814946231309600,3.5163095703125,0.13442696630954742,0.43002328276634216,0.8604810237884521
1782814946251392800,3.536392822265625,0.19932544231414795,0.5878347754478455,0.7526170611381531
1782814946271475700,3.556475830078125,0.17406673729419708,0.5005452036857605,0.5509978532791138
1782814946291558000,3.576557861328125,0.0949603021144867,0.1771087348461151,0.3013283312320709
1782814946311640800,3.596640869140625,0.016915159299969673,-0.20912747085094452,0.10671564191579819
1782814946331723800,3.616723876953125,-0.019169839099049568,-0.5084381103515625,-0.015001888386905193
1782814946351807000,3.636806884765625,-0.010588550008833408,-0.7209493517875671,-0.07861940562725067
1782814946371890000,3.656889892578125,-0.005636530928313732,-0.736794650554657,-0.06901215016841888
1782814946391972900,3.676972900390625,0.021118666976690292,-0.48282986879348755,0.050304800271987915
1782814946412055800,3.697055908203125,0.06704281270503998,-0.05436886101961136,0.24211485683918
1782814946432137700,3.7171376953125,0.09440753608942032,0.3974452316761017,0.34855788946151733
1782814946452220700,3.737220703125,0.10477826744318008,0.6215431690216064,0.25673869252204895
1782814946472303900,3.757303955078125,0.04315287992358208,0.6496306657791138,0.052325837314128876
1782814946492386800,3.77738671875,-0.0505170077085495,0.5071653723716736,-0.1764085590839386
1782814946512469800,3.7974697265625,-0.12274932116270065,0.26186224818229675,-0.3335212767124176
1782814946532552700,3.817552734375,-0.1487429440021515,0.006466439925134182,-0.4088619351387024
1782814946552635600,3.8376357421875,-0.15502196550369263,-0.14391805231571198,-0.39255329966545105
1782814946572717600,3.857717529296875,-0.17051295936107635,-0.1485501080751419,-0.34391459822654724
1782814946592800800,3.87780078125,-0.16532233357429504,-0.0849790871143341,-0.2869390845298767
1782814946612883700,3.8978837890625,-0.16178062558174133,0.0039109131321311,-0.25081607699394226
1782814946632966700,3.917966552734375,-0.16473239660263062,0.11664609611034393,-0.25260254740715027
1782814946653049600,3.938049560546875,-0.1739804893732071,0.1784764528274536,-0.2897999882698059
1782814946673132500,3.958132568359375,-0.19142349064350128,0.15719933807849884,-0.34198445081710815
1782814946693214700,3.978214599609375,-0.1868770718574524,0.11161558330059052,-0.35821783542633057
1782814946713298000,3.9982978515625,-0.14077900350093842,0.10672612488269806,-0.33477696776390076
1782814946733380900,4.018380859375,-0.07554050534963608,0.09937450289726257,-0.28499576449394226
1782814946753463800,4.0384638671875,0.01683974079787731,0.10291913151741028,-0.2087896466255188
1782814946773546800,4.058546630859375,0.11671120673418045,0.09917665272951126,-0.10112983733415604
1782814946793629700,4.078629638671875,0.19044606387615204,0.005679666996002197,-0.03789310157299042
1782814946813713000,4.098712890625,0.26775237917900085,-0.12203270196914673,-0.03707442060112953
1782814946833794800,4.118794921875,0.3408815264701843,-0.19531331956386566,-0.04361533746123314
1782814946853877800,4.138877685546875,0.3833322525024414,-0.18768148124217987,-0.04295308142900467
1782814946873960700,4.158960693359375,0.43225112557411194,-0.12143503129482269,-0.06550656259059906
1782814946894043600,4.179043701171875,0.48646682500839233,-0.07487981766462326,-0.09252949804067612
1782814946914126800,4.199126953125,0.5349001288414001,-0.08682423830032349,-0.07651735097169876
1782814946934209800,4.219209716796875,0.5798847079277039,-0.10401647537946701,0.0013034024741500616
1782814946954292700,4.239292724609375,0.6235800385475159,-0.11457441002130508,0.09467960149049759
1782814946974374700,4.259374755859375,0.6684690713882446,-0.11675708740949631,0.1790781319141388
1782814946994458400,4.279458251953125,0.7108712196350098,-0.07307613641023636,0.24074742197990417
1782814947014541600,4.29954150390625,0.7493178844451904,0.04092021286487579,0.29409095644950867
1782814947034624500,4.31962451171875,0.7668389081954956,0.13723887503147125,0.341188907623291
1782814947054707500,4.33970751953125,0.7641096711158752,0.1867838054895401,0.3884144723415375
1782814947074790400,4.359790283203125,0.7790273427963257,0.26746678352355957,0.41594794392585754
1782814947094872600,4.37987255859375,0.7800687551498413,0.29714688658714294,0.36405664682388306
1782814947114955800,4.399955810546875,0.719957172870636,0.38350626826286316,0.23558148741722107
1782814947135038700,4.420038818359375,0.5623143315315247,0.421894371509552,-0.046988118439912796
1782814947155121700,4.44012158203125,0.35606229305267334,0.3766449987888336,-0.4214439392089844
1782814947175204600,4.46020458984375,0.27355945110321045,0.4384860098361969,-0.556872546672821
1782814947195287600,4.48028759765625,0.3815496265888214,0.6483466029167175,-0.3155438005924225
1782814947215370800,4.500370849609375,0.6026508212089539,0.8628399968147278,0.06671169400215149
1782814947235452700,4.52045263671875,0.7850638031959534,0.8492597937583923,0.3214547336101532
1782814947255535600,4.54053564453125,0.8880096673965454,0.5902406573295593,0.3929250240325928
1782814947275618600,4.56061865234375,0.8667410016059875,0.10694103688001633,0.333114355802536
1782814947295701500,4.580701416015625,0.7393624782562256,-0.32151418924331665,0.20841793715953827
1782814947315784400,4.600784423828125,0.6857236623764038,-0.44697707891464233,0.11186634004116058
1782814947335867600,4.62086767578125,0.707294225692749,-0.3716154098510742,0.11699498444795609
1782814947355949600,4.640949462890625,0.7240509390830994,-0.2122468799352646,0.20665234327316284
1782814947376032500,4.661032470703125,0.6926094889640808,-0.04757412523031235,0.2910299599170685
1782814947396115500,4.681115478515625,0.640657365322113,0.08111906796693802,0.2558231055736542
1782814947416198400,4.701198486328125,0.5985547304153442,0.17931197583675385,0.10563236474990845
1782814947436281300,4.72128125,0.5613508820533752,0.16236309707164764,-0.05596109479665756
1782814947456364500,4.741364501953125,0.4982469081878662,0.08094875514507294,-0.155542254447937
1782814947476447500,4.761447509765625,0.40649569034576416,-0.06529080122709274,-0.23095571994781494
1782814947496529700,4.78152978515625,0.2797177731990814,-0.2845408022403717,-0.3155641555786133
1782814947516612600,4.801612548828125,0.14843718707561493,-0.5641862154006958,-0.43876078724861145
1782814947536695600,4.821695556640625,0.0333474725484848,-0.7091841101646423,-0.5152826309204102
1782814947556778800,4.84177880859375,0.0014997693942859769,-0.6541160345077515,-0.40435242652893066
1782814947576861700,4.86186181640625,0.032755300402641296,-0.36370131373405457,-0.13606888055801392
1782814947596944600,4.881944580078125,0.11202307790517807,0.03912101313471794,0.10216882079839706
1782814947617026600,4.902026611328125,0.1898125410079956,0.31739261746406555,0.17241592705249786
1782814947637109500,4.922109619140625,0.25159671902656555,0.34129220247268677,0.07195274531841278
1782814947657192400,4.9421923828125,0.26412636041641235,0.23480474948883057,-0.07751595228910446
1782814947677275600,4.962275634765625,0.23798158764839172,0.028673145920038223,-0.17677858471870422
1782814947697358600,4.982358642578125,0.1971760243177414,-0.1412179321050644,-0.18849655985832214
1782814947717441500,5.002441650390625,0.14739292860031128,-0.2638319730758667,-0.15964078903198242
1782814947737523500,5.0225234375,0.08924425393342972,-0.3495842516422272,-0.13380257785320282
1782814947757606400,5.0426064453125,0.023893604055047035,-0.3671323359012604,-0.07539962232112885
1782814947777689300,5.062689453125,-0.06749452650547028,-0.32091888785362244,-0.011244356632232666
1782814947797772500,5.0827724609375,-0.15653139352798462,-0.22003187239170074,-0.011598864570260048
1782814947817855500,5.10285546875,-0.23892676830291748,-0.09841866791248322,-0.047172900289297104
1782814947837938400,5.1229384765625,-0.3185824155807495,-0.013562958687543869,-0.06495708227157593
1782814947858020600,5.1430205078125,-0.39282283186912537,0.01886669360101223,-0.047938793897628784
1782814947878103600,5.163103515625,-0.4396383762359619,0.03782063350081444,-0.016456298530101776
1782814947898186500,5.1831865234375,-0.4432559013366699,0.03051241859793663,0.02810247801244259
1782814947918269700,5.203269775390625,-0.42331650853157043,-0.06911324709653854,0.11439425498247147
1782814947938352600,5.2233525390625,-0.38609060645103455,-0.2825254499912262,0.27958378195762634
1782814947958435600,5.243435546875,-0.32257503271102905,-0.4579000174999237,0.45846012234687805
1782814947978518500,5.2635185546875,-0.25451716780662537,-0.47548505663871765,0.5672813057899475
1782814947998601000,5.28360107421875,-0.1820237636566162,-0.40313440561294556,0.5641989707946777
1782814948018684000,5.303683837890625,-0.09885649383068085,-0.3342265188694,0.4304470419883728
1782814948039393000,5.32439306640625,-0.06742766499519348,-0.44679316878318787,0.19726406037807465
1782814948059476000,5.34447607421875,-0.07200411707162857,-0.43248751759529114,0.05839298292994499
1782814948079559000,5.364558837890625,-0.07238893210887909,-0.2471318244934082,0.014070330187678337
1782814948099641900,5.384641845703125,-0.0432378388941288,-0.11275753378868103,-0.03258142247796059
1782814948119725000,5.40472509765625,0.011324075981974602,-0.10873939096927643,-0.06303662806749344
1782814948139808000,5.42480810546875,0.07311826199293137,-0.11873272806406021,0.0041452134028077126
1782814948159890000,5.444889892578125,0.15916916728019714,-0.12441634386777878,0.14753203094005585
1782814948179972900,5.464972900390625,0.26332801580429077,-0.07441973686218262,0.2850480079650879
1782814948200055800,5.485055908203125,0.3632488548755646,-0.02196522057056427,0.3547770380973816
1782814948220138800,5.505138671875,0.44151443243026733,0.0033110324293375015,0.3651334047317505
1782814948240222000,5.525221923828125,0.49141037464141846,-0.045831769704818726,0.34502044320106506
1782814948260305000,5.545304931640625,0.49044269323349,-0.13365671038627625,0.3252735137939453
1782814948280386800,5.56538671875,0.46170857548713684,-0.19060949981212616,0.28737497329711914
1782814948300469800,5.5854697265625,0.4116036295890808,-0.19671599566936493,0.20969179272651672
1782814948320552700,5.605552734375,0.35579678416252136,-0.09120415151119232,0.14648687839508057
1782814948340636000,5.625635986328125,0.3110945224761963,0.11565963923931122,0.12038855254650116
1782814948360718800,5.64571875,0.3006720244884491,0.3617289066314697,0.1259148269891739
1782814948380174800,5.6651748046875,0.31700196862220764,0.5727639198303223,0.12620265781879425
1782814948400257800,5.6852578125,0.35655081272125244,0.722608208656311,0.13148359954357147
1782814948420340700,5.7053408203125,0.3912540376186371,0.7878576517105103,0.1660701036453247
1782814948440424000,5.725423828125,0.39729446172714233,0.7384618520736694,0.20862405002117157
1782814948460507000,5.7455068359375,0.3816350996494293,0.6460970044136047,0.24727089703083038
1782814948480588800,5.7655888671875,0.32955244183540344,0.48613905906677246,0.2057211995124817
1782814948500671700,5.785671630859375,0.28429165482521057,0.2694852650165558,0.06608788669109344
1782814948520754700,5.805754638671875,0.23877401649951935,0.07201647758483887,-0.12729384005069733
1782814948540838000,5.825837890625,0.17044775187969208,-0.06674395501613617,-0.298354834318161
1782814948560920800,5.8459208984375,0.12188152223825455,-0.04162793606519699,-0.35813993215560913
1782814948581004000,5.866004150390625,0.14162828028202057,0.14814460277557373,-0.27647432684898376
1782814948601086000,5.8860859375,0.2472209334373474,0.3715988099575043,-0.1227203756570816
1782814948621169000,5.9061689453125,0.37146151065826416,0.44278693199157715,0.02333257347345352
1782814948641251800,5.926251953125,0.4483315944671631,0.38007834553718567,0.11153063178062439
1782814948661335000,5.9463349609375,0.465608149766922,0.2772288918495178,0.13285097479820251
1782814948681418000,5.96641796875,0.448163777589798,0.16276021301746368,0.07891319692134857
1782814948701501000,5.9865009765625,0.4154418110847473,0.051785003393888474,-0.05098145827651024
1782814948721582800,6.006582763671875,0.37682974338531494,-0.0023958138190209866,-0.19976915419101715
1782814948741665800,6.026665771484375,0.34563809633255005,0.04930863901972771,-0.3044634759426117
1782814948761748700,6.046748779296875,0.33284297585487366,0.10891537368297577,-0.3379557132720947
1782814948781832000,6.06683203125,0.3525068461894989,0.10616276413202286,-0.3167736530303955
1782814948801915000,6.086914794921875,0.407981276512146,0.06163949891924858,-0.2652857005596161
1782814948821997800,6.106997802734375,0.4551370441913605,0.0011610514484345913,-0.2107064574956894
1782814948842080000,6.127080078125,0.4961349368095398,-0.017873795703053474,-0.14808513224124908
1782814948862163000,6.147162841796875,0.5207987427711487,0.026620369404554367,-0.10169970989227295
1782814948882246000,6.167245849609375,0.5476135015487671,0.08591102063655853,-0.11323997378349304
1782814948902329000,6.1873291015625,0.5703213214874268,0.0989287719130516,-0.16339321434497833
1782814948922412000,6.207412109375,0.5712509751319885,0.07947319746017456,-0.19058431684970856
1782814948942495000,6.227494873046875,0.5658363103866577,0.049177996814250946,-0.1677091270685196
1782814948962577000,6.247576904296875,0.5701913237571716,0.05979105085134506,-0.12005604058504105
1782814948982659800,6.267659912109375,0.592168927192688,0.08098644763231277,-0.09270988404750824
1782814949002742500,6.287742431640625,0.6244034171104431,0.0972956046462059,-0.0856483057141304
1782814949022825700,6.30782568359375,0.6428145170211792,0.08777795732021332,-0.07872575521469116
1782814949042908700,6.32790869140625,0.6526820659637451,0.07763725519180298,-0.06440021842718124
1782814949062991600,6.34799169921875,0.6442887187004089,0.06278977543115616,-0.06910151243209839
1782814949083073500,6.368073486328125,0.6373357176780701,0.06548153609037399,-0.07623913139104843
1782814949103156500,6.388156494140625,0.6408604979515076,0.09519967436790466,-0.06466672569513321
1782814949123239700,6.40823974609375,0.6539239287376404,0.12784893810749054,-0.020138336345553398
1782814949143322600,6.428322509765625,0.6611450910568237,0.05579133704304695,-0.012137243524193764
1782814949163405600,6.448405517578125,0.6646988987922668,-0.12699048221111298,-0.06256459653377533
1782814949183488500,6.468488525390625,0.6576247215270996,-0.09141170978546143,-0.03512771055102348
1782814949203570700,6.48857080078125,0.6865274310112,0.10103563219308853,0.07241541147232056
1782814949223653600,6.508653564453125,0.7867861390113831,0.30049455165863037,0.18719640374183655
1782814949243736800,6.52873681640625,0.9230068325996399,0.35455405712127686,0.26586779952049255
1782814949263819800,6.54881982421875,1.059905767440796,0.2659863829612732,0.30186277627944946
1782814949283902700,6.56890283203125,1.1792503595352173,0.14432089030742645,0.32058796286582947
1782814949303985700,6.588985595703125,1.2720155715942383,0.07978161424398422,0.31235405802726746
1782814949324067600,6.609067626953125,1.3567354679107666,0.1103999987244606,0.26418113708496094
1782814949344150500,6.629150634765625,1.4414842128753662,0.21627718210220337,0.16153700649738312
1782814949364233700,6.649233642578125,1.5337527990341187,0.3432096242904663,0.008600878529250622
1782814949384316700,6.669316650390625,1.644503116607666,0.4509415626525879,-0.1231551393866539
1782814949404399600,6.689399658203125,1.7658156156539917,0.4646398425102234,-0.16581378877162933
1782814949424481500,6.7094814453125,1.91829514503479,0.35806381702423096,-0.13031700253486633
1782814949444564500,6.729564453125,2.1310818195343018,0.21560408174991608,-0.12560176849365234
1782814949464647400,6.7496474609375,2.312528371810913,0.08948327600955963,-0.12449155002832413
1782814949484730600,6.769730712890625,2.4075767993927,0.04245264083147049,-0.06409262120723724
1782814949504813600,6.7898134765625,2.43843936920166,0.10402200371026993,-0.014373304322361946
1782814949524896500,6.809896484375,2.4577698707580566,0.24398593604564667,-0.025484630838036537
1782814949544978700,6.829978759765625,2.507580041885376,0.39958688616752625,-0.10403569042682648
1782814949565061600,6.8500615234375,2.551830291748047,0.5091029405593872,-0.19100815057754517
1782814949585144600,6.87014453125,2.5541086196899414,0.5263003706932068,-0.22792963683605194
1782814949605227800,6.890227783203125,2.5237314701080322,0.517565906047821,-0.19339434802532196
1782814949625310700,6.910310791015625,2.4918465614318848,0.519803524017334,-0.09511901438236237
1782814949645393700,6.9303935546875,2.4868712425231934,0.5203608274459839,0.0337958037853241
1782814949665475600,6.9504755859375,2.494408369064331,0.5334179401397705,0.13422030210494995
1782814949685558500,6.97055859375,2.4899256229400635,0.5732669830322266,0.13928113877773285
1782814949705641700,6.990641845703125,2.4439516067504883,0.6031943559646606,0.05155613645911217
1782814949725724700,7.010724609375,2.3885960578918457,0.6382121443748474,-0.06570056825876236
1782814949745807600,7.0308076171875,2.357311964035034,0.6621358394622803,-0.14986318349838257
1782814949765889500,7.0508896484375,2.3802146911621094,0.6537455916404724,-0.16060703992843628
1782814949785972500,7.070972412109375,2.4720358848571777,0.5841456055641174,-0.1186026856303215
1782814949806055400,7.091055419921875,2.6056296825408936,0.5020565390586853,-0.07550275325775146
1782814949826138600,7.111138671875,2.6884210109710693,0.4643293619155884,-0.06288348883390427
1782814949846221600,7.1312216796875,2.65262508392334,0.4964620769023895,-0.05820845067501068
1782814949866304500,7.151304443359375,2.5895113945007324,0.601607620716095,-0.05522686988115311
1782814949886386700,7.17138671875,2.574972629547119,0.7480400204658508,-0.08124376833438873
1782814949906469600,7.1914697265625,2.6023976802825928,0.8915529251098633,-0.15469467639923096
1782814949926552600,7.211552490234375,2.6155545711517334,0.9863322973251343,-0.2682085335254669
1782814949946635800,7.2316357421875,2.579132556915283,1.005185842514038,-0.352215439081192
1782814949966718700,7.25171875,2.5253429412841797,0.9464436173439026,-0.3796127140522003
1782814949986800600,7.271800537109375,2.472730875015259,0.8514649271965027,-0.3677946627140045
1782814950006884000,7.291884033203125,2.4533610343933105,0.749563455581665,-0.31857234239578247
1782814950026967000,7.311967041015625,2.4303441047668457,0.6256411671638489,-0.24655219912528992
1782814950047050000,7.332050048828125,2.37542724609375,0.49628686904907227,-0.18205825984477997
1782814950067133000,7.3521328125,2.2915329933166504,0.36489617824554443,-0.11242003738880157
1782814950087214800,7.37221484375,2.1785295009613037,0.3087121248245239,-0.04738549143075943
1782814950107297800,7.3922978515625,2.079484462738037,0.3458266258239746,-0.01591360569000244
1782814950127381000,7.412381103515625,1.9829379320144653,0.3818871080875397,-0.03062969632446766
1782814950147464000,7.4324638671875,1.8644553422927856,0.3625144362449646,-0.07016202807426453
1782814950167547000,7.452546875,1.7246708869934082,0.3422180712223053,-0.07138656079769135
1782814950187629800,7.4726298828125,1.5917482376098633,0.339157372713089,-0.04143865406513214
1782814950207712000,7.4927119140625,1.460241675376892,0.32251879572868347,-0.010696892626583576
1782814950227795200,7.512795166015625,1.3491299152374268,0.2777421176433563,-0.012593412771821022
1782814950247878100,7.532878173828125,1.2843056917190552,0.2458009570837021,-0.040537092834711075
1782814950267961000,7.552961181640625,1.2251847982406616,0.19333414733409882,-0.03540130332112312
1782814950288044000,7.5730439453125,1.1344218254089355,0.123904287815094,0.03062177635729313
1782814950308126000,7.5931259765625,1.0451098680496216,0.09870351105928421,0.09416867792606354
1782814950328209000,7.613208984375,0.9618064761161804,0.10364053398370743,0.05597730353474617
1782814950348292000,7.6332919921875,0.8675159215927124,0.12645655870437622,-0.045841094106435776
1782814950368375000,7.653375,0.7450114488601685,0.10652391612529755,-0.11395566910505295
1782814950388458000,7.6734580078125,0.6179589629173279,0.04643094539642334,-0.12220124155282974
1782814950408540000,7.693539794921875,0.5302702188491821,0.018847625702619553,-0.11770610511302948
1782814950428622800,7.713622802734375,0.4503839313983917,0.007940512150526047,-0.12716494500637054
1782814950448705800,7.733705810546875,0.37085777521133423,-0.00617027934640646,-0.13458174467086792
1782814950468789000,7.7537890625,0.30124008655548096,-0.011839199811220169,-0.14827373623847961
1782814950488872000,7.773871826171875,0.24915476143360138,-0.046496715396642685,-0.15969717502593994
1782814950508954000,7.7939541015625,0.2014860063791275,-0.04481798782944679,-0.14806094765663147
1782814950529037000,7.814037109375,0.1405957192182541,0.022860201075673103,-0.14033256471157074
1782814950549120000,7.8341201171875,0.07974892854690552,0.10305389761924744,-0.16305305063724518
1782814950569203000,7.854202880859375,0.035483330488204956,0.13189835846424103,-0.18227778375148773
1782814950589286100,7.8742861328125,-0.006180045660585165,-0.00795404240489006,-0.237031951546669
1782814950609368000,7.8943681640625,-0.0486261248588562,-0.22284071147441864,-0.3280363380908966
1782814950629451000,7.914450927734375,-0.12420890480279922,-0.3591553568840027,-0.3544579744338989
1782814950649534000,7.934533935546875,-0.17560315132141113,-0.45915597677230835,-0.26755186915397644
1782814950669617000,7.954616943359375,-0.19827187061309814,-0.5091120600700378,-0.13030874729156494
1782814950689700000,7.9747001953125,-0.17796815931797028,-0.6712475419044495,-0.04139474779367447
1782814950709782000,7.994781982421875,-0.1362421065568924,-0.6861017942428589,0.08831413835287094
1782814950729865000,8.014864990234376,-0.14342549443244934,-0.5902619361877441,0.21224921941757202
1782814950749948000,8.034947998046874,-0.0576716773211956,-0.3708001673221588,0.2551674246788025
1782814950770030800,8.05503076171875,0.058397285640239716,-0.17383825778961182,0.16415660083293915
1782814950790114000,8.075114013671875,0.12000180780887604,0.06680828332901001,0.11005517840385437
1782814950810196000,8.095196044921876,0.15976069867610931,0.1771794557571411,0.16251210868358612
1782814950830279200,8.115279052734374,0.10875271260738373,0.06292343139648438,0.17715395987033844
1782814950850362000,8.135362060546875,0.04543732479214668,-0.1411593109369278,0.02931935526430607
1782814950870445000,8.155445068359375,-0.006792152766138315,-0.4271475076675415,-0.21706804633140564
1782814950890528000,8.175528076171876,-0.03830239921808243,-0.6504642963409424,-0.2926531732082367
1782814950910610000,8.19560986328125,-0.024714501574635506,-0.5870370864868164,-0.1562443971633911
1782814950930692900,8.21569287109375,-0.02374100312590599,-0.26837077736854553,-0.012889953330159187
1782814950950776000,8.235776123046875,-0.04732127860188484,0.12107401341199875,0.03133402392268181
1782814950970859000,8.25585888671875,-0.02797386422753334,0.3621412217617035,-0.008036716841161251
1782814950990941700,8.275941650390624,-0.008426064625382423,0.5153464078903198,-0.03446827456355095
1782814951011024000,8.29602392578125,-0.05414650961756706,0.7026708722114563,-0.02282092720270157
1782814951031106800,8.31610693359375,-0.10412715375423431,0.5773364305496216,-0.03518050163984299
1782814951051190000,8.33618994140625,-0.03754030168056488,0.1725674420595169,-0.057280682027339935
1782814951071273000,8.35627294921875,0.09213380515575409,-0.025589581578969955,-0.041584812104701996
1782814951091356000,8.37635595703125,0.2405170053243637,-0.04937790334224701,-0.0232023186981678
1782814951111437800,8.396437744140625,0.36634692549705505,-0.04428781569004059,-0.006351598538458347
1782814951131520800,8.416520751953126,0.47564318776130676,-0.17218349874019623,0.05521339923143387
1782814951151603700,8.436603759765624,0.5525043606758118,-0.30328091979026794,0.15823547542095184
1782814951171687000,8.45668701171875,0.5265085101127625,-0.3390270471572876,0.21881990134716034
1782814951191769900,8.476769775390625,0.4360066056251526,-0.31261059641838074,0.18063388764858246
1782814951211851800,8.496851806640626,0.3086404800415039,-0.1388179212808609,0.0935615673661232
1782814951231934700,8.516934814453125,0.19511637091636658,0.15648867189884186,0.024182677268981934
1782814951252017700,8.537017578125,0.1171705350279808,0.3606630265712738,-0.05252017825841904
1782814951272100600,8.5571005859375,0.09245811402797699,0.3420335352420807,-0.15457861125469208
1782814951292183800,8.577183837890624,0.07806586474180222,0.2544500231742859,-0.23524296283721924
1782814951312266000,8.597265869140625,0.06097409129142761,0.30342137813568115,-0.27949267625808716
1782814951332349000,8.617348876953125,0.045870713889598846,0.3349929749965668,-0.3425610065460205
1782814951352431900,8.637431884765626,0.05431898683309555,0.1970859169960022,-0.385971337556839
1782814951372514800,8.657514892578124,0.08951601386070251,0.04380637779831886,-0.2845900058746338
1782814951392596700,8.6775966796875,0.1832040250301361,0.129037544131279,-0.006678791716694832
1782814951412680000,8.697679931640625,0.3071235418319702,0.2766607701778412,0.30174535512924194
1782814951432763000,8.717762939453126,0.38003644347190857,0.29343166947364807,0.5214835405349731
1782814951452845800,8.737845703125,0.36335793137550354,0.20826676487922668,0.6046987771987915
1782814951472928800,8.7579287109375,0.3279539942741394,0.12154655903577805,0.5754001140594482
1782814951493010700,8.7780107421875,0.29810693860054016,-0.01404031366109848,0.4677285850048065
1782814951513093600,8.79809375,0.25885817408561707,-0.10528302192687988,0.3466881215572357
1782814951533176800,8.8181767578125,0.20043472945690155,-0.10993868112564087,0.22803989052772522
1782814951553259800,8.838259765625,0.148664191365242,-0.0953705906867981,0.18345902860164642
1782814951573342000,8.858342041015625,0.09306458383798599,-0.08605039119720459,0.19634561240673065
1782814951593425000,8.8784248046875,0.025052551180124283,-0.050201717764139175,0.21085789799690247
1782814951613507800,8.8985078125,-0.040774866938591,-0.016906961798667908,0.1938103437423706
1782814951633590800,8.9185908203125,-0.09360316395759583,-0.0038135407958179712,0.17109839618206024
1782814951653674000,8.938674072265625,-0.10342517495155334,0.06629051268100739,0.17847156524658203
1782814951673756000,8.958755859375,-0.08120398223400116,0.1160331591963768,0.1854787915945053
1782814951693838800,8.9788388671875,-0.06937488913536072,0.12368817627429962,0.1565771996974945
1782814951713921800,8.998921875,-0.0915636271238327,0.06579207628965378,0.08219747245311737
1782814951734004700,9.019004638671875,-0.12814746797084808,-0.07129320502281189,0.008696776814758778
1782814951754087700,9.039087646484376,-0.14804773032665253,-0.15739165246486664,-0.05117883160710335
1782814951774169900,9.059169921875,-0.15506108105182648,-0.154496431350708,-0.11644759774208069
1782814951794252800,9.079252685546875,-0.1651153564453125,-0.12868724763393402,-0.19776535034179688
1782814951814335700,9.099335693359375,-0.17243662476539612,-0.10698089003562927,-0.2242850810289383
1782814951834418700,9.119418701171876,-0.16004620492458344,-0.06805847585201263,-0.13224859535694122
1782814951854500900,9.1395009765625,-0.13652034103870392,0.020403731614351273,0.0255607720464468
1782814951874583800,9.159583740234375,-0.10373875498771667,0.01845983788371086,0.1090652272105217
1782814951894667000,9.1796669921875,-0.06588401645421982,-0.05518995225429535,0.10222713649272919
1782814951914750000,9.19975,-0.04469531774520874,-0.14306902885437012,0.09993136674165726
1782814951934833000,9.2198330078125,-0.06660018116235733,-0.19430729746818542,0.11352575570344925
1782814951954914800,9.239914794921875,-0.09947007149457932,-0.18943141400814056,0.0860491394996643
1782814951974997800,9.259997802734375,-0.11177510023117065,-0.1859498918056488,-0.0040222960524261
1782814951995080200,9.280080078125,-0.11180417239665985,-0.20375990867614746,-0.08733601123094559
1782814952015163100,9.3001630859375,-0.10647232085466385,-0.12344400584697723,-0.08713500946760178
1782814952035274200,9.320274169921875,-0.11595354974269867,0.003147109877318144,-0.08058072626590729
1782814952055328300,9.340328369140625,-0.10949938744306564,0.11481831222772598,-0.11832498759031296
1782814952075410200,9.36041015625,-0.08449973911046982,0.09531306475400925,-0.1615949273109436
1782814952095493000,9.3804931640625,-0.07047431915998459,-0.030842920765280724,-0.1737263798713684
1782814952115576300,9.400576416015625,-0.06943771243095398,-0.13602443039417267,-0.1464451551437378
1782814952135659300,9.4206591796875,-0.045207999646663666,-0.10652864724397659,-0.14309054613113403
1782814952155742200,9.4407421875,-0.02005014754831791,-0.0721965804696083,-0.18304185569286346
1782814952175824100,9.46082421875,0.005739870481193066,-0.03778180852532387,-0.19168871641159058
1782814952195907000,9.480906982421875,0.039763253182172775,-0.02987978421151638,-0.12280471622943878
1782814952215990000,9.500989990234375,0.06987421214580536,-0.035996321588754654,-0.01630306802690029
1782814952236073200,9.5210732421875,0.09634898602962494,-0.024264773353934288,0.060901664197444916
1782814952256155100,9.541155029296876,0.11013191938400269,0.05617374926805496,0.081885926425457
1782814952276238000,9.561238037109375,0.11144596338272095,0.14915327727794647,0.06115880236029625
1782814952296321300,9.5813212890625,0.12444005906581879,0.18426285684108734,0.056438274681568146
1782814952316404200,9.601404296875,0.1637263298034668,0.2108761966228485,0.08383796364068985
1782814952336486100,9.621486083984376,0.21364851295948029,0.17103606462478638,0.10415568947792053
1782814952356569300,9.6415693359375,0.24079099297523499,-0.1051587164402008,0.07722529768943787
1782814952376652300,9.66165234375,0.23200051486492157,-0.2704736590385437,0.029023518785834312
1782814952396735200,9.6817353515625,0.21305283904075623,-0.13272729516029358,-0.0249185711145401
1782814952416818200,9.701818115234374,0.1771942526102066,0.03061387501657009,-0.10721542686223984
1782814952436900000,9.721900146484375,0.1841811090707779,0.15354976058006287,-0.17273937165737152
1782814952456983000,9.741983154296875,0.2118091732263565,0.19196003675460815,-0.2244197428226471
1782814952477066200,9.762066162109376,0.24765923619270325,0.2179315984249115,-0.2345392107963562
1782814952497149200,9.782149169921874,0.3023931682109833,0.29194483160972595,-0.17720893025398254
1782814952517231000,9.802231201171875,0.34550487995147705,0.36272647976875305,-0.07892705500125885
1782814952537314300,9.822314208984375,0.3738619089126587,0.384924978017807,0.0052631571888923645
1782814952557397200,9.842397216796876,0.42295682430267334,0.2992483377456665,0.04664802551269531
1782814952577480200,9.862480224609374,0.4395536482334137,0.20379133522510529,0.08706708252429962
1782814952597562000,9.88256201171875,0.42159250378608704,0.11964229494333267,0.11919716745615005
1782814952617645300,9.902645263671875,0.3997904360294342,0.10218144208192825,0.15488699078559875
1782814952637728300,9.922728271484376,0.3787153959274292,0.13233518600463867,0.1768368035554886
1782814952657811200,9.942811279296874,0.36639970541000366,0.1110304519534111,0.1781170666217804
1782814952677894100,9.96289404296875,0.3466686010360718,0.08181559294462204,0.19147999584674835
1782814952697976000,9.98297607421875,0.31205084919929504,0.0647512823343277,0.2070986032485962
1782814952718059000,10.00305908203125,0.2714175581932068,0.04690234735608101,0.21513931453227997
1782814952738142200,10.02314208984375,0.24020247161388397,0.05540531873703003,0.21483999490737915
1782814952758225200,10.04322509765625,0.2130119651556015,0.057111117988824844,0.19626955687999725
1782814952778307000,10.06330712890625,0.18078291416168213,0.04544706642627716,0.17249572277069092
1782814952798390300,10.083390380859376,0.12945619225502014,0.010236062109470367,0.14213448762893677
1782814952818473200,10.10347314453125,0.08018187433481216,-0.0383293554186821,0.09746745228767395
1782814952838556400,10.123556396484375,0.045197535306215286,-0.0672154575586319,0.05654760077595711
1782814952858638300,10.143638427734375,0.031797707080841064,-0.08296855539083481,0.049299370497465134
1782814952878721300,10.16372119140625,-0.035293444991111755,-0.13039472699165344,0.04223966971039772
1782814952898804200,10.18380419921875,-0.15745078027248383,-0.20829951763153076,-0.03441211208701134
1782814952918887200,10.20388720703125,-0.23835687339305878,-0.19623291492462158,-0.18285338580608368
1782814952938970000,10.22397021484375,-0.24926771223545074,-0.05265927314758301,-0.28102827072143555
1782814952959052000,10.244052001953126,-0.25287312269210815,0.14410565793514252,-0.24819913506507874
1782814952979135200,10.26413525390625,-0.2771926522254944,0.34907567501068115,-0.07157823443412781
1782814952999218400,10.284218505859375,-0.2987017035484314,0.17900195717811584,-0.0018788131419569254
1782814953019301400,10.30430126953125,-0.27586185932159424,0.06550753116607666,0.010936194099485874
1782814953039383300,10.32438330078125,-0.24209631979465485,0.06406014412641525,-0.037962041795253754
1782814953059466200,10.34446630859375,-0.23068326711654663,0.03799743950366974,-0.16045038402080536
