time,seconds_elapsed,z,y,x
1782815046824166700,0.057166748046875,-0.5878849029541016,0.0631682425737381,-0.02541557140648365
1782815046844248600,0.07724853515625,-0.5397441983222961,0.050296880304813385,-0.034998152405023575
1782815046864330500,0.09733056640625,-0.4759678542613983,0.21968817710876465,-0.13072790205478668
1782815046884412400,0.117412353515625,-0.40961921215057373,0.27605539560317993,-0.20791174471378326
1782815046904494600,0.13749462890625,-0.3333035707473755,0.2265593409538269,-0.19676491618156433
1782815046924576500,0.157576416015625,-0.3451458811759949,0.21398887038230896,-0.12185109406709671
1782815046944658400,0.177658447265625,-0.3766241669654846,0.2000909000635147,-0.12770098447799683
1782815046964740600,0.19774072265625,-0.32810041308403015,0.2494455873966217,-0.12147684395313263
1782815046984822500,0.217822509765625,-0.2159172147512436,0.20521897077560425,-0.01896997168660164
1782815047004904400,0.237904541015625,-0.1061788871884346,-0.08165182918310165,0.1631612777709961
1782815047024986600,0.257986572265625,-0.016131296753883362,-0.4279135465621948,0.3306811451911926
1782815047045068500,0.278068603515625,-0.010737467557191849,-0.637311577796936,0.39579716324806213
1782815047065150500,0.298150390625,-0.07873416692018509,-0.6557608842849731,0.347520649433136
1782815047085232400,0.318232421875,-0.1199197918176651,-0.40047693252563477,0.2784837782382965
1782815047105314600,0.338314453125,-0.0797010064125061,-0.05482291802763939,0.2193853259086609
1782815047125396500,0.358396484375,-0.03840035945177078,0.2715209126472473,0.2548922002315521
1782815047145478400,0.378478515625,-0.054649509489536285,0.35397201776504517,0.3701038956642151
1782815047165560600,0.398560546875,-0.12483663856983185,0.23071573674678802,0.5040813088417053
1782815047185642500,0.418642578125,-0.1827363818883896,0.0436311736702919,0.5726707577705383
1782815047205725400,0.438725341796875,-0.20399565994739532,-0.09720012545585632,0.5346568822860718
1782815047225807400,0.458807373046875,-0.2041812390089035,-0.16005247831344604,0.41433918476104736
1782815047245889500,0.4788896484375,-0.21273048222064972,-0.1830928921699524,0.2957141101360321
1782815047265971500,0.498971435546875,-0.26086655259132385,-0.24999059736728668,0.24015893042087555
1782815047286053400,0.519053466796875,-0.3116265833377838,-0.33831480145454407,0.2210068553686142
1782815047306135300,0.53913525390625,-0.34591642022132874,-0.42590928077697754,0.1606038212776184
1782815047326217500,0.559217529296875,-0.3201526701450348,-0.40372127294540405,0.05228595808148384
1782815047346299400,0.57929931640625,-0.2745831310749054,-0.31591278314590454,-0.08316018432378769
1782815047366381300,0.59938134765625,-0.1912318766117096,-0.17483314871788025,-0.21029195189476013
1782815047386463500,0.61946337890625,-0.11768025904893875,-0.11783106625080109,-0.2432607114315033
1782815047406545400,0.63954541015625,-0.07719725370407104,-0.01451487373560667,-0.14601288735866547
1782815047426627300,0.65962744140625,-0.07272536307573318,0.06766019761562347,-0.03232963755726814
1782815047446709500,0.67970947265625,-0.06677518784999847,0.11403549462556839,-0.008442556485533714
1782815047466791400,0.69979150390625,-0.04187968000769615,0.09475291520357132,-0.09366597980260849
1782815047486873300,0.719873291015625,-0.02017693780362606,-0.051455698907375336,-0.2504937946796417
1782815047506955300,0.739955322265625,-0.014453375712037086,-0.2042379081249237,-0.380430668592453
1782815047527037400,0.760037353515625,-0.040896352380514145,-0.24915149807929993,-0.424343079328537
1782815047547119400,0.780119384765625,-0.05859766900539398,-0.18344154953956604,-0.41665658354759216
1782815047567201300,0.800201171875,-0.0631018579006195,-0.0818975642323494,-0.4056839346885681
1782815047587283500,0.820283447265625,-0.09043637663125992,-0.041629623621702194,-0.4496653079986572
1782815047607365400,0.840365478515625,-0.1298663467168808,-0.07145839184522629,-0.5453774333000183
1782815047627447300,0.860447265625,-0.14487329125404358,-0.07086485624313354,-0.6060575246810913
1782815047647529500,0.880529541015625,-0.12932537496089935,0.04059608653187752,-0.5995760560035706
1782815047667612700,0.90061279296875,-0.12667407095432281,0.13638785481452942,-0.5661190152168274
1782815047687694600,0.920694580078125,-0.1361401379108429,0.14150698482990265,-0.5445982813835144
1782815047707776500,0.940776611328125,-0.1407942920923233,0.10297724604606628,-0.5527886748313904
1782815047727858400,0.9608583984375,-0.09630090743303299,0.0027892817743122578,-0.574418842792511
1782815047747940600,0.980940673828125,-0.03633697330951691,-0.10351882129907608,-0.5401242971420288
1782815047768022500,1.0010224609375,-0.006680476479232311,-0.22801384329795837,-0.46526944637298584
1782815047788104400,1.0211044921875,-0.020248884335160255,-0.33597418665885925,-0.39891237020492554
1782815047808186600,1.0411865234375,-0.03252516686916351,-0.3628721833229065,-0.3739485442638397
1782815047828268500,1.0612685546875,-0.0697571411728859,-0.2236071527004242,-0.34796175360679626
1782815047848350500,1.0813505859375,-0.15954747796058655,-0.0897999256849289,-0.30126696825027466
1782815047868432600,1.1014326171875,-0.2517128586769104,-0.04873169958591461,-0.1976635605096817
1782815047888514600,1.1215146484375,-0.3214627206325531,0.037268273532390594,0.00912575051188469
1782815047908596500,1.141596435546875,-0.35002827644348145,0.027370601892471313,0.166843980550766
1782815047928678400,1.161678466796875,-0.36548012495040894,-0.05619623512029648,0.1996457874774933
1782815047948760600,1.181760498046875,-0.3625522553920746,-0.055149421095848083,0.1578284651041031
1782815047968842500,1.201842529296875,-0.3438725769519806,0.04578053951263428,0.1190086156129837
1782815047988924400,1.22192431640625,-0.29601389169692993,0.11231011152267456,0.12079737335443497
1782815048009006600,1.242006591796875,-0.2695842385292053,-0.06413797289133072,0.09823622554540634
1782815048029088500,1.262088623046875,-0.24419492483139038,-0.25335580110549927,0.06978173553943634
1782815048049170400,1.28217041015625,-0.2225777953863144,-0.4000445008277893,0.023820526897907257
1782815048069252600,1.302252685546875,-0.21141503751277924,-0.5198032259941101,-0.059257566928863525
1782815048089333800,1.322333740234375,-0.16901378333568573,-0.38914695382118225,-0.11773259937763214
1782815048109415700,1.342415771484375,-0.09452712535858154,-0.05486054718494415,-0.06384876370429993
1782815048129497900,1.362497802734375,-0.027648217976093292,0.34000569581985474,0.14462319016456604
1782815048149579800,1.382579833984375,-0.0007785539492033422,0.4311981201171875,0.3472513258457184
1782815048169661700,1.40266162109375,0.023925378918647766,0.2667694091796875,0.45180976390838623
1782815048189743900,1.422743896484375,0.05982214957475662,-0.04246201366186142,0.4435780346393585
1782815048209825800,1.44282568359375,0.11977250128984451,-0.30324384570121765,0.4048619866371155
1782815048229907700,1.46290771484375,0.15074601769447327,-0.42542755603790283,0.3931688368320465
1782815048249990700,1.48299072265625,0.08150996267795563,-0.44600874185562134,0.4150941073894501
1782815048270072600,1.503072509765625,-0.05779186263680458,-0.410505086183548,0.43415379524230957
1782815048290154800,1.52315478515625,-0.19507737457752228,-0.2255355715751648,0.43755820393562317
1782815048310236700,1.543236572265625,-0.31178081035614014,0.02063622884452343,0.42609599232673645
1782815048330318600,1.563318603515625,-0.39358747005462646,0.24614012241363525,0.3786984086036682
1782815048350400800,1.58340087890625,-0.4536777436733246,0.3805501163005829,0.3132305443286896
1782815048370482700,1.603482666015625,-0.5211700201034546,0.38890689611434937,0.235226571559906
1782815048390564600,1.623564697265625,-0.5972887277603149,0.3229215443134308,0.14770939946174622
1782815048410646800,1.643646728515625,-0.6487276554107666,0.23866522312164307,0.01208170223981142
1782815048430728700,1.663728759765625,-0.6314022541046143,0.22910496592521667,-0.1445378065109253
1782815048450810600,1.683810546875,-0.573664665222168,0.28760984539985657,-0.25456252694129944
1782815048470892500,1.703892578125,-0.4821021854877472,0.2990912199020386,-0.33110663294792175
1782815048490974700,1.723974609375,-0.36763739585876465,0.26192706823349,-0.34968698024749756
1782815048511056600,1.744056640625,-0.24885529279708862,0.1670452207326889,-0.3170695900917053
1782815048531138600,1.764138671875,-0.10305983573198318,0.016409365460276604,-0.24411526322364807
1782815048551220700,1.784220703125,0.04208642616868019,-0.11065392196178436,-0.1378713697195053
1782815048571302700,1.804302734375,0.16756261885166168,-0.1870100200176239,-0.05587705969810486
1782815048591384600,1.824384521484375,0.2416864037513733,-0.19386906921863556,-0.03943140059709549
1782815048611466800,1.844466796875,0.28684911131858826,-0.1315893828868866,-0.08137556165456772
1782815048631548700,1.864548583984375,0.3193837106227875,-0.07699409127235413,-0.1435903012752533
1782815048651630600,1.884630615234375,0.33510032296180725,-0.03157433122396469,-0.17686527967453003
1782815048671712500,1.90471240234375,0.35287219285964966,-0.026407524943351746,-0.16221672296524048
1782815048691794700,1.924794677734375,0.37089109420776367,-0.027984004467725754,-0.12012873589992523
1782815048711876600,1.944876708984375,0.39125627279281616,-0.031300704926252365,-0.08692551404237747
1782815048731958500,1.96495849609375,0.3979324400424957,-0.0333285853266716,-0.07050900161266327
1782815048752040700,1.985040771484375,0.3974096477031708,-0.045438557863235474,-0.08598821610212326
1782815048772122600,2.00512255859375,0.3994474411010742,-0.05495639145374298,-0.13334718346595764
1782815048792204500,2.02520458984375,0.40789705514907837,-0.025227442383766174,-0.20484218001365662
1782815048812286700,2.04528662109375,0.419890433549881,0.033617500215768814,-0.24980349838733673
1782815048832368600,2.06536865234375,0.43511345982551575,0.0943605825304985,-0.23449602723121643
1782815048852450800,2.085450927734375,0.45398542284965515,0.12217339873313904,-0.16695214807987213
1782815048872532700,2.10553271484375,0.47581297159194946,0.08801302313804626,-0.09901997447013855
1782815048892615000,2.125614990234375,0.4930883049964905,0.09038642793893814,-0.03288685530424118
1782815048912696800,2.14569677734375,0.4940210282802582,0.06869706511497498,0.0027954094111919403
1782815048932778800,2.16577880859375,0.5070951581001282,0.09654590487480164,0.027968257665634155
1782815048952861700,2.18586181640625,0.5118847489356995,0.10301913321018219,0.07210191339254379
1782815048972944000,2.20594384765625,0.5059328675270081,0.1185150071978569,0.14022646844387054
1782815048993025800,2.22602587890625,0.4839476943016052,0.13334336876869202,0.23006393015384674
1782815049013107700,2.246107666015625,0.446980357170105,0.19173622131347656,0.3237195909023285
1782815049033190000,2.26618994140625,0.37158581614494324,-0.009022939950227737,0.30221277475357056
1782815049053271800,2.286271728515625,0.30654940009117126,-0.029050488024950027,0.23693692684173584
1782815049073353700,2.306353759765625,0.2465837299823761,0.2347010374069214,0.22390778362751007
1782815049093436000,2.326435791015625,0.19015812873840332,0.38247400522232056,0.1854458749294281
1782815049113518000,2.34651806640625,0.14871306717395782,0.3054824471473694,0.10173065215349197
1782815049133600000,2.36660009765625,0.10581384599208832,0.07495252788066864,-0.010085828602313995
1782815049153682000,2.386681884765625,0.07644480466842651,-0.1330270618200302,-0.12726014852523804
1782815049173764000,2.40676416015625,0.08549229055643082,-0.05657893419265747,-0.15155170857906342
1782815049193846000,2.426845947265625,0.11358367651700974,0.20312955975532532,-0.05618240311741829
1782815049213928000,2.446927978515625,0.12703707814216614,0.3599715232849121,0.10218800604343414
1782815049234009900,2.467009765625,0.14052197337150574,0.2990303635597229,0.22358772158622742
1782815049254092000,2.487092041015625,0.17086417973041534,0.08209969103336334,0.2620711326599121
1782815049274174000,2.507174072265625,0.2218124121427536,-0.049381472170352936,0.24225527048110962
1782815049294255900,2.527255859375,0.24091127514839172,-0.07731287181377411,0.1911858171224594
1782815049314338000,2.547338134765625,0.22030200064182281,-8.870847523212433e-7,0.11326120793819427
1782815049334420000,2.567419921875,0.1859215945005417,0.13922439515590668,0.022222451865673065
1782815049354502000,2.587501953125,0.1614987999200821,0.19144712388515472,-0.060763780027627945
1782815049374584000,2.607583984375,0.16203567385673523,0.14779314398765564,-0.10060863196849823
1782815049394666000,2.627666015625,0.176184743642807,0.09569934010505676,-0.07906310260295868
1782815049414748000,2.647747802734375,0.1736602634191513,0.018617207184433937,-0.0371222198009491
1782815049434829800,2.667829833984375,0.16262511909008026,-0.07087542861700058,-0.0064527858048677444
1782815049454912000,2.687912109375,0.15157337486743927,-0.1363019496202469,0.016071978956460953
1782815049474994000,2.707993896484375,0.12095042318105698,-0.13894109427928925,0.016218239441514015
1782815049495075800,2.728075927734375,0.07554947584867477,-0.09418680518865585,-0.037137869745492935
1782815049515158000,2.748157958984375,0.05496586486697197,-0.022378893569111824,-0.10907062143087387
1782815049535240000,2.768239990234375,0.05713651701807976,0.10249384492635727,-0.12724366784095764
1782815049555321900,2.78832177734375,0.05242076516151428,0.13552320003509521,-0.12027835100889206
1782815049575404000,2.808404052734375,0.04195413365960121,0.0632510632276535,-0.14025937020778656
1782815049595486000,2.82848583984375,0.05544595792889595,-0.02615240588784218,-0.2171405702829361
1782815049615568000,2.84856787109375,0.09383032470941544,-0.09996943920850754,-0.29578351974487305
1782815049635649800,2.86864990234375,0.13605298101902008,-0.17514647543430328,-0.33795011043548584
1782815049655732000,2.88873193359375,0.15585267543792725,-0.24282033741474152,-0.35349661111831665
1782815049675814000,2.90881396484375,0.155208021402359,-0.27317267656326294,-0.37609392404556274
1782815049695895800,2.928895751953125,0.14639121294021606,-0.16876091063022614,-0.3852490484714508
1782815049715978000,2.94897802734375,0.14438027143478394,0.10866434872150421,-0.3358669877052307
1782815049736060000,2.969059814453125,0.15566486120224,0.3560936152935028,-0.23426443338394165
1782815049756143000,2.98914306640625,0.18861857056617737,0.4577126204967499,-0.12296883016824722
1782815049776224300,3.009224365234375,0.22843627631664276,0.4922665059566498,-0.01942858099937439
1782815049796307200,3.02930712890625,0.2605939507484436,0.3832603693008423,0.04355594888329506
1782815049816389000,3.04938916015625,0.2683766186237335,0.1938139945268631,0.06686706095933914
1782815049836471000,3.069470947265625,0.26452332735061646,-0.017197491601109505,0.054059844464063644
1782815049856553000,3.089552978515625,0.2606731355190277,-0.13250473141670227,0.016396965831518173
1782815049876635100,3.10963525390625,0.2408246397972107,-0.1688677817583084,-0.03831517696380615
1782815049896717000,3.129717041015625,0.2103487253189087,-0.1794241964817047,-0.08825542032718658
1782815049916799000,3.149799072265625,0.16787225008010864,-0.16489388048648834,-0.11544870585203171
1782815049936881200,3.169881103515625,0.09676109999418259,-0.16564486920833588,-0.10374841094017029
1782815049956963000,3.189963134765625,0.020050369203090668,-0.1260964274406433,-0.05122744292020798
1782815049977045000,3.210044921875,-0.07290716469287872,-0.07433415949344635,0.024873219430446625
1782815049997127200,3.230127197265625,-0.15989288687705994,0.035796407610177994,0.07359211891889572
1782815050017209000,3.250208984375,-0.22291482985019684,0.11487453430891037,0.06181131303310394
1782815050037291000,3.270291015625,-0.2312549501657486,0.15432095527648926,0.03460383042693138
1782815050057373000,3.290373046875,-0.20134778320789337,0.10291910171508789,0.029023831710219383
1782815050077455000,3.310455078125,-0.1437160223722458,0.06903768330812454,0.0646827444434166
1782815050097537000,3.330537109375,-0.07721596956253052,0.031296003609895706,0.13203823566436768
1782815050117619000,3.350618896484375,0.0006292904727160931,-0.055422600358724594,0.19448523223400116
1782815050137701000,3.370701171875,0.10392434895038605,-0.1825025975704193,0.2458515167236328
1782815050157783000,3.390782958984375,0.22115667164325714,-0.2626444101333618,0.32472917437553406
1782815050177865000,3.410864990234375,0.28597182035446167,-0.3902392089366913,0.36162176728248596
1782815050197947100,3.430947021484375,0.30288591980934143,-0.584968626499176,0.2907160818576813
1782815050218029300,3.451029296875,0.33387473225593567,-0.5470557808876038,0.15342624485492706
1782815050238111200,3.471111328125,0.37680044770240784,-0.4551439583301544,0.006630212068557739
1782815050258193200,3.491193115234375,0.39049795269966125,-0.3987204432487488,-0.11070048809051514
1782815050278275300,3.511275390625,0.38253194093704224,-0.342681348323822,-0.1931617259979248
1782815050298357200,3.531357177734375,0.4103127121925354,-0.10935994237661362,-0.1977546215057373
1782815050318439200,3.551439208984375,0.4760217070579529,0.2040470838546753,-0.07554485648870468
1782815050338521300,3.571521240234375,0.5646020174026489,0.4034924805164337,0.12712104618549347
1782815050358603300,3.591603271484375,0.6275351047515869,0.39537325501441956,0.28206175565719604
1782815050378685200,3.611685302734375,0.6622030138969421,0.30453768372535706,0.38312625885009766
1782815050398767400,3.631767333984375,0.6994153261184692,0.08726648986339569,0.40609338879585266
1782815050418849300,3.651849365234375,0.7562050223350525,-0.015589317306876183,0.34334179759025574
1782815050438931200,3.67193115234375,0.7968208193778992,-0.008313407190144062,0.1411440074443817
1782815050459013000,3.69201318359375,0.8253554105758667,0.0804230198264122,-0.1830735057592392
1782815050479095300,3.71209521484375,0.8235216736793518,0.142062246799469,-0.44692641496658325
1782815050499177200,3.73217724609375,0.7818453311920166,0.176580548286438,-0.5006756782531738
1782815050519259100,3.752259033203125,0.7300416231155396,0.20086251199245453,-0.3448007106781006
1782815050539341300,3.77234130859375,0.7181271314620972,0.2502354085445404,-0.04211973026394844
1782815050559423200,3.79242333984375,0.7833846211433411,0.24175578355789185,0.2758742868900299
1782815050579505200,3.812505126953125,0.878672182559967,0.2088346630334854,0.4815053939819336
1782815050599587300,3.83258740234375,0.9556987285614014,0.25275856256484985,0.5463645458221436
1782815050619669200,3.852669189453125,0.9733656048774719,0.3512408435344696,0.5254971385002136
1782815050639751200,3.872751220703125,0.9306182861328125,0.4023641347885132,0.48092955350875854
1782815050659833000,3.8928330078125,0.8599979877471924,0.39158180356025696,0.4006490111351013
1782815050679915300,3.912915283203125,0.7834765315055847,0.32972216606140137,0.2041434794664383
1782815050699997200,3.9329970703125,0.736609697341919,0.17287303507328033,-0.06200805678963661
1782815050720079000,3.9530791015625,0.7255732417106628,0.0937652438879013,-0.2690582871437073
1782815050740161300,3.973161376953125,0.6919494271278381,0.05717402696609497,-0.37025368213653564
1782815050760243200,3.9932431640625,0.652690589427948,0.05127786472439766,-0.3914315402507782
1782815050780325000,4.0133251953125,0.652906596660614,0.14434754848480225,-0.33929523825645447
1782815050800407300,4.0334072265625,0.6728090047836304,0.20829859375953674,-0.19582270085811615
1782815050820489200,4.0534892578125,0.7008349895477295,0.2300565242767334,0.001733559649437666
1782815050840571100,4.073571044921875,0.6999304294586182,0.20252151787281036,0.12439147382974625
1782815050860653000,4.093653076171875,0.6713432669639587,0.20220263302326202,0.10789300501346588
1782815050880735200,4.1137353515625,0.6381555199623108,0.2533280551433563,-0.009080642834305763
1782815050900817200,4.133817138671875,0.5855608582496643,0.2794331908226013,-0.13037186861038208
1782815050920899000,4.153899169921875,0.5366190671920776,0.3186928927898407,-0.20735551416873932
1782815050940981200,4.173981201171875,0.5134536027908325,0.34010007977485657,-0.25849610567092896
1782815050961063200,4.194063232421875,0.5165584683418274,0.3332875967025757,-0.28581002354621887
1782815050981145000,4.21414501953125,0.529089093208313,0.31708651781082153,-0.2818402349948883
1782815051001227300,4.234227294921875,0.5489166975021362,0.25848105549812317,-0.2765045762062073
1782815051021309200,4.25430908203125,0.5802252292633057,0.211190328001976,-0.27450722455978394
1782815051041391000,4.27439111328125,0.6197657585144043,0.18244010210037231,-0.280059278011322
1782815051061473000,4.29447314453125,0.6524514555931091,0.19610026478767395,-0.27173206210136414
1782815051081556000,4.314555908203125,0.6962143778800964,0.21361593902111053,-0.2581786513328552
1782815051101638100,4.33463818359375,0.7467588782310486,0.2269451767206192,-0.22934859991073608
1782815051121720000,4.354719970703125,0.7949004173278809,0.20251889526844025,-0.1680038422346115
1782815051141802000,4.374802001953125,0.8141387701034546,0.1054496318101883,-0.08150461316108704
1782815051161884200,4.39488427734375,0.8204666376113892,-0.03892584145069122,-0.01116151362657547
1782815051181966000,4.414966064453125,0.8135849833488464,-0.1741509735584259,0.03297041729092598
1782815051202048000,4.435048095703125,0.7749428749084473,-0.3071969449520111,0.009161928668618202
1782815051222130200,4.455130126953125,0.7206825613975525,-0.3542519211769104,-0.04704996198415756
1782815051242212000,4.475212158203125,0.6831777095794678,-0.17046940326690674,-0.07268893718719482
1782815051262294000,4.4952939453125,0.6414578557014465,0.10351257771253586,-0.022793913260102272
1782815051282376000,4.5153759765625,0.6349247097969055,0.3526560962200165,0.15564773976802826
1782815051302458000,4.5354580078125,0.6372750401496887,0.45761963725090027,0.39365261793136597
1782815051322540000,4.5555400390625,0.6274981498718262,0.40752121806144714,0.5763207674026489
1782815051342622000,4.5756220703125,0.5795301795005798,0.2648938000202179,0.6536083817481995
1782815051362704100,4.5957041015625,0.5197928547859192,0.10167083144187927,0.6106684803962708
1782815051382786000,4.6157861328125,0.4493516683578491,-0.023515457287430763,0.4657781720161438
1782815051402868000,4.635867919921875,0.380892276763916,-0.08644785732030869,0.2607988119125366
1782815051422950100,4.6559501953125,0.31644362211227417,-0.09847335517406464,0.06834869831800461
1782815051443032000,4.676031982421875,0.25942274928092957,-0.030146995559334755,-0.0434800386428833
1782815051463114200,4.6961142578125,0.22934743762016296,0.10344836860895157,-0.029885705560445786
1782815051483196200,4.716196044921875,0.2196614146232605,0.27492526173591614,0.08344509452581406
1782815051503278300,4.7362783203125,0.22332057356834412,0.3616115152835846,0.22134265303611755
1782815051523360300,4.7563603515625,0.23150382936000824,0.3489428162574768,0.29572445154190063
1782815051543442200,4.776442138671875,0.2533930540084839,0.30642014741897583,0.29974713921546936
1782815051563524400,4.7965244140625,0.275957852602005,0.2587317228317261,0.2791835367679596
1782815051583606300,4.816606201171875,0.28327423334121704,0.16609279811382294,0.2248847335577011
1782815051603688200,4.836688232421875,0.2598692774772644,-0.03814828023314476,0.11013516038656235
1782815051623770000,4.85677001953125,0.23418477177619934,-0.14275503158569336,0.0018461637664586306
1782815051643852300,4.876852294921875,0.17251253128051758,-0.1838785856962204,-0.11204145103693008
1782815051663934200,4.896934326171875,0.1297397017478943,-0.13423553109169006,-0.23456208407878876
1782815051684016000,4.91701611328125,0.1313338428735733,-0.060828205198049545,-0.3323240578174591
1782815051704098300,4.937098388671875,0.16029629111289978,0.00036232732236385345,-0.3756486475467682
1782815051724180200,4.95718017578125,0.17488913238048553,0.06297221779823303,-0.33144572377204895
1782815051744262100,4.97726220703125,0.16388237476348877,0.12676885724067688,-0.2251097559928894
1782815051764344300,4.99734423828125,0.15431484580039978,0.14113560318946838,-0.11656717211008072
1782815051784426200,5.01742626953125,0.18550021946430206,0.1370667964220047,-0.044897809624671936
1782815051804508200,5.037508056640625,0.23732799291610718,0.1006978303194046,-0.029709134250879288
1782815051824590000,5.057590087890625,0.2694167196750641,-0.016717946156859398,-0.06828413903713226
1782815051844672300,5.07767236328125,0.2750062048435211,-0.1952597200870514,-0.18024438619613647
1782815051864754200,5.097754150390625,0.2826114892959595,-0.27656733989715576,-0.3131060004234314
1782815051884836000,5.117836181640625,0.29029953479766846,-0.24012061953544617,-0.39422380924224854
1782815051904918300,5.137918212890625,0.2915230989456177,-0.1091117188334465,-0.38536205887794495
1782815051925000200,5.158000244140625,0.2848944067955017,0.060914546251297,-0.3084663152694702
1782815051945082000,5.17808203125,0.2800818383693695,0.15901705622673035,-0.19769787788391113
1782815051965164300,5.198164306640625,0.27916064858436584,0.1453975886106491,-0.10988501459360123
1782815051985246200,5.21824609375,0.27307412028312683,0.12045250833034515,-0.07292956113815308
1782815052005328100,5.238328125,0.26577839255332947,0.14723160862922668,-0.08370590209960938
1782815052025410000,5.25841015625,0.23684458434581757,0.20845215022563934,-0.10814876854419708
1782815052045492200,5.2784921875,0.21991951763629913,0.25157660245895386,-0.1349175125360489
1782815052065574100,5.29857421875,0.23288719356060028,0.2615169882774353,-0.1572810858488083
1782815052085656000,5.318656005859375,0.2551318407058716,0.2488132119178772,-0.16813501715660095
1782815052106365000,5.339364990234375,0.2778624892234802,0.16036072373390198,-0.19082462787628174
1782815052126446800,5.35944677734375,0.30485230684280396,0.09981434047222137,-0.2134094387292862
1782815052146529000,5.379529052734375,0.3275860846042633,0.047054581344127655,-0.22499629855155945
1782815052166611000,5.39961083984375,0.34995242953300476,-0.034686993807554245,-0.23464512825012207
1782815052186692900,5.41969287109375,0.36760029196739197,-0.12061025202274323,-0.2416047900915146
1782815052206775000,5.439775146484375,0.3873912990093231,-0.14688993990421295,-0.23086662590503693
1782815052226857000,5.45985693359375,0.4012144207954407,-0.1572822481393814,-0.2097770869731903
1782815052246939000,5.47993896484375,0.4321632981300354,-0.10758013278245926,-0.15087924897670746
1782815052267021000,5.50002099609375,0.47562167048454285,-0.046480581164360046,-0.033634379506111145
1782815052287103000,5.52010302734375,0.49631449580192566,-0.07613538205623627,0.130381777882576
1782815052307185000,5.540184814453125,0.4867602586746216,-0.17619338631629944,0.2834603190422058
1782815052327266800,5.560266845703125,0.4821946918964386,-0.2637289762496948,0.372738778591156
1782815052347349000,5.580348876953125,0.5056150555610657,-0.2493302822113037,0.3925027549266815
1782815052367431000,5.600430908203125,0.525992214679718,-0.21005456149578094,0.3843245804309845
1782815052387512800,5.620512939453125,0.5226234793663025,-0.32300904393196106,0.3560287654399872
1782815052407595000,5.640594970703125,0.5106170177459717,-0.3330836296081543,0.34005433320999146
1782815052427677000,5.660677001953125,0.5035400986671448,-0.16220128536224365,0.3716132938861847
1782815052447132000,5.6801318359375,0.5030708312988281,-0.06797472387552261,0.41536998748779297
1782815052467213800,5.7002138671875,0.5379458069801331,-0.05443008244037628,0.461546927690506
1782815052487295700,5.720295654296875,0.5834932923316956,-0.049950871616601944,0.5504872798919678
1782815052507378000,5.7403779296875,0.5690063238143921,-0.08621566742658615,0.6411212682723999
1782815052527459800,5.7604599609375,0.5086793899536133,-0.11608385294675827,0.6647416353225708
1782815052547542000,5.7805419921875,0.446285218000412,-0.13192006945610046,0.6220368146896362
1782815052567624200,5.800624267578125,0.418474406003952,-0.08407585322856903,0.5346331596374512
1782815052587706000,5.8207060546875,0.401132196187973,-0.06010356545448303,0.3996681272983551
1782815052607788000,5.8407880859375,0.37210381031036377,-0.05467544123530388,0.2117033451795578
1782815052627870200,5.8608701171875,0.34956955909729004,-0.06432384997606277,0.021656345576047897
1782815052647952100,5.8809521484375,0.3130025565624237,-0.0317533053457737,-0.08735516667366028
1782815052668034000,5.901033935546875,0.27708888053894043,0.12671516835689545,-0.08651144057512283
1782815052688116000,5.921115966796875,0.2727386951446533,0.34908193349838257,-0.009849121794104576
1782815052708198100,5.9411982421875,0.2703670263290405,0.5172435641288757,0.08254057914018631
1782815052728280000,5.961280029296875,0.2398473471403122,0.6042914986610413,0.12631814181804657
1782815052748362000,5.981362060546875,0.17643433809280396,0.5125616788864136,0.07754004746675491
1782815052768444200,6.001444091796875,0.11004318296909332,0.2874656319618225,-0.03868229314684868
1782815052788526000,6.021526123046875,0.0793868824839592,0.16717343032360077,-0.14862611889839172
1782815052808608000,6.04160791015625,0.07408580929040909,0.15714943408966064,-0.2708374559879303
1782815052828690200,6.061690185546875,0.08192848414182663,0.2140132188796997,-0.3851225674152374
1782815052848772000,6.081772216796875,0.10292872041463852,0.26677292585372925,-0.43281111121177673
1782815052868854000,6.10185400390625,0.1450956165790558,0.3595105707645416,-0.3617425262928009
1782815052888936000,6.12193603515625,0.1949402540922165,0.36956873536109924,-0.2660779356956482
1782815052909018000,6.14201806640625,0.24461030960083008,0.2794764041900635,-0.22409822046756744
1782815052929100000,6.16210009765625,0.32070010900497437,0.16996775567531586,-0.23344536125659943
1782815052949182000,6.182181884765625,0.3774367570877075,0.06235640496015549,-0.25400787591934204
1782815052969264000,6.20226416015625,0.4129561483860016,0.02330697514116764,-0.24858303368091583
1782815052989346000,6.222345947265625,0.39895281195640564,0.03120831400156021,-0.22981783747673035
1782815053009428000,6.242427978515625,0.35399749875068665,0.07736173272132874,-0.2242163121700287
1782815053029511000,6.262510986328125,0.32433778047561646,0.10906632244586945,-0.23120543360710144
1782815053049593000,6.282593017578125,0.3317387104034424,0.13451632857322693,-0.21379995346069336
1782815053069675000,6.302675048828125,0.36147135496139526,0.05147698149085045,-0.17977996170520782
1782815053089757000,6.3227568359375,0.38069960474967957,-0.044622451066970825,-0.12701909244060516
1782815053109838800,6.3428388671875,0.3753484785556793,-0.06934169679880142,-0.06816522777080536
1782815053129921000,6.362921142578125,0.3406933844089508,-0.04450608417391777,-0.03743787854909897
1782815053150003000,6.3830029296875,0.30331799387931824,-0.021283918991684914,-0.056902747601270676
1782815053170084900,6.4030849609375,0.2913304567337036,-0.02216353639960289,-0.09236034005880356
1782815053190167000,6.4231669921875,0.2828229069709778,0.022261807695031166,-0.11217990517616272
1782815053210249000,6.4432490234375,0.2632802724838257,0.06609268486499786,-0.10630939155817032
1782815053230331000,6.463330810546875,0.21689531207084656,0.036735743284225464,-0.09247292578220367
1782815053250413000,6.4834130859375,0.19045504927635193,-0.02490411140024662,-0.07549408823251724
1782815053270495000,6.503494873046875,0.17939652502536774,-0.07219915837049484,-0.058959558606147766
1782815053290577000,6.523576904296875,0.20051510632038116,-0.07623474299907684,-0.04206404834985733
1782815053310658800,6.543658935546875,0.20573098957538605,-0.04828766733407974,-0.010889174416661263
1782815053330741000,6.563740966796875,0.17780612409114838,0.020064663141965866,0.06429041177034378
1782815053350823000,6.583822998046875,0.15992577373981476,0.11422140896320343,0.1859108805656433
1782815053370904800,6.60390478515625,0.16305948793888092,0.058972060680389404,0.29598522186279297
1782815053390987000,6.623987060546875,0.1406753659248352,-0.16256894171237946,0.29066142439842224
1782815053411069000,6.64406884765625,0.10114560276269913,-0.20765770971775055,0.21135252714157104
1782815053431150800,6.66415087890625,0.0700947716832161,-0.04282490164041519,0.1386968046426773
1782815053451233000,6.68423291015625,0.0734369158744812,0.1660742610692978,0.11202578246593475
1782815053471315000,6.70431494140625,0.11216212064027786,0.2139468640089035,0.13567925989627838
1782815053491396900,6.72439697265625,0.1782631278038025,0.15625596046447754,0.18732154369354248
1782815053511478800,6.744478759765625,0.2319735586643219,0.1277059018611908,0.2587173581123352
1782815053531561000,6.76456103515625,0.222672700881958,0.0436820350587368,0.28224414587020874
1782815053551643000,6.784642822265625,0.15295611321926117,-0.059286873787641525,0.21494443714618683
1782815053571724800,6.804724853515625,0.08595888316631317,-0.14037387073040009,0.05543887987732887
1782815053591807000,6.824806884765625,0.04833291843533516,-0.07187546789646149,-0.09428960084915161
1782815053611889000,6.844888916015625,0.06201052665710449,0.09429311752319336,-0.15081067383289337
1782815053631970800,6.864970703125,0.0975375771522522,0.2576259672641754,-0.09231922775506973
1782815053652053000,6.885052978515625,0.09994585812091827,0.3147445321083069,0.01849239505827427
1782815053672135000,6.905135009765625,0.08485512435436249,0.19391025602817535,0.07695110887289047
1782815053692216800,6.925216796875,0.09324543923139572,-0.05520324036478996,0.08651330322027206
1782815053712298800,6.945298828125,0.1146911233663559,-0.24195832014083862,0.034268818795681
1782815053732381000,6.965380859375,0.09843702614307404,-0.22885847091674805,0.002265905262902379
1782815053752462800,6.985462890625,0.022716213017702103,-0.11777736991643906,0.037383366376161575
1782815053772544800,7.005544677734375,-0.05756872147321701,-0.028010571375489235,0.11683299392461777
1782815053792627000,7.025626953125,-0.09050938487052917,0.02504681795835495,0.13751380145549774
1782815053812708900,7.045708984375,-0.08724170923233032,0.06292317062616348,0.07623595744371414
1782815053832790800,7.065790771484375,-0.08170051872730255,0.07849939912557602,-0.004528488498181105
1782815053852873000,7.085873046875,-0.07599520683288574,0.022433659061789513,-0.07115454226732254
1782815053872955000,7.105954833984375,-0.09051187336444855,-0.06570040434598923,-0.10862516611814499
1782815053893036800,7.126036865234375,-0.13183626532554626,-0.13138554990291595,-0.13538143038749695
1782815053913118700,7.14611865234375,-0.18497012555599213,-0.16220614314079285,-0.16774727404117584
1782815053933201000,7.166200927734375,-0.23077751696109772,-0.15483833849430084,-0.2228703647851944
1782815053953282800,7.18628271484375,-0.24523603916168213,-0.07332760840654373,-0.31092023849487305
1782815053973364700,7.20636474609375,-0.22642602026462555,0.08613213896751404,-0.3430628478527069
1782815053993447000,7.226447021484375,-0.23648668825626373,0.21611586213111877,-0.27595260739326477
1782815054013528800,7.24652880859375,-0.25133216381073,0.20812685787677765,-0.16778838634490967
1782815054033610800,7.26661083984375,-0.22660617530345917,0.18766584992408752,-0.10238315165042877
1782815054053693000,7.28669287109375,-0.1833842694759369,0.13067227602005005,-0.0974457785487175
1782815054073774800,7.30677490234375,-0.1285409778356552,0.12076253443956375,-0.09422869980335236
1782815054093856800,7.326856689453125,-0.10580340772867203,0.060356419533491135,-0.09689588099718094
1782815054113938700,7.346938720703125,-0.09183046221733093,-0.00654260441660881,-0.10571974515914917
1782815054134020900,7.367020751953125,-0.08633667230606079,-0.12551602721214294,-0.12438219040632248
1782815054154102800,7.387102783203125,-0.1023416668176651,-0.18173398077487946,-0.11892557889223099
1782815054174184700,7.407184814453125,-0.1379859447479248,-0.1695750504732132,-0.1313534826040268
1782815054194267000,7.427266845703125,-0.17852795124053955,-0.10953621566295624,-0.19128762185573578
1782815054214348800,7.447348876953125,-0.21380288898944855,-0.024238839745521545,-0.24830850958824158
1782815054234430700,7.4674306640625,-0.24757806956768036,0.013334957882761955,-0.252697229385376
1782815054254513000,7.487512939453125,-0.26657241582870483,0.0005511329509317875,-0.20520587265491486
1782815054274594800,7.5075947265625,-0.25861090421676636,-0.023849690333008766,-0.11640647798776627
1782815054294676700,7.5276767578125,-0.24253082275390625,-0.027953170239925385,-0.022401610389351845
1782815054314758700,7.547758544921875,-0.23287828266620636,-0.003900743555277586,0.05098547786474228
1782815054334840800,7.5678408203125,-0.22540688514709473,0.020968114957213402,0.08198011666536331
1782815054354922800,7.5879228515625,-0.22115448117256165,0.03456703573465347,0.09952661395072937
1782815054375004700,7.608004638671875,-0.2205205112695694,0.05445084720849991,0.11240164935588837
1782815054395086800,7.6280869140625,-0.21608398854732513,0.06285829097032547,0.13296543061733246
1782815054415168800,7.648168701171875,-0.19739879667758942,0.03623063489794731,0.1277487725019455
1782815054435250700,7.668250732421875,-0.15094566345214844,0.005368181504309177,0.12571783363819122
1782815054455332900,7.688332763671875,-0.08146654814481735,-0.028682155534625053,0.13906727731227875
1782815054475414800,7.708414794921875,-0.025721747428178787,-0.1062636524438858,0.17680023610591888
1782815054495496700,7.72849658203125,-0.003947742283344269,-0.41388779878616333,0.15436764061450958
1782815054515578600,7.74857861328125,-0.022767184302210808,-0.5943257212638855,0.07577250897884369
1782815054535660800,7.768660888671875,-0.03835517540574074,-0.49574458599090576,0.005077145528048277
1782815054555742700,7.78874267578125,-0.023196645081043243,-0.32987067103385925,-0.022474389523267746
1782815054575824600,7.80882470703125,-0.01432811003178358,-0.09549711644649506,0.0015248643467202783
1782815054595906800,7.82890673828125,-0.027621004730463028,0.16082888841629028,0.054125625640153885
1782815054615988700,7.84898876953125,-0.046102821826934814,0.40867501497268677,0.032560139894485474
1782815054636070700,7.869070556640625,-0.09402163326740265,0.24854378402233124,-0.047470226883888245
1782815054656152800,7.88915283203125,-0.09476705640554428,0.060660701245069504,-0.010923933237791061
1782815054676234800,7.90923486328125,-0.042487792670726776,0.05110388621687889,0.06709451228380203
1782815054696316700,7.929316650390625,0.0325799360871315,0.013898579403758049,0.13874390721321106
1782815054716398600,7.949398681640625,0.09079763293266296,-0.045474763959646225,0.17204535007476807
1782815054736480800,7.969480712890625,0.11720865964889526,-0.13397164642810822,0.15578295290470123
1782815054756562700,7.989562744140625,0.15045364201068878,-0.10641101747751236,0.12967990338802338
1782815054776644600,8.00964453125,0.1636212170124054,-0.12945321202278137,0.12666922807693481
1782815054796726800,8.029726806640625,0.13734281063079834,-0.18771621584892273,0.15265615284442902
1782815054816808700,8.04980859375,0.0779527872800827,-0.1865762621164322,0.16166089475154877
1782815054836890600,8.069890625,0.029577726498246193,-0.14610294997692108,0.13633723556995392
1782815054856972800,8.089972900390626,0.0193919837474823,-0.12816005945205688,0.09618417173624039
1782815054877054700,8.1100546875,0.024856042116880417,-0.1542862504720688,0.05683404579758644
1782815054897136600,8.13013671875,-0.017578331753611565,-0.22398491203784943,0.03129003942012787
1782815054917218600,8.150218505859375,-0.08093270659446716,-0.30952444672584534,0.0000979425385594368
1782815054937300700,8.17030078125,-0.1520308554172516,-0.3596358001232147,0.019212516024708748
1782815054957382700,8.190382568359375,-0.2195531278848648,-0.2952531576156616,0.0999123603105545
1782815054977464600,8.210464599609375,-0.2557063400745392,-0.11454988270998001,0.2007206380367279
1782815054997546800,8.230546630859376,-0.2621029317378998,0.010672418400645256,0.24022363126277924
1782815055017628700,8.250628662109374,-0.2529723048210144,0.010063187219202518,0.1593783050775528
1782815055037710600,8.270710693359375,-0.24479378759860992,-0.025811009109020233,-0.019696829840540886
1782815055057792800,8.290792724609375,-0.2104373723268509,-0.010051080957055092,-0.2191620171070099
1782815055077874700,8.310874755859375,-0.14771007001399994,0.08191530406475067,-0.3112024664878845
1782815055097956900,8.330956787109375,-0.08073066920042038,0.22110724449157715,-0.2372913509607315
1782815055118038800,8.351038818359376,-0.01580003835260868,0.22111651301383972,-0.07194056361913681
1782815055138121000,8.371120849609374,0.059803202748298645,0.09707611799240112,0.089819997549057
1782815055158203000,8.391202880859375,0.15556670725345612,0.027143161743879318,0.20702363550662994
1782815055178284800,8.411284912109375,0.24496504664421082,-0.04385935887694359,0.22558066248893738
1782815055198367000,8.431366943359375,0.30669885873794556,-0.12447188794612885,0.13380545377731323
1782815055218449000,8.451448974609375,0.3294902741909027,-0.15306884050369263,0.0046732258051633835
1782815055238530800,8.47153076171875,0.30532601475715637,-0.14572793245315552,-0.09311214089393616
1782815055258613000,8.491613037109374,0.2687852382659912,-0.12953437864780426,-0.19216831028461456
1782815055278695000,8.51169482421875,0.2506624460220337,-0.08273648470640182,-0.2958293855190277
1782815055298776800,8.53177685546875,0.27486300468444824,0.012990904971957207,-0.3895016610622406
1782815055318858800,8.551858642578125,0.33323538303375244,0.08950412273406982,-0.39733201265335083
1782815055338941000,8.57194091796875,0.3706483244895935,0.15825551748275757,-0.3007577657699585
1782815055359022800,8.59202294921875,0.36620503664016724,0.14774587750434875,-0.22683271765708923
1782815055379104800,8.612104736328124,0.3826153874397278,0.11778412014245987,-0.21334271132946014
1782815055399187000,8.63218701171875,0.4347855746746063,0.056103385984897614,-0.2300371676683426
1782815055419268900,8.652268798828125,0.4895488917827606,0.03311896696686745,-0.18187971413135529
1782815055439350800,8.672350830078125,0.48433780670166016,0.010461554862558842,-0.10366646945476532
1782815055459433000,8.692432861328125,0.45591962337493896,0.048225563019514084,-0.05512344464659691
1782815055479515000,8.712514892578126,0.43026620149612427,0.06283314526081085,-0.08207865059375763
1782815055499596800,8.7325966796875,0.4314839541912079,0.05304529517889023,-0.10999644547700882
1782815055519678700,8.7526787109375,0.44887131452560425,0.04868781194090843,-0.08632174134254456
1782815055539761000,8.772760986328125,0.4624803364276886,0.0817197784781456,-0.013695305213332176
1782815055559842800,8.7928427734375,0.44858214259147644,0.10018704831600189,0.057031549513339996
1782815055579924700,8.8129248046875,0.43120160698890686,0.06906124204397202,0.08407922089099884
1782815055600007000,8.8330068359375,0.4243122935295105,0.0784626379609108,0.08324706554412842
1782815055620088800,8.8530888671875,0.4106907546520233,0.16866837441921234,0.08675885200500488
1782815055640170800,8.873170654296874,0.39009806513786316,0.11931335180997849,0.06166714429855347
1782815055660253000,8.8932529296875,0.37879636883735657,-0.02202289178967476,0.0002204817719757557
1782815055680334800,8.9133349609375,0.3767092227935791,0.18605901300907135,0.02848263643682003
1782815055700416800,8.933416748046875,0.3408232629299164,0.4154036045074463,0.10660552233457565
1782815055720498700,8.953498779296876,0.3121601343154907,0.3717615008354187,0.1429407000541687
1782815055740580900,8.973580810546874,0.32949551939964294,0.37597084045410156,0.1276911199092865
1782815055760662800,8.993662841796874,0.3490002155303955,0.33403563499450684,0.11235187202692032
1782815055780744700,9.01374462890625,0.3902352452278137,0.30428558588027954,0.138222336769104
1782815055800827000,9.033826904296875,0.42018556594848633,0.22424933314323425,0.20027601718902588
1782815055820908800,9.05390869140625,0.4124625027179718,0.11752792447805405,0.2608296275138855
1782815055840990700,9.07399072265625,0.3597245514392853,0.009189740754663944,0.25615450739860535
1782815055861073000,9.094072998046874,0.2981588840484619,-0.013000971637666225,0.16381408274173737
1782815055881154800,9.11415478515625,0.26016831398010254,0.026358382776379585,0.03757885470986366
1782815055901235700,9.134235595703124,0.24573153257369995,0.10067905485630035,-0.01896919123828411
1782815055921318000,9.15431787109375,0.21435829997062683,0.1695708930492401,0.0297490656375885
1782815055941399800,9.17439990234375,0.1600279062986374,0.192866250872612,0.13018997013568878
1782815055961481700,9.194481689453125,0.10373187065124512,0.1291697770357132,0.19329716265201569
1782815055981564000,9.21456396484375,0.06914014369249344,0.07182560861110687,0.16959495842456818
1782815056001645800,9.234645751953124,0.0663197860121727,0.09001976251602173,0.09369267523288727
1782815056021727700,9.254727783203125,0.08494506776332855,0.12842145562171936,0.02989525906741619
1782815056041810000,9.274809814453125,0.06727433204650879,0.1133619174361229,0.03394511342048645
1782815056061891800,9.294891845703125,0.025494592264294624,0.06069755554199219,0.08564727008342743
1782815056081973800,9.314973876953125,-0.01586497575044632,-0.00020239455625414848,0.11898020654916763
1782815056102056000,9.335055908203126,-0.022091593593358994,-0.06057099997997284,0.0888887494802475
1782815056122138400,9.355138427734374,-0.023387916386127472,-0.12095160782337189,0.015566913411021233
1782815056142220300,9.37522021484375,-0.04656684026122093,-0.10347617417573929,-0.058741841465234756
1782815056162302200,9.39530224609375,-0.0865451991558075,-0.04362541809678078,-0.08806892484426498
1782815056182384000,9.415384033203125,-0.12470461428165436,-0.07365138828754425,-0.08471129834651947
1782815056202466300,9.43546630859375,-0.13742874562740326,-0.1402466893196106,-0.06185317784547806
1782815056222548200,9.45554833984375,-0.1402978003025055,-0.13957390189170837,-0.05960744619369507
1782815056242630100,9.475630126953124,-0.1319669485092163,-0.0606892928481102,-0.0768452137708664
1782815056262712300,9.49571240234375,-0.12689146399497986,0.013555319048464298,-0.09267722815275192
1782815056282794200,9.515794189453125,-0.1208265945315361,-0.0004467687103897333,-0.08679381012916565
1782815056302876200,9.535876220703125,-0.10370180755853653,-0.03968697041273117,-0.0504152849316597
1782815056322958300,9.555958251953125,-0.09144725650548935,-0.09348786622285843,-0.014406315051019192
1782815056343040300,9.576040283203126,-0.08450795710086823,-0.11983761936426163,-0.008620373904705048
1782815056363122200,9.5961220703125,-0.10321370512247086,-0.11090266704559326,-0.05572211742401123
1782815056383204000,9.6162041015625,-0.11700442433357239,-0.02691539376974106,-0.10004650056362152
1782815056403286300,9.636286376953125,-0.12564684450626373,0.06264040619134903,-0.12026103585958481
1782815056423368200,9.6563681640625,-0.13673031330108643,0.10678264498710632,-0.10352154821157455
1782815056443450000,9.6764501953125,-0.14361469447612762,0.0853770300745964,-0.07329480350017548
1782815056463532300,9.6965322265625,-0.12745283544063568,0.030948031693696976,-0.04384872317314148
1782815056483614200,9.7166142578125,-0.10618440806865692,0.01670200377702713,0.007290089037269354
1782815056503696100,9.736696044921874,-0.10637655109167099,-0.048141270875930786,0.025958165526390076
1782815056523778300,9.7567783203125,-0.1264360100030899,-0.08423110097646713,-0.0052564796060323715
1782815056543860200,9.776860107421875,-0.13844728469848633,-0.09947728365659714,-0.07291247695684433
1782815056563942100,9.796942138671875,-0.15855707228183746,-0.08211981505155563,-0.09887683391571045
1782815056584024000,9.817024169921876,-0.19284875690937042,-0.09231995791196823,-0.07667216658592224
1782815056604106200,9.837106201171874,-0.22028151154518127,-0.12500613927841187,-0.057833023369312286
1782815056624188200,9.857188232421874,-0.24693173170089722,-0.1255592703819275,-0.06413718312978745
1782815056644270000,9.87727001953125,-0.26702645421028137,-0.14296725392341614,-0.0794697031378746
1782815056664352300,9.897352294921875,-0.2829275131225586,-0.13161170482635498,-0.09302397817373276
1782815056684434200,9.91743408203125,-0.31150683760643005,-0.13002970814704895,-0.1025150939822197
1782815056704516000,9.93751611328125,-0.3361953794956207,-0.09346427768468857,-0.08818944543600082
1782815056724598300,9.957598388671874,-0.3537495732307434,-0.0827493891119957,-0.05165982246398926
1782815056744680200,9.97768017578125,-0.35823819041252136,-0.056380439549684525,0.018756430596113205
1782815056764762000,9.99776220703125,-0.36091548204421997,-0.05942172184586525,0.0859619677066803
1782815056784844300,10.01784423828125,-0.3531438112258911,-0.08592594414949417,0.11966171860694885
1782815056804926200,10.03792626953125,-0.36766213178634644,-0.1407657414674759,0.10666635632514954
1782815056825008000,10.058008056640626,-0.4146313965320587,-0.19599224627017975,0.0794687569141388
1782815056845090000,10.078090087890626,-0.46239665150642395,-0.19533734023571014,0.05489320680499077
1782815056865172200,10.098172119140624,-0.4871963560581207,-0.15886211395263672,0.0349920317530632
1782815056885254100,10.118254150390625,-0.4926753044128418,-0.1293155997991562,0.01629706285893917
1782815056905336000,10.138336181640625,-0.4987778067588806,-0.13852354884147644,0.03228096663951874
1782815056925418200,10.158418212890625,-0.493082731962204,-0.09525970369577408,0.07790833711624146
1782815056945500200,10.178500244140626,-0.4977048337459564,-0.10866023600101471,0.10869970917701721
1782815056965582000,10.19858203125,-0.4951641857624054,-0.2581961154937744,0.037751395255327225
1782815056985664300,10.218664306640624,-0.44522154331207275,-0.29297763109207153,-0.07353691011667252
1782815057005746200,10.23874609375,-0.39754319190979004,-0.18476156890392303,-0.11324984580278397
1782815057025828000,10.258828125,-0.3689767122268677,-0.11854760348796844,-0.07936041802167892
1782815057045910000,10.278909912109375,-0.3686921298503876,0.029333489015698433,-0.009072153829038143
1782815057065992200,10.2989921875,-0.38831430673599243,0.06569548696279526,0.03888897970318794
