time,seconds_elapsed,z,y,x
1782815236419780600,0.063780517578125,-1.4024953923732042,0.5690414119601249,-1.6820567223802207
1782815236439862500,0.083862548828125,-0.8657762873470782,0.6363761416949332,-1.3233597502075134
1782815236459945500,0.103945556640625,-0.2049555863559246,0.4470176451824605,-1.2307929640606046
1782815236480027400,0.12402734375,0.2802244700908661,0.34595848663076756,-1.2848968946918844
1782815236500109300,0.144109375,0.452213606390357,0.3152517981998622,-1.0253898531328887
1782815236520191500,0.16419140625,0.4047784859985113,0.5164909943811595,-0.8285043221164494
1782815236540273400,0.1842734375,0.21338322296142576,0.6900576091304421,-0.9259691825032234
1782815236560355300,0.204355224609375,0.2111906813532114,0.7132939616806805,-1.2233804227817804
1782815236580437500,0.2244375,-0.048449265870451924,0.8042588655889034,-1.3485028131619095
1782815236600519400,0.24451953125,-0.3359188847839832,0.8849255167141556,-1.8651935678988694
1782815236620601300,0.264601318359375,-0.3600619769155979,0.7534295727141201,-2.2013015455141662
1782815236640684300,0.284684326171875,-0.2622299637168646,0.994555519734323,-1.5554663783393798
1782815236660766500,0.304766357421875,-0.08130290320217609,1.0352192462950944,-1.065656762395799
1782815236680848400,0.324848388671875,0.11665887874364853,1.0186519962452352,-0.8806758233804255
1782815236700930300,0.344930419921875,-0.17604805630147455,0.9882435601085424,-0.7031308795846998
1782815236721012500,0.365012451171875,-0.9379472050666808,0.9160561296455562,-0.6732694098062812
1782815236741094400,0.385094482421875,-1.1863988187998533,0.9379578725911676,-0.2575788499753922
1782815236761176300,0.40517626953125,-0.9707838912636041,1.0870406189471482,0.2211393900461495
1782815236781258200,0.42525830078125,-1.0704302604079245,1.33949839958176,0.20408158000037072
1782815236801340400,0.44534033203125,-1.1029688404411078,1.5333683821693063,-0.005482340401224792
1782815236821423400,0.46542333984375,-1.0004857865661383,1.5363798389449714,0.03070836893133819
1782815236841505300,0.48550537109375,-0.6987567561537027,1.6825323770679532,0.1259055035818368
1782815236861587200,0.505587158203125,-0.3225000157624483,1.6394301713138817,-0.23806889753714203
1782815236881669400,0.52566943359375,-0.3890530936002731,1.2112807466000317,-0.32973215897306796
1782815236901751300,0.545751220703125,-0.5508008218705653,1.0710410857826471,-0.021916502123326062
1782815236921833200,0.565833251953125,-0.43555356349050994,1.3362661396622657,0.17132884575985372
1782815236941915400,0.585915283203125,-0.13421090204715727,1.4324673367887735,-0.019776878012437372
1782815236961997300,0.605997314453125,-0.034237785166502,1.1934057749524711,-0.14070574395917354
1782815236982079200,0.626079345703125,-0.08482932376265526,1.1440686203315853,-0.03599493103213608
1782815237002162400,0.646162353515625,0.2244575746834278,1.4727116688936948,0.2173259692378342
1782815237022244400,0.666244384765625,0.31175299629867076,1.6956711139738558,0.4807060163052752
1782815237042326500,0.686326416015625,0.11892857724130153,1.78485717164129,0.4203524141620844
1782815237062408400,0.706408447265625,-0.28980653742849827,2.058347657302022,0.24038820733018218
1782815237082490400,0.726490478515625,-0.462172690346837,2.190339714255929,0.11843699433207511
1782815237102572500,0.746572509765625,-0.5110048180550336,2.257753792837262,0.2649493787433952
1782815237122654500,0.766654541015625,-0.3031803982645273,2.3938588380679486,0.6132203801002353
1782815237142736400,0.786736328125,0.023565584504604338,2.455354632516205,0.7943035810247063
1782815237162818300,0.806818359375,0.3797726395577192,2.1733492703579365,0.9252934021335094
1782815237182901500,0.826901611328125,0.49118484981954097,2.019085614232719,1.0436280320696532
1782815237202983400,0.8469833984375,0.3696434597313404,1.920176619452238,1.0672530916765333
1782815237223065300,0.8670654296875,-0.17951427110731602,1.890721830778569,0.9303655908312648
1782815237243147300,0.887147216796875,-0.5981377425849438,1.8118593064658344,0.7074751193340867
1782815237263229400,0.9072294921875,-0.6537748741328716,1.6309360453434287,0.8082965236071497
1782815237283311600,0.9273115234375,-0.4977297414183616,1.5288978126265107,0.9307540786921977
1782815237303393500,0.9473935546875,-0.11958616436719893,1.4944576367557048,0.7986356919448823
1782815237323475700,0.967475830078125,0.1353343531191349,1.4557792387932538,0.7017134870674461
1782815237343557600,0.9875576171875,0.467092611092329,1.062974975965917,1.1046388194799424
1782815237363640600,1.007640625,0.8253852402478457,0.7391442961215973,1.1782540907889605
1782815237383722500,1.027722412109375,0.6777081229060888,0.17227701333016157,0.9190675133559852
1782815237403804400,1.047804443359375,-0.38752515338063237,0.01609364118874073,0.326534020518884
1782815237423886600,1.067886474609375,-1.1947931376576424,0.034841596278548236,0.09620258536599575
1782815237443968500,1.087968505859375,-1.1612298907518386,-0.11665887874364853,-0.13235215897057204
1782815237464050400,1.108050537109375,-0.07384323484599589,-0.3800771754622459,-0.43593017825055863
1782815237484132600,1.128132568359375,0.522703439155221,-0.7333736037656664,-0.2593422794513404
1782815237504214500,1.148214599609375,0.5741489642322063,-0.7233344403102994,0.03031838323306292
1782815237524296400,1.16829638671875,0.4837053077191114,-0.5853782142549753,0.3472102402575314
1782815237544379400,1.18837939453125,0.2994622545242309,-0.5046896435588598,0.3179236842902377
1782815237564461600,1.208461669921875,0.32716917661726475,-0.6077013974830507,0.16820413786806165
1782815237584543500,1.22854345703125,0.08614566705822944,-0.6233303437694907,0.21429259289130567
1782815237604625400,1.24862548828125,-0.2810428007364273,-0.45857671168148517,0.7173884644526988
1782815237624707600,1.26870751953125,-0.31224516372978683,0.04295972854346037,1.1189539797540753
1782815237644789500,1.28878955078125,0.29486148273050783,0.0011959317862987517,1.3961889857053755
1782815237664871400,1.308871337890625,0.754603731060028,-0.15215718536525963,1.2137915603771805
1782815237684953300,1.328953369140625,0.6327034445315599,-0.10276567020863293,1.049959500113502
1782815237705035500,1.349035400390625,0.04289689244031906,-0.029946371582895516,0.9467205133046954
1782815237725118700,1.36911865234375,-0.4682856202691793,0.028378537744283675,0.8355464226476848
1782815237745200600,1.38920068359375,-0.7940659728765487,-0.0457500899143517,0.5140933586549014
1782815237765282600,1.409282470703125,-0.5586164640575647,-0.3807347625881433,0.11791428563222288
1782815237785364700,1.42936474609375,-0.21345862628519532,-0.6189150115452706,-0.11319390604682265
1782815237805446700,1.44944677734375,-0.1314256552428007,-0.6465365934424102,-0.24513722848817704
1782815237825528600,1.469528564453125,-0.23117782284915445,-0.598208908125013,-0.4654056078534573
1782815237845610500,1.489610595703125,-0.35353228288590904,-0.5625369985021651,-0.725092462958768
1782815237865692700,1.509692626953125,-0.3815402337521314,-0.49282706406861543,-0.9872101254075765
1782815237885774600,1.529774658203125,-0.06427285794615745,-0.43220556823685763,-1.0153482785247265
1782815237905856500,1.5498564453125,0.024064181676506993,-0.46680663375779985,-1.0376676623605192
1782815237925939500,1.569939453125,-0.11119067646563052,-0.4180006634041667,-1.1928146771915256
1782815237946021600,1.590021728515625,-0.30797932297885416,-0.487077999022603,-1.255462418153882
1782815237966103600,1.610103515625,-0.7370020233958959,-0.7237019584484398,-1.120816339559853
1782815237986185500,1.630185546875,-0.3635316988527775,-0.47649011564329263,-1.0791412439994514
1782815238006267600,1.650267578125,0.07286240711510181,-0.4143877336040139,-1.3954264769002795
1782815238026349600,1.670349609375,-0.07530512409210205,-0.829493260088563,-1.0561685108214616
1782815238046431500,1.690431396484375,-0.05372866757810116,-1.0234997285373508,-0.8392851707845925
1782815238066513700,1.710513671875,-0.3177823395907879,-0.9751435477778315,-0.6446748912237584
1782815238086595600,1.730595703125,-0.555367106872797,-0.9031935793325304,-0.6974234617233276
1782815238106678500,1.750678466796875,-0.5169920757710933,-0.8372653553947806,-0.946385216935724
1782815238126760400,1.770760498046875,-0.18833412190079687,-0.8466402097225189,-1.130902995418757
1782815238146842400,1.79084228515625,0.10642039332389831,-0.8012734200373292,-1.4992086306750774
1782815238166924500,1.810924560546875,0.26548458159863947,-0.9230153011336922,-1.1301949932798743
1782815238187006500,1.83100634765625,0.4744605095118284,-0.9446128004357218,-0.9075348234072327
1782815238207088400,1.85108837890625,0.0017290157496929167,-0.4374392311066389,-1.099825866240263
1782815238227170600,1.871170654296875,0.011925415593385696,-0.03814122234582901,-1.0001873881414531
1782815238247252500,1.89125244140625,0.22940087630450723,0.47768239416778085,-0.44567295257523654
1782815238267334400,1.91133447265625,0.9837824890464544,0.25837796446383,0.020738982776552436
1782815238287417000,1.9314169921875,1.7558792066991329,-0.6661003949597477,-0.043120033671706914
1782815238307500000,1.9515,1.6516683061182498,-1.2795157861754298,-0.051882455189526076
1782815238327582200,1.971582275390625,0.7198106500983238,-0.7897668143779039,0.010050707762688398
1782815238347664100,1.9916640625,-0.5065156899422407,0.13871873486042022,-0.0016695406474173068
1782815238367746000,2.01174609375,-0.8988222323805093,0.3488724743813276,-0.27843853652216494
1782815238387828200,2.031828125,-0.7330383804619311,-0.07687471149638295,-0.6132215491440147
1782815238407910100,2.05191015625,-0.9871879135757684,-0.25231398824974893,-0.6321558205861598
1782815238427992000,2.071991943359375,-1.0904442899107933,0.008778642000257969,-0.5772782752338796
1782815238448074000,2.092073974609375,-0.656153878223896,0.2790009196452796,-0.3139884272005409
1782815238468156200,2.11215625,0.024748656809329986,0.15996932042092085,-0.15018997694551944
1782815238488239000,2.132239013671875,0.21498364389538763,0.07453501650243997,-0.07323138655796646
1782815238508321300,2.1523212890625,0.13534779712259767,0.21172990279644727,-0.23283180060125885
1782815238528403200,2.1724033203125,-0.1754454142332077,0.3716932318679988,-0.3712044254377484
1782815238548485400,2.1924853515625,-1.0103788195490837,0.6977296050630509,-0.769614399317652
1782815238568567300,2.2125673828125,-1.7408236763864755,0.8922568825155496,-0.9965390947669744
1782815238588649200,2.232649169921875,-1.3634604360580445,0.8518807407245039,-0.7518973947107791
1782815238608731400,2.2527314453125,-0.6620762540102004,0.8419985213965177,-0.3522106788933277
1782815238628813300,2.272813232421875,-0.13788988282084463,1.0493575156323611,-0.2578252990171313
1782815238648895200,2.292895263671875,-0.0664098699748516,1.1896285945013165,-0.38577641001716256
1782815238668977200,2.31297705078125,0.35209494355916976,1.2789311181552707,-0.4341941117055714
1782815238689060000,2.33306005859375,0.8829057013243437,1.1835638876348733,-0.24602014880254863
1782815238709142300,2.353142333984375,1.0704904661625623,1.2408382649958134,-0.16466741510927677
1782815238729224200,2.37322412109375,1.1253075134992598,1.2858984729498624,-0.2638463128723204
1782815238749306000,2.39330615234375,1.1432254475057124,1.2231406957417725,-0.14744389310777187
1782815238769388300,2.41338818359375,1.3408949685066938,1.1345049654334782,0.1983208245165646
1782815238789470200,2.43347021484375,1.4400485856980085,1.1272910885319114,0.39988486873805523
1782815238809552100,2.45355224609375,1.557514689171314,1.1278626048095524,0.7381729668714105
1782815238829634300,2.47363427734375,1.497801101964712,0.6600149375662208,0.7990519445955753
1782815238849716200,2.49371630859375,0.4035784625589847,0.3472400508739054,0.8613105401098727
1782815238869799200,2.513799072265625,-0.9030559244275093,0.005572831696271896,1.1968664368003605
1782815238889881000,2.533881103515625,-1.5189578717619179,0.06037818859517574,1.1581307556927203
1782815238909963000,2.553962890625,-1.289051384022832,0.11680866247788071,1.0681588083446025
1782815238930045200,2.574045166015625,-0.8211468720257282,0.02435322775095701,0.9020163522467016
1782815238950127000,2.594127197265625,-0.35378888799548147,-0.270016525939852,0.7036981580786407
1782815238970209000,2.614208984375,0.14099603214263914,-0.5855487485162914,0.5153326181262732
1782815238990291200,2.634291259765625,0.6936819371074437,-0.8057090643972158,0.31111908230930563
1782815239010373000,2.654373046875,1.3386685246288776,-0.9538027997158467,0.33517902620211243
1782815239030455000,2.674455078125,1.5403291610926388,-0.9033110682323574,0.5039956699453294
1782815239050537200,2.694537109375,1.5220102450698614,-1.0586510483521967,0.5733560602888464
1782815239070620200,2.7146201171875,1.2467074492901562,-1.3955325676232575,0.38834319176524873
1782815239090702000,2.7347021484375,0.9109487235039472,-1.4738777900636195,0.20554040050655603
1782815239110784000,2.754783935546875,0.7738309940993785,-1.344760704024136,0.2618392108336091
1782815239130866200,2.7748662109375,0.5357791938275098,-1.1641158945169299,0.4303424047134816
1782815239150948400,2.7949482421875,-0.07594049938619137,-0.8729420142579823,0.8329547987192869
1782815239171030300,2.8150302734375,-0.8673895677626132,-0.8589655844189226,1.074960451183468
1782815239191112200,2.8351123046875,-1.6196376756072044,-0.8558911454096436,0.8404337562978267
1782815239211194400,2.8551943359375,-2.16782743819654,-0.9569618482686578,0.36745457138493653
1782815239231276300,2.8752763671875,-2.054947493469715,-1.0457698664039372,0.13181962299644948
1782815239251359200,2.895359130859375,-1.5302023193538188,-1.0997601075276733,-0.08163476550504564
1782815239271441200,2.915441162109375,-1.1689759748339652,-1.0718700108874588,-0.2925749792285263
1782815239291522800,2.935522705078125,-1.596267905935645,-1.0558177976876497,-0.5269375695936381
1782815239311604700,2.955604736328125,-1.4467472065538167,-0.9082990127127617,-0.8506845166772603
1782815239331686700,2.975686767578125,-1.1182792222976683,-1.0219680619906633,-0.6240187644250691
1782815239351768800,2.995768798828125,-1.1357073269605635,-0.7404740834206343,-0.6187178815379738
1782815239371850800,3.015850830078125,-0.7933189539015293,-0.5460878949392587,-0.5472749858319759
1782815239391932700,3.0359326171875,-0.591100683555007,-0.24281243880242107,-0.3400090767070651
1782815239412014800,3.056014892578125,-0.8302811955958604,0.24390600619278846,0.02768317589126527
1782815239432096800,3.0760966796875,-0.3907476225584745,0.7945968648828565,0.36092429283335803
1782815239452180000,3.096179931640625,0.4563566975444555,1.0727831071443854,0.5218251950159669
1782815239472262000,3.116261962890625,1.2590700872570275,1.2123368315242231,0.5680506473571062
1782815239492343800,3.13634375,1.816416969770193,1.0847804189302026,0.7024914126373827
1782815239512426000,3.156426025390625,1.8964748413473367,0.7697869794055819,0.7107431081540883
1782815239532508000,3.1765078125,1.5384990230560303,0.7503868440173566,0.4930800159163773
1782815239552589800,3.19658984375,0.8247855207890271,0.7133323939949273,0.29064371890500185
1782815239572672000,3.216672119140625,0.03726502403318882,0.819706463959068,0.22013415852636098
1782815239592754000,3.23675390625,-0.38142742102742194,0.9272931245833634,0.33315190428867936
1782815239612835800,3.2568359375,-0.7435346400350332,0.8733826706975698,0.22105273467600345
1782815239632917800,3.276917724609375,-1.0611761098504067,0.8908562219373881,-0.19430428235158323
1782815239653000700,3.297000732421875,-1.212927344763279,0.8763795144259929,-0.4047328932911157
1782815239673083000,3.317082763671875,-0.754946845409274,0.8413812662810086,-0.6266966053321957
1782815239693164800,3.337164794921875,-0.11777765364050864,0.6933934755548834,-0.5994537936195731
1782815239713246700,3.357246826171875,0.17831249410212038,0.6923087490580976,-0.4261465604588389
1782815239733329000,3.377328857421875,-0.21650807698369026,0.9785428348273039,-0.2328860880717635
1782815239753410800,3.397410888671875,-0.5421820466071366,1.296262484445423,-0.11770371162146329
1782815239773492700,3.41749267578125,-0.8361316751897334,1.489238733063638,0.16089067304953933
1782815239793575000,3.437574951171875,-0.8695680808454751,1.7030151931263506,0.26240897354558107
1782815239813656800,3.45765673828125,-0.45855449984967706,1.6512300608314572,0.32615050109401345
1782815239833738800,3.47773876953125,0.3687356972366571,1.2439327238798141,0.2585515674650669
1782815239853821700,3.49782177734375,0.9467512737691401,0.8662545723833143,0.11523790602982044
1782815239873903900,3.51790380859375,1.399457632112503,0.6248802035599946,-0.08021481570452452
1782815239893985800,3.53798583984375,1.722252831429243,0.39808994814530013,-0.14865882185548543
1782815239914067700,3.558067626953125,1.6232213793128727,0.2034462047062814,-0.1747286442659795
1782815239934149600,3.578149658203125,1.4384072482317685,0.14625892110690475,-0.1380874512195587
1782815239954231800,3.598231689453125,1.3324807759046553,0.028036007916927334,-0.09877411635443567
1782815239974313700,3.618313720703125,1.165962764492631,-0.07100012037456035,-0.0833187730692327
1782815239994395600,3.638395751953125,0.9401742334663867,-0.02818637617304921,0.07286226098462939
1782815240014477800,3.658477783203125,0.8354173894405365,0.03316679493412375,0.37684316197708245
1782815240034560800,3.678560791015625,0.6911497882813215,0.02323284541890025,0.48199207406044003
1782815240054642700,3.698642578125,0.30503391717672346,-0.2802813148446381,0.14896014288961887
1782815240074724900,3.718724853515625,-0.8900111494153737,-0.6807629073668271,-0.1463666192650795
1782815240094806800,3.738806884765625,-2.582154673784971,-0.6937668389119207,-0.47652518695667384
1782815240114889000,3.758888916015625,-3.0096038412749766,-0.6105431237149983,-0.3340130511626601
1782815240134971000,3.778970947265625,-2.196504666626453,-0.5771414605790749,0.07514116570204496
1782815240155052800,3.799052734375,-1.439540636175871,-0.5276732634570449,0.17026377381160854
1782815240175135000,3.819135009765625,-1.0810194589614868,-0.47446102096848186,-0.1119661908827722
1782815240195217000,3.839216796875,-0.6022983693957329,-0.6086198275022209,-0.565996491306275
1782815240215298800,3.859298828125,-0.02066810949742794,-0.7518219913870096,-0.6471211153320968
1782815240235381800,3.8793818359375,0.23859540562927722,-0.670823916350305,-0.5317908548437058
1782815240255464000,3.8994638671875,0.3408867363244295,-0.3689409374851733,-0.5033097335077822
1782815240275545900,3.9195458984375,0.3999889136344194,-0.18814210646003485,-0.6103811380863189
1782815240295627800,3.939627685546875,0.6034568917810916,-0.08135923649929463,-0.5975697334386408
1782815240315710000,3.9597099609375,0.6780261028140783,0.01173047754317522,-0.5178976463086903
1782815240335791900,3.9797919921875,0.8213491165995598,0.06557692628204823,-0.6822231161125004
1782815240355873800,3.999873779296875,0.529197477349639,-0.0487238450281322,-0.7977201114699244
1782815240375955700,4.019955810546875,-0.12083353407979011,-0.11744155355393886,-0.8391073299996554
1782815240396038000,4.040037841796875,-0.4977034379333257,0.0812179283324629,-0.7830109103769064
1782815240416119800,4.060119873046875,-0.6640957771390676,0.18510982609204946,-0.5864265542641282
1782815240436202800,4.08020263671875,-0.5619342103034257,0.16622260866202412,-0.5070566649511457
1782815240456284700,4.10028466796875,-0.303964242118597,-0.10018361782617867,-0.4959371589131653
1782815240476366800,4.120366943359375,-0.2156482452839613,-0.36601335960067805,-0.616755641554296
1782815240496448800,4.14044873046875,-0.40922085236012934,-0.42380518496446307,-0.7882068715848028
1782815240516530700,4.16053076171875,-0.4822206221193075,-0.4424329477407038,-0.9715645202472806
1782815240536612900,4.18061279296875,-0.3681120123803615,-0.5697327552251518,-1.0855553488254546
1782815240556694800,4.20069482421875,-0.2599807234853506,-0.6837158388882875,-1.0436857536062598
1782815240576776700,4.220776611328125,-0.3193272309452295,-0.5315602609582245,-0.9283348887212574
1782815240596858600,4.240858642578125,-0.5066057063132524,-0.3185885414071381,-0.9178354142777622
1782815240616940800,4.26094091796875,-0.4264332684457302,0.02215250283628702,-0.7667054530683904
1782815240637023700,4.281023681640625,-0.6075321783959865,0.16828180621415376,-0.34121377632170913
1782815240657105700,4.301105712890625,-0.8175742742359637,0.41396687784343955,-0.12396971321366726
1782815240677187600,4.3211875,-0.815555920150876,0.9415873151347041,-0.36978411031104624
1782815240697269800,4.341269775390625,-0.36598961339890956,1.1062998845599592,-0.46035541179180145
1782815240717351700,4.3613515625,0.3347340589135885,0.9947684318326413,-0.4437716489985585
1782815240737433900,4.381433837890625,0.5827051956534385,0.6949601403497159,-0.14053667100258171
1782815240757516000,4.40151611328125,0.9602093057572841,0.8850093956053257,-0.3662655077308416
1782815240777598000,4.421597900390625,1.0023521649599074,0.9353630337923765,-0.3945615913560614
1782815240797679900,4.441679931640625,0.5832423712700605,0.8143687561929226,-0.18629037764612585
1782815240817761800,4.46176171875,0.6077309158384799,0.8812279773704708,-0.05630450941547751
1782815240837844700,4.4818447265625,0.7440104408532381,0.7696632068954408,0.23051018925327807
1782815240857927000,4.501927001953125,0.7781874357432127,0.5772254490680993,0.46982919644936916
1782815240878008800,4.5220087890625,0.7725982374340296,0.4453947201557457,0.5448644906241447
1782815240898090800,4.5420908203125,0.8335445813059806,0.2155769336134195,0.5446593965061008
1782815240918173000,4.5621728515625,0.9572259060323238,0.04047726407796144,0.6236389713272452
1782815240938254800,4.5822548828125,1.1016840613275767,-0.0088294954046607,0.6909186098739505
1782815240958336800,4.602336669921875,0.9218383663088082,-0.12540507977902887,0.6701983317978679
1782815240978419000,4.6224189453125,0.6083382340818643,-0.19655776036679742,0.44788989797234535
1782815240998500900,4.6425009765625,-0.1476648423820734,-0.1760935028783977,0.27360373677685856
1782815241018582800,4.662582763671875,-1.4045762903004884,0.09061404464393853,0.3691608638461679
1782815241038665700,4.682665771484375,-2.2367530903846022,0.5083079801864921,0.5429013738576323
1782815241058747600,4.70274755859375,-2.0511422559678554,0.6001930676795542,0.6813401957981288
1782815241078829800,4.722829833984375,-0.8696148425966501,0.32707024628743525,0.7730410858307033
1782815241098911700,4.742911865234375,0.22089900541901586,-0.2524263625830412,0.9273421513568609
1782815241118993700,4.76299365234375,0.826171422189474,-0.5992362053461372,1.1007958072509616
1782815241139075800,4.783075927734375,1.2354226696878672,-0.7307998077549039,1.0804791415397077
1782815241159157800,4.80315771484375,1.6128467002928255,-0.8923085396375506,1.1280487019661813
1782815241179239700,4.82323974609375,1.687455658814311,-1.042889415596798,1.3182612580247222
1782815241199321900,4.84332177734375,1.4892279194086788,-1.0912838094748556,1.5182647749312221
1782815241219404800,4.86340478515625,1.2854858004957437,-1.1014799170576035,1.68817549752146
1782815241239486700,4.88348681640625,0.9005091625541448,-1.029041069116816,1.962987587174773
1782815241259568600,4.903568603515625,0.25069267065823075,-0.8502012632049619,2.0321597614698113
1782815241279650800,4.92365087890625,-0.7428086638480424,-0.803341020091623,2.185434114296734
1782815241299732700,4.943732666015625,-0.7906587947815656,0.08483049280643462,1.3231447922825812
1782815241319814700,4.963814697265625,-1.291699268183112,-0.026538389770314096,1.1929852114528416
1782815241339896600,4.983896484375,-1.7225415852427481,-0.25344277308396995,0.9736306589968502
1782815241359978800,5.003978759765625,-1.9615502478480338,-0.5324800792168826,0.11791582000218331
1782815241380060700,5.024060791015625,-1.7828391098171472,-0.7450753666710108,-0.05735964449159801
1782815241400142600,5.044142578125,-1.4155886827021837,-0.5628770441114902,0.06423011478297412
1782815241420225500,5.0642255859375,-1.1116326238900422,-0.259362226260826,-0.12274324015863239
1782815241440307700,5.0843076171875,-0.7622744118183851,-0.09376132969371974,-0.3883320127841085
1782815241460389600,5.1043896484375,-0.17196984707713125,-0.13696728808321057,-0.547988248667866
1782815241480471600,5.124471435546875,0.39847675550580025,-0.21248189020752906,-0.7178077858433127
1782815241500553700,5.1445537109375,0.3721627490758896,-0.3044400429368019,-0.703430739314109
1782815241520635600,5.1646357421875,0.08704349268078804,-0.1471133459791541,-0.7861808456499129
1782815241540717600,5.184717529296875,-0.371158540469408,0.07412468213587999,-1.0072872102092951
1782815241560799500,5.204799560546875,-0.9672060327768325,0.34603754321634766,-1.1752337931197137
1782815241580881700,5.224881591796875,-1.270490475937724,0.5422581805832684,-1.1372158318273722
1782815241600964900,5.24496484375,-0.724297440123558,0.6940504781588912,-0.8906415562734007
1782815241621046800,5.265046875,0.35172727929055686,0.6218371826022863,-0.6111012325217947
1782815241641128700,5.285128662109375,0.959521323493123,0.2588791919842362,-0.243878460598737
1782815241661211000,5.3052109375,1.216168518641591,0.17871245320513843,0.025413048135349524
1782815241681918700,5.325918701171875,1.2045762805253266,0.2353176991328597,0.15371880865879356
1782815241702001700,5.346001708984375,0.9913339273393154,0.38973230803608894,0.4622629989787936
1782815241722083600,5.36608349609375,0.53107905331254,0.5991216390557587,0.7416145586926489
1782815241742165500,5.38616552734375,0.1739034454882145,0.7817078649543225,0.8928256953794509
1782815241762247700,5.40624755859375,0.06089665951132774,0.8435391749672592,0.963015814545378
1782815241782329600,5.42632958984375,0.21520576221346854,0.7912536919347941,0.8577070357251911
1782815241802411500,5.44641162109375,0.41505438081920143,0.7125880053684115,0.859280057195574
1782815241822493400,5.466493408203125,0.5144634340763091,0.747267835213989,0.8118902372501791
1782815241842575600,5.48657568359375,0.6115788234382867,0.8849695019863545,0.9858419057942927
1782815241862657800,5.50665771484375,0.515426141628623,1.0608214511938392,1.0570029158189893
1782815241882740700,5.52674072265625,0.5558978527486323,1.037673799840361,1.0318604373864828
1782815241902822700,5.54682275390625,0.5417214433580637,0.9677199736483395,0.8271104566052555
1782815241922904800,5.56690478515625,0.4815232875049114,0.9854325943410396,0.5730142611138522
1782815241942986800,5.58698681640625,0.33241818318665023,0.988314141126722,0.3281969852950424
1782815241963068700,5.607068603515625,-0.1045516768425703,0.6204452898524702,-0.06786573133897036
1782815241983150800,5.62715087890625,-0.8173159155607223,0.3657584349915385,-0.5154210635947063
1782815242003232800,5.647232666015625,-1.3745213437765835,0.4648473163835704,-0.548363950112462
1782815242022688500,5.6666884765625,-1.621162108695507,0.734013947495818,-0.19133060030303894
1782815242042770700,5.686770751953125,-1.3583704194426536,0.9749057934992015,0.07524784094691277
1782815242062852600,5.7068525390625,-0.828241798722744,0.8804095005944371,0.16494871626868843
1782815242082934500,5.7269345703125,-0.15792378606796265,0.6693047439590096,0.06446253529936075
1782815242103016700,5.7470166015625,0.38198096325695513,0.39842780179753895,-0.048437721563130615
1782815242123098600,5.7670986328125,0.5698521438211203,0.11377177900001406,-0.24654417267665266
1782815242143180500,5.7871806640625,0.5151368032932281,-0.08149411492533981,-0.4337391344796866
1782815242163262700,5.8072626953125,0.5451397273689508,-0.13999978764690457,-0.39003151017837223
1782815242183344600,5.8273447265625,0.6340653805345297,-0.17811602168194948,-0.34278299839980897
1782815242203427600,5.847427490234375,0.5460398910790681,-0.2884199784409255,-0.3568284018218517
1782815242223509500,5.867509521484375,0.40776247024536133,-0.34461233271881936,-0.4262304393500089
1782815242243591700,5.887591796875,0.10986614986360073,-0.2998340104460716,-0.3302127820968628
1782815242263673900,5.907673828125,-0.23872049331367015,-0.23520517866909502,-0.3760059074353426
1782815242283756000,5.927756103515625,-0.5534510441184044,-0.3105940355218947,-0.6011226036146283
1782815242303838000,5.947837890625,-0.6448135690420865,-0.4583605847127735,-0.6933247942328453
1782815242323920100,5.967920166015625,-0.6447013408392668,-0.504779148473218,-0.6402298945136368
1782815242344002000,5.988001953125,-0.4348118052124977,-0.5571517983324825,-0.583031139672175
1782815242364084200,6.008084228515625,-0.08416063072085381,-0.7105105415072291,-0.6062636928301304
1782815242384166100,6.028166259765625,0.28072598987221714,-0.8928978838328272,-0.6354511358045041
1782815242404249000,6.0482490234375,0.49619069528281684,-1.0803601913351566,-0.49862208714820444
1782815242424331300,6.068331298828125,0.33120003956854344,-1.0652660095125437,-0.3581654225792736
1782815242444413200,6.0884130859375,0.1944160721629858,-1.0125867048569024,-0.2595380212191492
1782815242464495000,6.1084951171875,-0.005579261437058449,-0.9840192934770137,-0.2049178116288036
1782815242484577300,6.128577392578125,-0.40552550497353074,-0.9824192378692328,-0.2244676576860249
1782815242504659200,6.1486591796875,-0.7527788537204265,-0.9494454082239419,-0.34609416877441107
1782815242524741000,6.1687412109375,-1.016090767455101,-0.9787222830474376,-0.6397432800404728
1782815242544823300,6.1888232421875,-1.4202794708669184,-0.9351350702553987,-0.7428940771091729
1782815242564905200,6.2089052734375,-1.7248492776632307,-0.7581689492609351,-0.7336748517345637
1782815242584988200,6.22898828125,-1.8396458696663378,-0.4241696343626827,-0.7532691214554011
1782815242605070000,6.249070068359375,-1.6627707148909567,0.05417421938851475,-0.6455714747373015
1782815242625152000,6.269152099609375,-1.2223761411100624,0.3903647607207298,-0.41743831681367005
1782815242645234200,6.289234130859375,-0.570891423740983,0.6175380241036414,-0.24266250893771646
1782815242665316000,6.309316162109375,0.06589490619003772,0.7697199055187404,-0.2849554441355169
1782815242685398000,6.32939794921875,0.6099117670089006,0.7744424039959907,-0.24499734509345142
1782815242705480200,6.349480224609375,0.9530915827065706,0.6951727601870894,-0.3914033099882304
1782815242725562000,6.36956201171875,0.9309043008178473,0.641728900899738,-0.6190840845018625
1782815242745644000,6.38964404296875,0.6661556322783231,0.7527968277685344,-0.8067833425652235
1782815242765727000,6.40972705078125,0.25761750148534773,0.959852309013158,-0.7236756549634039
1782815242785809200,6.42980908203125,-0.05909633209109306,1.2176644562877714,-0.6016264614835382
1782815242805891000,6.44989111328125,-0.29311551584601403,1.3964657568201422,-0.45309046229012306
1782815242825973000,6.469972900390625,0.031869886991381643,1.4435105627201497,-0.24271533510349688
1782815242846055000,6.490054931640625,0.5956634614259004,1.3026358188696205,-0.03412855263836682
1782815242866137000,6.51013720703125,1.0377706843435763,1.1140614584721624,-0.001878872549161315
1782815242886219000,6.530218994140625,1.2730945209562778,0.9703227034926414,0.07354257139898836
1782815242906301000,6.550301025390625,1.3411094880402088,0.8832226583190261,0.10977964062392712
1782815242926383000,6.570383056640625,1.218216098821163,0.7427006734289229,0.12374759489558636
1782815242946466300,6.59046630859375,0.8973732026159763,0.6226673498161137,0.09097462158463895
1782815242966548200,6.61054833984375,0.646830754083395,0.6783871912114322,0.09277180719971656
1782815242986630100,6.630630126953125,0.840382902893424,0.49519671580940483,0.23646277751475572
1782815243006712300,6.65071240234375,0.9310393253743648,0.1772667844414711,0.36761582636125384
1782815243026794200,6.670794189453125,0.7480956643402576,0.047313832099735734,0.36412381952703
1782815243046876200,6.690876220703125,0.2829886741071939,0.04037584953010082,0.25371837515495715
1782815243066958000,6.7109580078125,-0.43531507855951784,0.08880115000307559,0.1846319794472307
1782815243087040300,6.731040283203125,-1.3765660013467074,0.2936623360738158,0.11165084132328629
1782815243107122200,6.7511220703125,-2.2262772890776397,0.577017067014426,0.1688121136985719
1782815243127205000,6.771205078125,-2.589588623178005,0.8624585411012172,0.24008221012093126
1782815243147287000,6.791287109375,-2.165635481110215,1.030161232253164,0.29658845265358685
1782815243167369200,6.811369140625,-1.0544546926409006,0.9271271203666925,0.39156054637655613
1782815243187451100,6.831451171875,0.040729485273361205,0.6099971072047948,0.505433447663486
1782815243207533000,6.851532958984375,0.7098042198687792,0.3743010762788355,0.40982093714512885
1782815243227615200,6.871615234375,1.195036298763752,0.21417773433998225,0.34414793007746336
1782815243247697200,6.891697265625,1.5966116048067807,0.062414078336954115,0.38574053498618305
1782815243267779000,6.911779052734375,1.793290945726633,-0.10303118927702307,0.42607057261317965
1782815243287861000,6.931861083984375,1.6276584849774836,-0.2755738678060472,0.4150513120792806
1782815243307943000,6.95194287109375,1.2686381260693071,-0.46237128165885805,0.34961386733315886
1782815243328025900,6.97202587890625,0.9735311441451311,-0.5915282613173127,0.4098068355545401
1782815243348107800,6.992107666015625,0.5673766936182976,-0.6795636876448988,0.41871056523919103
1782815243368189700,7.012189697265625,-0.11809037285149097,-0.822852287704125,0.3121577777072787
1782815243388271900,7.03227197265625,-0.8203840709596872,-0.9137916918449104,0.11522044343836604
1782815243408353800,7.052353759765625,-1.5730255620360374,-1.0815139644801617,-0.13933401721455155
1782815243428435700,7.072435791015625,-1.9136638765573502,-1.1449098934613167,-0.21965397379398344
1782815243448518000,7.092517822265625,-1.8159008369415996,-1.17206553834714,-0.22122429185062645
1782815243468599800,7.112599853515625,-1.5177508340597152,-1.300188571847975,-0.20420400080364196
1782815243488681700,7.132681640625,-1.1711053880780935,-1.344728847581148,-0.21845040669050067
1782815243508764000,7.152763916015625,-0.7485393164545298,-1.325335726455599,-0.3441569536341354
1782815243528846800,7.172846923828125,-0.256940040615201,-1.1821185111321508,-0.5091668255055323
1782815243548928800,7.1929287109375,0.13001052774786948,-1.0146775396563112,-0.4390359622461721
1782815243569010700,7.2130107421875,0.42328035737276076,-0.75263725329265,-0.2968541543850675
1782815243589092600,7.233092529296875,0.6655828008264303,-0.5365250437587499,-0.1681530652679503
1782815243609174800,7.2531748046875,0.8661322611778974,-0.25809140260741115,-0.08978541180007159
1782815243629256700,7.273256591796875,0.851173761498928,-0.1991032070659101,0.022878771284222603
1782815243649338600,7.293338623046875,0.7833493485510349,-0.18332886095941064,-0.18262969971410928
1782815243669420800,7.3134208984375,0.40398996596932407,-0.2879999263979494,-0.4484312383074313
1782815243689502700,7.333502685546875,-0.23651509222388267,-0.262212428060174,-0.5987839315339922
1782815243709586000,7.3535859375,-0.746933050301671,-0.12337971143126487,-0.6760733613111078
1782815243729667800,7.373667724609375,-0.9631406830340623,0.03059402183666825,-0.5678433612819761
1782815243749750000,7.39375,-0.9509165767550468,0.14507482588887213,-0.411487664780952
1782815243769832000,7.41383203125,-0.8471428985476493,0.38680955245718357,0.017541209648549556
1782815243789913900,7.433913818359375,-0.5955886426240206,0.7115924184598028,0.4114492689993232
1782815243809995800,7.453995849609375,-0.2581815651088953,0.7744611086964607,0.5896598370969295
1782815243830078000,7.474077880859375,0.2571691731959581,0.8530746266841888,0.8439188219346105
1782815243850159900,7.494159912109375,0.7269833182066678,0.7748772882819175,1.0095886920846997
1782815243870241800,7.51424169921875,1.0365268217623234,0.65622109824121,1.034589716219902
1782815243890324000,7.534323974609375,0.906137523829937,0.594412876842916,1.0157729336775838
1782815243910407000,7.554406982421875,0.6623679304331541,0.6990612920582294,0.9410719860237091
1782815243930488800,7.57448876953125,0.631338001397252,0.7281462245061994,0.9772726687610149
1782815243950570800,7.59457080078125,0.7078180144876242,0.6955567910686135,0.9902020006999372
1782815243970653000,7.61465283203125,0.6344388900220393,0.6273267199292779,0.8324380813688039
1782815243990734800,7.63473486328125,0.36008009709417815,0.5540022482603788,0.6206367207713425
1782815244010816800,7.654816650390625,-0.03513561078906059,0.6130443659462035,0.5001309573411942
1782815244030898700,7.674898681640625,-0.3172060010075569,0.8688061565622687,0.40581725446172057
1782815244050980900,7.69498095703125,-0.417272641390562,1.0226512950144708,0.34441238969992843
1782815244071062800,7.715062744140625,-0.21781974410414695,1.0695293660454452,0.41277931202668694
1782815244091145700,7.735145751953125,0.2497282095402479,0.9728444770552217,0.20752912663836032
1782815244111227600,7.7552275390625,0.7866910601943731,0.913923647661507,0.23638017726521937
1782815244131309800,7.775309814453125,0.8111457024931907,0.6564601676940918,0.49892720757462083
1782815244151391700,7.795391845703125,0.15965806251466275,0.3745427760802209,0.04856505600353703
1782815244171473700,7.8154736328125,-0.7750988220781088,0.19267244336605072,-0.6589348872445523
1782815244191555800,7.835555908203125,-1.3596096058487892,0.08207973279356956,-0.9783129715941846
1782815244211637800,7.8556376953125,-1.2034767948508263,0.1851551996037364,-0.9174699419662355
1782815244231719700,7.8757197265625,-0.8237509170442819,0.11422039955034852,-0.2895585722831078
1782815244251801900,7.8958017578125,-0.25254443600475784,0.16390929021835327,0.35729386390913276
1782815244271884800,7.915884765625,0.06035071606636047,0.06612842268496752,0.3229727478407323
1782815244291966700,7.935966796875,-0.2144102279216051,-0.188310594894737,0.04637019457407295
1782815244312048600,7.956048583984375,-0.5572235483944415,-0.30319376920275387,-0.20281934151221065
1782815244332130600,7.976130615234375,-0.6160398945003748,-0.18451485587358474,-0.22723171557188032
1782815244352212700,7.996212646484375,-0.31133097149431704,-0.10295315560474991,-0.1344857004005462
1782815244372294700,8.016294677734376,-0.08387363047301769,-0.2283819085203111,-0.11612411427982151
1782815244392376600,8.03637646484375,0.2481681206166744,-0.19492687122933566,-0.08049334038496017
1782815244412458800,8.056458740234374,0.38528585002124305,-0.3942948667112738,-0.20285174594447017
1782815244432540700,8.076540771484375,0.21533611059486865,-0.709687023229897,-0.5752789911754429
1782815244452623600,8.09662353515625,-0.07939210114479064,-0.8610431213453411,-0.7815348464749753
1782815244472705500,8.11670556640625,-0.343748555496335,-0.6911666663508862,-0.6597802520275116
1782815244492787700,8.13678759765625,-0.36168811681270596,-0.39714031927026805,-0.2849055405791849
1782815244512869600,8.15686962890625,-0.221803260782361,-0.3330274011261761,0.006586757979169487
1782815244532951600,8.17695166015625,0.05205459688603878,-0.600065788038075,0.14488186060003935
1782815244553033500,8.197033447265625,0.1683393816202879,-0.8887730589877814,-0.02819017556533217
1782815244573115600,8.21711572265625,0.05732756885290145,-1.0724678306501358,-0.18713570589646697
1782815244593197600,8.237197509765625,-0.09690905313491821,-1.1261748709183186,-0.25804946316182614
1782815244613279500,8.257279541015626,-0.045852819636464114,-0.9418119907360524,-0.3586421732455492
1782815244633361700,8.277361572265624,-0.0994715970993042,-0.9408467989657073,-0.3591258651092648
1782815244653444600,8.297444580078125,-0.1391992118537426,-0.9728970840252935,-0.3889111278463155
1782815244673526500,8.317526611328125,-0.21539573182761668,-0.9398330918785184,-0.26924554156735536
1782815244693608400,8.3376083984375,-0.20003917274177074,-0.8684360080756246,-0.34145211512222884
1782815244713690600,8.357690673828126,-0.5438181233763695,-0.933652868873626,-0.686635160401091
1782815244733772500,8.3777724609375,-0.9980302101075649,-0.8938608105808495,-0.8199867422051728
1782815244753854500,8.3978544921875,-1.6162281594246626,-0.5864601642727851,-0.7004077382311225
1782815244773936400,8.417936279296875,-1.788319002532959,-0.1660495171174407,-0.704957729685679
1782815244794018800,8.438018798828125,-1.4705840092152356,0.20945772008076308,-0.8355680499576031
1782815244814100700,8.458100830078125,-1.008583752825856,0.23029402575194835,-0.6432604943811893
1782815244834182700,8.4781826171875,-0.601145692229271,0.34148484834805126,-0.45215530033186074
1782815244854264800,8.498264892578124,-0.3194546567171812,0.6430594188511372,-0.2947951394960284
1782815244874347800,8.51834765625,-0.015368249523639677,0.9576723346255719,-0.14971125351786613
1782815244894429700,8.5384296875,0.4157008620291948,1.1574793060466646,-0.018719076055195183
1782815244914511600,8.55851171875,0.776858817487955,1.1719896235667169,0.07814663112834096
1782815244934593800,8.57859375,0.8372177168607712,1.2051532036304473,0.024408428536914287
1782815244954675700,8.59867578125,0.7202788521319627,1.2583258447609842,-0.06809407846843823
1782815244974757600,8.618757568359374,0.6901233678430319,1.2264631181627512,-0.15051034973999486
1782815244994839600,8.638839599609375,0.6929676513582468,1.1543417386732995,-0.1558828182922676
1782815245014921700,8.658921630859375,0.7095429385840892,1.1238850794807076,-0.1516451076572761
1782815245035003600,8.679003662109375,0.8379431085258722,1.0076511481508612,-0.16405326526630667
1782815245055085600,8.69908544921875,1.1279489679187535,0.8199399804539979,-0.16787132571712135
1782815245075167700,8.719167724609376,1.2223632816284895,0.7288178401574492,0.05381155552200507
1782815245095249700,8.739249755859374,1.0348486594170332,0.8307675178080797,0.19711323882509021
1782815245115332600,8.75933251953125,0.7366033794671296,0.8844457703731954,0.3129747931785881
1782815245135414500,8.77941455078125,0.4497486775815487,0.8473429511643946,0.37147546093147243
1782815245155496700,8.79949658203125,0.2775666490584612,0.80792995531708,0.3751833390060812
1782815245175578600,8.81957861328125,0.25423954948484895,0.7703156794548034,0.4219892581162974
1782815245195660500,8.83966064453125,0.41067514282166956,0.6390364469453692,0.5371812791777775
1782815245215742500,8.859742431640624,0.4598901323676109,0.474814583646506,0.6960373411271721
1782815245235824600,8.87982470703125,0.39102176332473754,0.3902187763787806,0.6582085457313805
1782815245255906600,8.899906494140625,0.33946751717627044,0.21234131269305942,0.8055576732277869
1782815245275988500,8.919988525390625,0.06591828706562519,0.10528948959782719,0.9353932828001678
1782815245296070700,8.940070556640626,-0.18138532567620277,0.16733590366616843,0.9461516273755579
1782815245316152600,8.960152587890626,-0.4125777615725994,0.12470672225132584,1.0103032700948416
1782815245336234500,8.980234375,-0.6744546740680932,0.13853300302997232,0.9649567925453185
1782815245356316700,9.000316650390625,-0.9879536372512578,0.17791034304201603,0.9099764444056898
1782815245376399600,9.020399658203125,-1.0479296747863291,0.16038535387590527,0.8611836988598108
1782815245396481500,9.0404814453125,-0.7600584893345832,0.0417123588308692,0.684440353770554
1782815245416563500,9.0605634765625,-0.4381348121553659,-0.1748142767228186,0.551305264261365
1782815245436645600,9.080645751953124,-0.14505729023218153,-0.29188027496263386,0.47846791852228343
1782815245456727800,9.100727783203125,0.17342413753867147,-0.39447760286703704,0.3897464826919138
1782815245476809700,9.120809814453125,0.5225678300768136,-0.5546713796935975,0.392493479845114
1782815245496891600,9.1408916015625,0.681764120298624,-0.7070084516704082,0.30680333800204096
1782815245516973800,9.160973876953125,0.5419377164572478,-0.8150257587969303,0.14468129652664063
1782815245537055700,9.1810556640625,0.22567630282342432,-0.9500916702382266,-0.12892950931182132
1782815245557137700,9.2011376953125,-0.021377719071507453,-1.0669437334664165,-0.3692328696364537
1782815245577219800,9.2212197265625,-0.3724854051589966,-1.1173469098836184,-0.4912829764317721
1782815245597301800,9.2413017578125,-0.7206465164005756,-0.9841397780515253,-0.5278576801132411
1782815245617383700,9.2613837890625,-0.8769558530092239,-0.9557457504771649,-0.48597979198973623
1782815245637466600,9.281466552734376,-0.9783376676440239,-0.9571326747909188,-0.4722827270813286
1782815245657548500,9.301548583984374,-1.096696336042881,-0.9270280439063906,-0.48253312213458116
1782815245677630700,9.321630615234374,-1.203579670703411,-0.888435716792196,-0.47561457491777837
1782815245697712600,9.341712646484375,-1.1550462336808442,-0.8732989379368722,-0.3837672621518373
1782815245717794600,9.361794677734375,-0.5598568195074797,-0.9084272422023117,-0.27724132609423247
1782815245737876700,9.381876708984375,-0.19085458028912544,-1.158051260715723,-0.05839552687797695
1782815245757958700,9.401958740234376,-0.30195348681807516,-1.0573287867724894,-0.0699351214915514
1782815245778040600,9.42204052734375,-0.7549912690728903,-0.7721604305386542,-0.08857347872704267
1782815245798122800,9.442122802734374,-1.1586579944372177,-0.39031493022963404,-0.13421882962528614
1782815245818204700,9.46220458984375,-1.2274047829270363,0.00030132103413343426,-0.09080313747525215
1782815245838286600,9.48228662109375,-0.9058575378447771,0.288148102696985,-0.06285137377567589
1782815245858368500,9.502368408203125,-0.31416824074685573,0.5041144740194082,0.05095200593899935
1782815245878450700,9.52245068359375,0.29897651683390136,0.811860426633805,0.17725726769445463
1782815245898532600,9.54253271484375,0.7711439469724893,0.9912656844086944,0.28571360555905845
1782815245918614500,9.562614501953124,1.1113678354740142,1.0518797275863587,0.2965559751560911
1782815245938696700,9.58269677734375,1.2549112140119074,1.0503028336584568,0.3257714386485517
1782815245958779600,9.602779541015625,1.212058160713315,1.1353367400825023,0.21781408154834062
1782815245978861600,9.622861572265625,1.0956553025573492,1.1054128725923598,0.14817984269950538
1782815245998943500,9.642943603515626,0.9100923989355564,0.9454856377474963,0.045477081659249956
1782815246019025700,9.663025634765624,0.165916538387537,0.9851989317156374,-0.0458658435148187
1782815246039107600,9.683107666015625,-0.5419482378512621,1.1920736495658755,-0.03875540872141719
1782815246059189500,9.703189453125,-0.8841653459966182,1.3900477064713834,-0.09276073781643063
1782815246079271700,9.723271728515625,-0.6152478673398495,1.2984928738459944,-0.022367753022164105
1782815246099354600,9.743354736328126,-0.2799275329709053,1.0538625719666481,0.013012443645112216
1782815246119436800,9.763436767578124,-0.16420914994776248,0.9405769690483808,-0.2758785133084282
1782815246139518700,9.783518798828124,0.09227963976860046,0.786598851866275,-0.5100581848546862
1782815246159600600,9.8036005859375,0.44303895080983635,0.6273680748529732,-0.7041969013810158
1782815246179682800,9.823682861328125,0.5007669171571731,0.3502637826092541,-0.7918317840836941
1782815246199764700,9.8437646484375,0.27125089004039765,0.23223449229523538,-0.9174635122254491
1782815246219846700,9.8638466796875,0.015416180318593977,0.13907090929895638,-0.9730695179827511
1782815246239928800,9.8839287109375,-0.3074631901502609,0.1596902112185955,-0.9272528656382113
1782815246260010800,9.9040107421875,-0.6288403393626213,0.26448475690633055,-0.7391232533335685
1782815246280092700,9.9240927734375,-0.7962760501414538,0.5318550061210989,-0.5689976824162527
1782815246300174600,9.944174560546875,-0.5423737697869538,0.5341629908025265,-0.31285043614655733
1782815246320257500,9.964257568359375,0.1753314324647188,0.28760318216532466,-0.2027156984746456
1782815246340339700,9.984339599609376,0.7406032627582549,0.05476780136749148,-0.12547299391608685
1782815246360421600,10.004421630859374,0.9020873716562986,-0.09432853512242435,0.001562500076368451
1782815246380503600,10.024503662109375,0.8217056749522685,-0.12264043737128376,-0.17035616480279714
1782815246400585700,10.044585693359375,0.7283703886508941,-0.3171742906950414,-0.29733720692796634
1782815246420667600,10.064667724609375,0.6695522889792919,-0.39468759235590695,-0.2490813630040735
1782815246440749600,10.08474951171875,0.3615197745084762,-0.32557883868589993,0.03600536109460518
1782815246460831700,10.104831787109376,-0.05338321514129638,-0.143594231942296,0.16759970570150762
1782815246480913700,10.12491357421875,-0.3610200082927942,-0.05504632604792714,0.35119638728424907
1782815246500995600,10.14499560546875,-0.49264498549997804,-0.1164082649834454,0.43276948572993273
1782815246521077800,10.165077880859375,-0.4350935447633266,-0.2435956981346011,0.5198534200189635
1782815246541160700,10.18516064453125,-0.19611586181819438,-0.33520489129573106,0.6545427897654473
1782815246561242600,10.20524267578125,0.026830139258503912,-0.4773308042511344,0.7503216698266565
1782815246581324500,10.225324462890624,0.2493582071840763,-0.643297465390712,0.7316992408126592
1782815246601406500,10.245406494140624,0.30185645618438717,-0.7968924284741282,0.6678161859016866
1782815246621488600,10.265488525390625,0.21095628807544706,-0.7936996237821876,0.567292632064037
1782815246641570600,10.285570556640625,0.28707974281311033,-0.7968382140688598,0.5471514325175434
1782815246661652500,10.305652587890625,0.37272155200242996,-0.7693179005891084,0.48311965331826356
1782815246681734700,10.325734619140626,0.5518628981441259,-0.7367594468116759,0.4971968766506761
1782815246701816600,10.345816650390624,0.24123043030798433,-0.8816035326845943,0.34403489815704524
1782815246721899500,10.3658994140625,-0.16413082401454449,-0.7275096801683306,0.03350508697777986
1782815246741981700,10.385981689453125,-0.4895440968751907,-0.7191954408094287,-0.010581782432086765
