time,seconds_elapsed,z,y,x
1782814914855626000,0.0506259765625,0.13877330720424652,-0.26181596517562866,-0.25362923741340637
1782814914875709200,0.070709228515625,0.09245260804891586,-0.3475063145160675,-0.30185675621032715
1782814914895792000,0.090792236328125,0.03185966610908508,-0.36393240094184875,-0.34620338678359985
1782814914915875000,0.110875,0.022365260869264603,-0.3062017261981964,-0.3054415285587311
1782814914935958000,0.1309580078125,0.04275751858949661,-0.2035287767648697,-0.144727423787117
1782814914956041200,0.151041259765625,0.05839580297470093,-0.15779052674770355,0.03126182779669762
1782814914976124400,0.17112451171875,0.06955397874116898,-0.15893855690956116,0.11641722172498703
1782814914996207400,0.191207275390625,0.06455003470182419,-0.15797153115272522,0.1124849021434784
1782814915016290300,0.211290283203125,0.047584496438503265,-0.1253901869058609,0.08484411239624023
1782814915036373500,0.23137353515625,0.02248813398182392,0.022854290902614594,0.043146248906850815
1782814915056456400,0.25145654296875,0.03930393233895302,0.22514300048351288,0.02813483029603958
1782814915076539400,0.271539306640625,0.07291585206985474,0.27986565232276917,0.03155233711004257
1782814915096622600,0.29162255859375,0.08939063549041748,0.17964060604572296,0.0739574283361435
1782814915116705500,0.31170556640625,0.08546840399503708,0.00540645606815815,0.09254851192235947
1782814915136788500,0.33178857421875,0.10150965303182602,-0.04335201159119606,0.10984037816524506
1782814915156871400,0.351871337890625,0.12821386754512787,-0.0012400802224874496,0.10016512125730515
1782814915176954600,0.37195458984375,0.13634362816810608,0.017170822247862816,0.07814235985279083
1782814915197037600,0.39203759765625,0.12269069999456406,0.0048967162147164345,0.12132170051336288
1782814915217120500,0.41212060546875,0.05085476487874985,-0.0025681136175990105,0.2829834520816803
1782814915237203500,0.432203369140625,-0.040057968348264694,-0.0300999004393816,0.5070787668228149
1782814915257286700,0.45228662109375,-0.10203677415847778,-0.11523095518350601,0.6106835007667542
1782814915277369600,0.47236962890625,-0.11800256371498108,-0.18824054300785065,0.5139015316963196
1782814915297452500,0.49245263671875,-0.10686349868774414,-0.1488173007965088,0.35785940289497375
1782814915317535500,0.512535400390625,-0.12949880957603455,-0.03171804919838905,0.2716764807701111
1782814915337618400,0.532618408203125,-0.18420253694057465,0.011399860493838787,0.17765064537525177
1782814915357701600,0.55270166015625,-0.18833903968334198,0.04523559659719467,0.04412868618965149
1782814915377784600,0.57278466796875,-0.1416940540075302,0.13952364027500153,-0.12751351296901703
1782814915397867500,0.592867431640625,-0.0881081223487854,0.2789888083934784,-0.30485770106315613
1782814915417950500,0.612950439453125,-0.02788166143000126,0.42197901010513306,-0.46024078130722046
1782814915438033400,0.633033447265625,0.07398249208927155,0.5307784080505371,-0.5602924227714539
1782814915458116600,0.65311669921875,0.20220676064491272,0.5879648327827454,-0.5996926426887512
1782814915478199600,0.673199462890625,0.25697359442710876,0.46390673518180847,-0.6027098894119263
1782814915498282500,0.693282470703125,0.2440524846315384,0.2008456587791443,-0.6101408004760742
1782814915518365400,0.713365478515625,0.26277607679367065,-0.04468480497598648,-0.6629461646080017
1782814915538448400,0.733448486328125,0.35220903158187866,-0.164143905043602,-0.7223582863807678
1782814915558531600,0.753531494140625,0.4726930260658264,-0.16732031106948853,-0.6802172660827637
1782814915578614500,0.773614501953125,0.58092200756073,-0.05719248577952385,-0.5086356401443481
1782814915598697500,0.793697509765625,0.6431376934051514,0.061452675610780716,-0.26914694905281067
1782814915618780400,0.813780517578125,0.7001818418502808,0.14321507513523102,-0.04498240351676941
1782814915638863400,0.83386328125,0.7649701237678528,0.2692432105541229,0.04288249835371971
1782814915658946600,0.853946533203125,0.82980877161026,0.5146472454071045,-0.04606417939066887
1782814915679029500,0.874029541015625,0.8335196375846863,0.6001573204994202,-0.23981714248657227
1782814915699112400,0.894112548828125,0.7926926016807556,0.42100071907043457,-0.33017274737358093
1782814915719195400,0.9141953125,0.7226446866989136,0.12240415066480637,-0.17888452112674713
1782814915739278600,0.934278564453125,0.6089052557945251,-0.12951450049877167,0.14913947880268097
1782814915759361500,0.954361572265625,0.47457507252693176,-0.3780934810638428,0.46602365374565125
1782814915779444500,0.974444580078125,0.3624541163444519,-0.5632336139678955,0.6485435366630554
1782814915799527400,0.99452734375,0.3134133517742157,-0.6106351017951965,0.6911009550094604
1782814915819610400,1.0146103515625,0.26118677854537964,-0.5753613114356995,0.6004517078399658
1782814915839693600,1.034693603515625,0.16795580089092255,-0.503959059715271,0.42467182874679565
1782814915859776500,1.054776611328125,0.03443069010972977,-0.3743525445461273,0.2501707077026367
1782814915879859500,1.074859375,-0.13441552221775055,-0.20666848123073578,0.11835070699453354
1782814915899942400,1.0949423828125,-0.31170737743377686,-0.05744418129324913,0.035828057676553726
1782814915920025300,1.115025390625,-0.473403662443161,0.052842315286397934,-0.00773594668135047
1782814915940108500,1.135108642578125,-0.5948715806007385,0.10560174286365509,-0.03516688197851181
1782814915960192300,1.155192138671875,-0.6865993142127991,0.10354845225811005,-0.01960807852447033
1782814915980275200,1.175275146484375,-0.7374587059020996,-0.0349121019244194,0.05097576230764389
1782814916000358100,1.195358154296875,-0.7230367064476013,-0.3294595181941986,0.10659032315015793
1782814916020441300,1.21544140625,-0.6377776265144348,-0.48527172207832336,0.15922729671001434
1782814916040524300,1.235524169921875,-0.5515098571777344,-0.5666308403015137,0.24622532725334167
1782814916060607200,1.255607177734375,-0.4823748469352722,-0.5557211637496948,0.33648446202278137
1782814916080690200,1.275690185546875,-0.40220963954925537,-0.4679398536682129,0.3592342734336853
1782814916100773000,1.295773193359375,-0.31889456510543823,-0.3182376027107239,0.29427748918533325
1782814916120856300,1.315856201171875,-0.29666346311569214,-0.20345406234264374,0.17226678133010864
1782814916140939300,1.335939208984375,-0.345249742269516,-0.21899038553237915,0.04261835664510727
1782814916161022200,1.356022216796875,-0.4046774208545685,-0.3325381278991699,-0.0642177164554596
1782814916181105200,1.376105224609375,-0.44946780800819397,-0.4663420021533966,-0.14684627950191498
1782814916201188000,1.39618798828125,-0.4780675768852234,-0.5489211082458496,-0.20466411113739014
1782814916221271300,1.416271240234375,-0.440006285905838,-0.5204121470451355,-0.24879783391952515
1782814916241354200,1.436354248046875,-0.33485516905784607,-0.42104414105415344,-0.2863565981388092
1782814916261437200,1.456437255859375,-0.22099944949150085,-0.27071303129196167,-0.3218250572681427
1782814916281520000,1.47652001953125,-0.1379675269126892,-0.04550740495324135,-0.3573559820652008
1782814916301603000,1.49660302734375,-0.08085611462593079,0.18419374525547028,-0.38102009892463684
1782814916321686300,1.516686279296875,-0.013062280602753162,0.31964850425720215,-0.38652825355529785
1782814916341769200,1.536769287109375,0.09635980427265167,0.38442716002464294,-0.355551540851593
1782814916361852200,1.55685205078125,0.2125549614429474,0.30761829018592834,-0.2276005744934082
1782814916381935000,1.57693505859375,0.29012182354927063,0.13076308369636536,0.014387167058885098
1782814916402019300,1.597019287109375,0.3261410593986511,-0.17303064465522766,0.26471179723739624
1782814916422102300,1.617102294921875,0.35160332918167114,-0.356706440448761,0.5161352753639221
1782814916442185200,1.637185302734375,0.3733816146850586,-0.32995352149009705,0.7582929730415344
1782814916462268200,1.65726806640625,0.3835987150669098,-0.13989414274692535,0.9204719066619873
1782814916482351400,1.677351318359375,0.40279263257980347,0.09206432104110718,0.928520143032074
1782814916502434300,1.697434326171875,0.345657080411911,0.25916317105293274,0.8389441967010498
1782814916522517200,1.717517333984375,0.24859686195850372,0.28225916624069214,0.7537137269973755
1782814916542600200,1.73760009765625,0.14529253542423248,0.19169968366622925,0.717354953289032
1782814916562683100,1.75768310546875,0.021738816052675247,-0.003511825343593955,0.6852860450744629
1782814916582766300,1.777766357421875,-0.10395548492670059,-0.20137257874011993,0.6440010666847229
1782814916602849300,1.797849365234375,-0.20955847203731537,-0.2765287756919861,0.6168182492256165
1782814916622932200,1.81793212890625,-0.2568674385547638,-0.2063445746898651,0.6600580811500549
1782814916643015200,1.83801513671875,-0.23485499620437622,-0.057906512171030045,0.7630866765975952
1782814916663098000,1.85809814453125,-0.15867508947849274,0.09192720055580139,0.8488408923149109
1782814916683181300,1.878181396484375,-0.062245287001132965,0.23338916897773743,0.8690553903579712
1782814916703264300,1.89826416015625,0.013811009004712105,0.2998470962047577,0.7898858189582825
1782814916723348200,1.91834814453125,0.07034768164157867,0.2534131109714508,0.6214550137519836
1782814916743431200,1.93843115234375,0.103953056037426,0.0884527862071991,0.38955774903297424
1782814916763514400,1.958514404296875,0.11285152286291122,-0.16461005806922913,0.13060739636421204
1782814916783597300,1.978597412109375,0.09943677484989166,-0.34365788102149963,-0.11281653493642807
1782814916803680300,1.99868017578125,0.061619460582733154,-0.4434640109539032,-0.3537793457508087
1782814916823763200,2.01876318359375,0.015005865134298801,-0.419535368680954,-0.5622524619102478
1782814916843846100,2.03884619140625,-0.06247616931796074,-0.3507609963417053,-0.6470732688903809
1782814916863929300,2.058929443359375,-0.16777512431144714,-0.31176891922950745,-0.5987125635147095
1782814916884012300,2.07901220703125,-0.21784363687038422,-0.28406333923339844,-0.5064483880996704
1782814916904095200,2.09909521484375,-0.19234271347522736,-0.15665853023529053,-0.4495365023612976
1782814916924178200,2.11917822265625,-0.10099899768829346,0.12396863102912903,-0.44415482878685
1782814916944261000,2.13926123046875,-0.011212357319891453,0.35970833897590637,-0.47670459747314453
1782814916964345000,2.159344970703125,0.032577406615018845,0.40622010827064514,-0.5481029152870178
1782814916984428300,2.17942822265625,0.07436326146125793,0.33641916513442993,-0.627236008644104
1782814917004511200,2.19951123046875,0.10398006439208984,0.21634060144424438,-0.6741786599159241
1782814917024595000,2.219594970703125,0.12137322872877121,0.09466935694217682,-0.6549715995788574
1782814917044678000,2.239677978515625,0.15234212577342987,0.03130701556801796,-0.5761154294013977
1782814917064761000,2.259760986328125,0.19725783169269562,0.003240178804844618,-0.4878634214401245
1782814917084844000,2.279843994140625,0.21994328498840332,-0.023143602535128593,-0.4497328996658325
1782814917104927000,2.299927001953125,0.20736487209796906,-0.0656023621559143,-0.4460180997848511
1782814917125010000,2.320010009765625,0.16350813210010529,-0.1018870398402214,-0.4364713430404663
1782814917145092900,2.3400927734375,0.10501866042613983,-0.14005446434020996,-0.42474547028541565
1782814917165176000,2.360176025390625,0.044653017073869705,-0.19189074635505676,-0.4220261573791504
1782814917185259000,2.380259033203125,-0.020836396142840385,-0.18982024490833282,-0.3918408751487732
1782814917205342000,2.400342041015625,-0.07525684684515,-0.07780344784259796,-0.30738088488578796
1782814917225425000,2.4204248046875,-0.11790244281291962,0.12477125227451324,-0.19753551483154297
1782814917245507800,2.4405078125,-0.14530807733535767,0.28162169456481934,-0.13489922881126404
1782814917265591000,2.460591064453125,-0.15226656198501587,0.3504500687122345,-0.11811809241771698
1782814917285675000,2.480675048828125,-0.1506618857383728,0.3854055106639862,-0.07702255994081497
1782814917305758000,2.500758056640625,-0.14079880714416504,0.38814473152160645,-0.02874169498682022
1782814917325841000,2.5208408203125,-0.12642891705036163,0.374580442905426,0.009383318945765495
1782814917345924000,2.540924072265625,-0.10987773537635803,0.3537180721759796,0.036153290420770645
1782814917366007000,2.561007080078125,-0.07916996628046036,0.35833555459976196,0.0669533982872963
1782814917386090000,2.581090087890625,-0.03439422696828842,0.2171531617641449,0.03529340773820877
1782814917406173000,2.6011728515625,-0.010494519025087357,-0.03981223329901695,-0.03816733509302139
1782814917426256100,2.621256103515625,0.05399575084447861,-0.13446494936943054,-0.038705870509147644
1782814917446339000,2.641339111328125,0.1717842072248459,-0.1276555359363556,0.03706084191799164
1782814917466422000,2.661422119140625,0.3482622504234314,-0.012042691931128502,0.17014700174331665
1782814917486505000,2.6815048828125,0.5364664793014526,0.15002942085266113,0.32963868975639343
1782814917506588000,2.701587890625,0.6448876857757568,0.2076069861650467,0.5012351274490356
1782814917526671000,2.721671142578125,0.7081534266471863,0.17288470268249512,0.6527566909790039
1782814917546755000,2.741755126953125,0.7750781178474426,0.15118446946144104,0.7489356994628906
1782814917566838000,2.761838134765625,0.8461217284202576,0.11998753994703293,0.7545765042304993
1782814917586921000,2.7819208984375,0.8576923608779907,-0.009550744667649269,0.7123968005180359
1782814917607004200,2.802004150390625,0.7977192997932434,-0.20002736151218414,0.7042255401611328
1782814917627087000,2.822087158203125,0.6701233983039856,-0.31530192494392395,0.7535014748573303
1782814917647170000,2.842170166015625,0.5380150079727173,-0.287466824054718,0.8147839307785034
1782814917667253000,2.8622529296875,0.4328019320964813,-0.14064615964889526,0.8547775149345398
1782814917687336000,2.8823359375,0.33896806836128235,0.04065806791186333,0.8375000357627869
1782814917707419100,2.902419189453125,0.25085753202438354,0.27459394931793213,0.755966067314148
1782814917727502000,2.922502197265625,0.18034464120864868,0.5076759457588196,0.6012149453163147
1782814917747585000,2.9425849609375,0.13315840065479279,0.6522305011749268,0.4137655794620514
1782814917767668000,2.96266796875,0.08575458079576492,0.6920232176780701,0.20336908102035522
1782814917787752200,2.982752197265625,0.035109322518110275,0.5747356414794922,-0.03343240171670914
1782814917807835100,3.002835205078125,-0.024330751970410347,0.3220103979110718,-0.2778478264808655
1782814917827918000,3.02291796875,-0.10620248317718506,0.04852085933089256,-0.5431972742080688
1782814917848001000,3.0430009765625,-0.19423580169677734,-0.15242362022399902,-0.8651186227798462
1782814917868084000,3.063083984375,-0.2572692632675171,-0.2486359030008316,-1.1320486068725586
1782814917888167200,3.083167236328125,-0.2647130787372589,-0.2386416345834732,-1.1843303442001343
1782814917908250000,3.10325,-0.2163202464580536,-0.00451658945530653,-0.9479789137840271
1782814917928333000,3.1233330078125,-0.10692831873893738,0.24712933599948883,-0.5811061859130859
1782814917948416000,3.143416015625,0.0382598340511322,0.36122703552246094,-0.3114551603794098
1782814917968499200,3.163499267578125,0.1872333437204361,0.3296070694923401,-0.20320698618888855
1782814917988582100,3.18358203125,0.2601252794265747,0.2093377560377121,-0.16534927487373352
1782814918008665000,3.2036650390625,0.2757449150085449,0.0674523189663887,-0.14444366097450256
1782814918028749000,3.2237490234375,0.2515723705291748,-0.01974441669881344,-0.13253246247768402
1782814918048832300,3.243832275390625,0.21643200516700745,-0.06244733929634094,-0.17566554248332977
1782814918068915200,3.263915283203125,0.19016437232494354,-0.08591718971729279,-0.2745603322982788
1782814918088998100,3.283998046875,0.18326710164546967,-0.10502844303846359,-0.38548344373703003
1782814918109081000,3.3040810546875,0.17602311074733734,-0.1310499906539917,-0.46018412709236145
1782814918129164300,3.324164306640625,0.1632816642522812,-0.12371030449867249,-0.4315558075904846
1782814918149247200,3.344247314453125,0.12551605701446533,-0.12885311245918274,-0.34623655676841736
1782814918169330200,3.364330078125,0.11251495033502579,-0.1500532180070877,-0.2578907012939453
1782814918189413000,3.3844130859375,0.10000571608543396,-0.1974138468503952,-0.15405279397964478
1782814918209496000,3.40449609375,0.047078296542167664,-0.2201017290353775,0.008800388313829899
1782814918229580300,3.424580322265625,-0.03432692587375641,-0.17053139209747314,0.17730344831943512
1782814918249663200,3.444663330078125,-0.15880434215068817,-0.11347204446792603,0.2722712755203247
1782814918269746200,3.46474609375,-0.2919546365737915,-0.020039742812514305,0.2718839645385742
1782814918289829000,3.4848291015625,-0.3669770658016205,0.018654949963092804,0.20527200400829315
1782814918309912300,3.504912353515625,-0.3824421167373657,-0.007873376831412315,0.12595555186271667
1782814918329995300,3.524995361328125,-0.4269717037677765,0.08371219038963318,0.1188490241765976
1782814918350078200,3.545078125,-0.5369750261306763,0.12189614772796631,0.19775506854057312
1782814918370161200,3.5651611328125,-0.3764702379703522,-0.06993566453456879,0.26126816868782043
1782814918390244000,3.585244140625,-0.1509951800107956,-0.09706593304872513,0.35309845209121704
1782814918410327300,3.605327392578125,0.07405585050582886,-0.001703346148133278,0.4128011167049408
1782814918430410200,3.62541015625,0.2212006151676178,-0.1347484439611435,0.28842294216156006
1782814918450494000,3.645493896484375,0.11801863461732864,-0.659963071346283,-0.04993513226509094
1782814918470577000,3.665576904296875,-0.07527025043964386,-0.8466638922691345,-0.203767791390419
1782814918490660000,3.68566015625,-0.1287304162979126,-0.6813471913337708,-0.03693890571594238
1782814918510743000,3.705742919921875,0.010319207794964314,-0.10840108245611191,0.42030009627342224
1782814918530826000,3.725825927734375,0.12736037373542786,0.2975998818874359,0.7975082397460938
1782814918550909000,3.745908935546875,0.14619819819927216,0.024492699652910233,0.7675132155418396
1782814918570991900,3.765991943359375,0.13567866384983063,-0.39130207896232605,0.5164751410484314
1782814918591075000,3.786074951171875,0.04201758652925491,-0.7447174787521362,0.25113531947135925
1782814918611158000,3.806157958984375,-0.039124637842178345,-0.774517834186554,0.18261921405792236
1782814918631241000,3.826240966796875,-0.06858162581920624,-0.5227131247520447,0.3213748037815094
1782814918651325000,3.846324951171875,-0.020754581317305565,-0.08002444356679916,0.5592937469482422
1782814918671408000,3.866408203125,0.07068222761154175,0.3358319401741028,0.694674551486969
1782814918691491000,3.886490966796875,0.19114263355731964,0.6746006608009338,0.6580755710601807
1782814918711574000,3.906573974609375,0.3130548894405365,0.9236049056053162,0.4637678563594818
1782814918731657000,3.926656982421875,0.4308410584926605,1.1578363180160522,0.1954965442419052
1782814918751740200,3.946740234375,0.5478135347366333,1.2883727550506592,-0.11058423668146133
1782814918771823000,3.966822998046875,0.6517784595489502,1.3137376308441162,-0.42354023456573486
1782814918791906000,3.986906005859375,0.6314795613288879,1.0390983819961548,-0.7176795601844788
1782814918811989000,4.006989013671875,0.3820632994174957,0.4948405921459198,-0.9470860958099365
1782814918832072000,4.027072021484375,-0.013495505787432194,-0.0773812085390091,-0.9805616140365601
1782814918852156200,4.04715625,-0.34057870507240295,-0.22796368598937988,-0.8570423126220703
1782814918872239000,4.067239013671875,-0.5001673102378845,-0.008516822941601276,-0.755968451499939
1782814918892322000,4.087322021484375,-0.4636601209640503,0.3855232298374176,-0.6463391780853271
1782814918912405000,4.107405029296875,-0.2963685095310211,0.7047666907310486,-0.4409893751144409
1782814918932488200,4.12748828125,-0.032845206558704376,0.933447003364563,-0.14074529707431793
1782814918952571100,4.147571044921875,0.26550203561782837,0.9215939044952393,0.12998801469802856
1782814918972653300,4.1676533203125,0.5123791694641113,0.6806713938713074,0.32501620054244995
1782814918992736300,4.187736328125,0.6328548789024353,0.26949208974838257,0.40949487686157227
1782814919012819500,4.2078193359375,0.5981583595275879,-0.26839253306388855,0.40992844104766846
1782814919032902400,4.22790234375,0.4350661635398865,-0.8117237091064453,0.40194883942604065
1782814919052986400,4.247986328125,0.23090073466300964,-1.24018132686615,0.3952225148677826
1782814919073069300,4.2680693359375,0.09373041987419128,-1.4356013536453247,0.38097694516181946
1782814919093152500,4.288152587890625,0.030469095334410667,-1.3911609649658203,0.37634149193763733
1782814919113235500,4.3082353515625,-0.009006278589367867,-1.16355299949646,0.3738268315792084
1782814919133318400,4.328318359375,-0.02599075809121132,-0.7499580383300781,0.38569843769073486
1782814919153401300,4.3484013671875,-0.08319699019193649,-0.28356921672821045,0.3467824459075928
1782814919173484300,4.368484375,-0.13177931308746338,0.10121225565671921,0.21869707107543945
1782814919193567500,4.3885673828125,-0.12559807300567627,0.26101523637771606,0.06327369809150696
1782814919213650400,4.408650390625,-0.08423704653978348,0.24060581624507904,0.020056720823049545
1782814919233733400,4.4287333984375,-0.049952585250139236,0.13321144878864288,0.029566070064902306
1782814919253817300,4.4488173828125,-0.013583136722445488,-0.030061474069952965,-0.0481613464653492
1782814919273900500,4.468900634765625,-0.037848833948373795,-0.1452634185552597,-0.17191262543201447
1782814919293983500,4.4889833984375,-0.10019472241401672,-0.27565762400627136,-0.24416127800941467
1782814919314066400,4.50906640625,-0.15470735728740692,-0.41437047719955444,-0.26765507459640503
1782814919334149400,4.5291494140625,-0.20576639473438263,-0.46989959478378296,-0.33081963658332825
1782814919354232600,4.549232666015625,-0.19203723967075348,-0.2932821214199066,-0.3955889046192169
1782814919374315500,4.5693154296875,-0.17393574118614197,-0.08338772505521774,-0.4303538203239441
1782814919394398500,4.5893984375,-0.15800301730632782,0.06946605443954468,-0.5430669784545898
1782814919414481400,4.6094814453125,-0.10200893133878708,0.2482728809118271,-0.714461088180542
1782814919434565600,4.629565673828125,-0.05438075587153435,0.32537633180618286,-0.8992378115653992
1782814919454648600,4.649648681640625,0.009769603610038757,0.251349538564682,-0.9759532809257507
1782814919474731500,4.6697314453125,0.10659600794315338,0.10520319640636444,-0.8012245297431946
1782814919494814500,4.689814453125,0.19183260202407837,0.062121178954839706,-0.39623144268989563
1782814919514897400,4.7098974609375,0.2879702150821686,0.13840670883655548,0.013812040910124779
1782814919534980600,4.729980712890625,0.3862780034542084,0.19186905026435852,0.1984758973121643
1782814919555063600,4.7500634765625,0.43576714396476746,0.2277863770723343,0.16256161034107208
1782814919575146500,4.770146484375,0.4254090487957001,0.22205407917499542,0.10578634589910507
1782814919595229400,4.7902294921875,0.32923856377601624,0.1740889996290207,0.09377968311309814
1782814919615312400,4.8103125,0.23042409121990204,0.13725623488426208,0.12574869394302368
1782814919635396600,4.830396728515625,0.16701842844486237,0.15928399562835693,0.15884967148303986
1782814919655479600,4.8504794921875,0.1618809700012207,0.23334729671478271,0.18790826201438904
1782814919675562500,4.8705625,0.17856232821941376,0.27430444955825806,0.21107371151447296
1782814919695645400,4.8906455078125,0.14939941465854645,0.27877292037010193,0.23812220990657806
1782814919715728600,4.910728759765625,0.06784727424383163,0.2598415017127991,0.22998657822608948
1782814919735811600,4.9308115234375,-0.04682754725217819,0.27778005599975586,0.16755332052707672
1782814919755894500,4.95089453125,-0.16931305825710297,0.3315863311290741,0.03770948201417923
1782814919775977500,4.9709775390625,-0.2626178562641144,0.36507272720336914,-0.1546948254108429
1782814919796060400,4.991060302734375,-0.33185601234436035,0.36548352241516113,-0.3572533428668976
1782814919816144400,5.011144287109375,-0.3681434988975525,0.3422169089317322,-0.5012591481208801
1782814919836227300,5.031227294921875,-0.3583187758922577,0.34546682238578796,-0.5586478114128113
1782814919856310300,5.051310302734375,-0.3192204236984253,0.38289162516593933,-0.575011134147644
1782814919876393500,5.0713935546875,-0.24809598922729492,0.40656566619873047,-0.5652924180030823
1782814919896476400,5.091476318359375,-0.1749410778284073,0.3861556053161621,-0.5100939869880676
1782814919916559400,5.111559326171875,-0.1081966757774353,0.3393113315105438,-0.4490148425102234
1782814919936642300,5.131642333984375,-0.0614808164536953,0.2503913938999176,-0.4279782772064209
1782814919956725200,5.151725341796875,-0.03778652846813202,0.11315319687128067,-0.4584389626979828
1782814919976808400,5.171808349609375,-0.009662456810474396,0.011943362653255463,-0.5137084126472473
1782814919996891400,5.191891357421875,-0.0028423850890249014,-0.04738715663552284,-0.6010172367095947
1782814920016975400,5.211975341796875,-0.0022097304463386536,-0.12962572276592255,-0.6789675951004028
1782814920037058600,5.23205859375,0.011734080500900745,-0.15944521129131317,-0.6695252656936646
1782814920057141500,5.2521416015625,0.06925610452890396,-0.03422042354941368,-0.5485657453536987
1782814920077224400,5.272224365234375,0.13358032703399658,0.1755400002002716,-0.3346503674983978
1782814920097307400,5.292307373046875,0.17276491224765778,0.22645649313926697,-0.09275404363870621
1782814920117390300,5.312390380859375,0.22128178179264069,0.13062086701393127,0.12339407950639725
1782814920137473500,5.3324736328125,0.26581862568855286,0.008200682699680328,0.28549376130104065
1782814920157556500,5.352556396484375,0.3058948516845703,-0.07547106593847275,0.3723143935203552
1782814920177639400,5.372639404296875,0.34465381503105164,-0.10459304600954056,0.39453646540641785
1782814920197722400,5.392722412109375,0.3484416902065277,-0.08151558041572571,0.36166954040527344
1782814920217805300,5.412805419921875,0.31885769963264465,-0.03874664753675461,0.29496949911117554
1782814920237888500,5.432888427734375,0.2825005054473877,-0.06471256911754608,0.19587385654449463
1782814920257971500,5.452971435546875,0.25859004259109497,-0.04703393578529358,0.1123645082116127
1782814920278054400,5.473054443359375,0.21716684103012085,0.0216370839625597,0.07700202614068985
1782814920298138400,5.493138427734375,0.16554352641105652,0.09668350964784622,0.10729659348726273
1782814920318221600,5.5132216796875,0.14339740574359894,0.15495990216732025,0.16905654966831207
1782814920338304500,5.533304443359375,0.13521039485931396,0.07946643978357315,0.1737792193889618
1782814920358387500,5.553387451171875,0.11140692234039307,-0.05052780359983444,0.1104467436671257
1782814920378470400,5.573470458984375,0.07843909412622452,-0.09723951667547226,0.05495934933423996
1782814920398553300,5.59355322265625,-0.008831244893372059,-0.12951232492923737,0.011541263200342655
1782814920418636500,5.613636474609375,-0.1026323139667511,-0.1614956110715866,-0.041750118136405945
1782814920438719500,5.633719482421875,-0.15850389003753662,-0.09817134588956833,-0.046320319175720215
1782814920458803500,5.653803466796875,-0.1839146912097931,0.0736842229962349,0.029805712401866913
1782814920478886400,5.673886474609375,-0.17566508054733276,0.20460398495197296,0.16087356209754944
1782814920498969600,5.693969482421875,-0.1448937952518463,0.22069542109966278,0.3339152932167053
1782814920519052500,5.714052490234375,-0.10948783159255981,0.1666896939277649,0.5236554145812988
1782814920539135500,5.734135498046875,-0.07461050897836685,0.09856303036212921,0.6632014513015747
1782814920559218400,5.754218505859375,-0.04372497648000717,0.014091357588768005,0.7408304810523987
1782814920579301600,5.774301513671875,-0.011485747061669827,-0.08252134919166565,0.7755913734436035
1782814920599385600,5.794385498046875,0.001924366457387805,-0.2057695984840393,0.7876009941101074
1782814920619468500,5.814468505859375,0.00034435337875038385,-0.31996676325798035,0.8049272894859314
1782814920639551500,5.834551513671875,-0.01518307812511921,-0.4162706732749939,0.831145703792572
1782814920659634700,5.854634765625,-0.02096204087138176,-0.466555655002594,0.8427422642707825
1782814920679717600,5.874717529296875,-0.0322921946644783,-0.5218116641044617,0.7921491265296936
1782814920699800600,5.894800537109375,-0.06555337458848953,-0.5805396437644958,0.6716948747634888
1782814920719883500,5.914883544921875,-0.12045148015022278,-0.5615697503089905,0.5520561933517456
1782814920739966500,5.934966552734375,-0.18375639617443085,-0.5482167601585388,0.41065558791160583
1782814920760050400,5.955050537109375,-0.23559513688087463,-0.5117618441581726,0.246970996260643
1782814920780133400,5.97513330078125,-0.2849655747413635,-0.42187950015068054,0.016444185748696327
1782814920800216300,5.99521630859375,-0.3228614926338196,-0.34353184700012207,-0.25422433018684387
1782814920820299300,6.01529931640625,-0.36245283484458923,-0.25952401757240295,-0.4674338102340698
1782814920840382500,6.035382568359375,-0.3972173035144806,-0.19989871978759766,-0.5565713047981262
1782814920860465400,6.05546533203125,-0.38500499725341797,-0.11924788355827332,-0.4540828466415405
1782814920880548400,6.07554833984375,-0.3127538561820984,-0.007429022341966629,-0.21236079931259155
1782814920900631600,6.095631591796875,-0.1925344169139862,0.04171739146113396,0.014994734898209572
1782814920920715500,6.115715576171875,-0.1198570653796196,0.050544723868370056,0.1039341539144516
1782814920940798500,6.135798583984375,-0.08133001625537872,0.056309305131435394,0.03856021165847778
1782814920960881400,6.15588134765625,-0.07941412925720215,0.02138466201722622,-0.11945638805627823
1782814920980965000,6.175965087890625,-0.13272342085838318,-0.08932368457317352,-0.29321733117103577
1782814921001048000,6.196048095703125,-0.22369904816150665,-0.18919382989406586,-0.444648802280426
1782814921021131000,6.216131103515625,-0.30975744128227234,-0.24838793277740479,-0.5638196468353271
1782814921041214000,6.2362138671875,-0.3771650195121765,-0.2704489529132843,-0.5993121862411499
1782814921061297200,6.256297119140625,-0.41654303669929504,-0.26239708065986633,-0.5760921239852905
1782814921081381000,6.276381103515625,-0.4205373525619507,-0.17297029495239258,-0.5066894292831421
1782814921101464000,6.296464111328125,-0.4000319540500641,-0.057583894580602646,-0.4337681233882904
1782814921121547300,6.31654736328125,-0.36453214287757874,0.011810258962213993,-0.3643698990345001
1782814921141630200,6.336630126953125,-0.3247019052505493,0.042928922921419144,-0.30197855830192566
1782814921161713200,6.356713134765625,-0.29089170694351196,0.07477281987667084,-0.23989546298980713
1782814921181796000,6.376796142578125,-0.282916784286499,0.059017814695835114,-0.19445623457431793
1782814921201879000,6.396879150390625,-0.2849399745464325,-0.00890602171421051,-0.13942310214042664
1782814921221962200,6.416962158203125,-0.29526805877685547,-0.11302991211414337,-0.08954233676195145
1782814921242046200,6.437046142578125,-0.33686715364456177,-0.20390814542770386,-0.05880466848611832
1782814921262129200,6.457129150390625,-0.3883974552154541,-0.19434572756290436,-0.03470415249466896
1782814921282212000,6.477212158203125,-0.4218750596046448,-0.10568127036094666,-0.017714668065309525
1782814921302295300,6.49729541015625,-0.3879166841506958,-0.04734209552407265,0.006765806581825018
1782814921322378200,6.517378173828125,-0.2768992781639099,-0.033933114260435104,0.09591200947761536
1782814921342461200,6.537461181640625,-0.1418594866991043,-0.028915783390402794,0.2500363290309906
1782814921362544000,6.557544189453125,-0.025640182197093964,-0.0915910080075264,0.3779286742210388
1782814921382627000,6.577626953125,0.03718828409910202,-0.2849801182746887,0.37076571583747864
1782814921402711000,6.5977109375,0.0727819874882698,-0.3130917549133301,0.34831786155700684
1782814921422794000,6.6177939453125,0.028004299849271774,-0.2859291732311249,0.32593101263046265
1782814921442877000,6.637876953125,-0.09713894873857498,-0.3885941803455353,0.23768995702266693
1782814921462960000,6.657960205078125,-0.248587504029274,-0.5155868530273438,0.12734338641166687
1782814921483043000,6.67804296875,-0.3778873383998871,-0.48063358664512634,0.08851616829633713
1782814921503126300,6.698126220703125,-0.4560793936252594,-0.3172948360443115,0.15970894694328308
1782814921523209200,6.718209228515625,-0.4758014678955078,-0.047933727502822876,0.2882387042045593
1782814921543292200,6.738292236328125,-0.431406706571579,0.21084749698638916,0.3269678056240082
1782814921563376000,6.758376220703125,-0.3353412449359894,0.36432090401649475,0.27669981122016907
1782814921583459000,6.778458984375,-0.26108115911483765,0.358770489692688,0.19141189754009247
1782814921603542000,6.7985419921875,-0.24411961436271667,0.1966138482093811,0.15205980837345123
1782814921623625000,6.818625,-0.2933627963066101,0.012660248205065727,0.18655386567115784
1782814921643708000,6.8387080078125,-0.40275153517723083,-0.14329014718532562,0.2316526472568512
1782814921663791000,6.858791015625,-0.5079196095466614,-0.17027413845062256,0.24682515859603882
1782814921683874000,6.8788740234375,-0.5568270087242126,-0.0583568811416626,0.21144311130046844
1782814921703957000,6.89895703125,-0.5500051975250244,0.07805364578962326,0.1324867159128189
1782814921724041200,6.919041259765625,-0.4778899550437927,0.1999891698360443,0.03831811994314194
1782814921744124200,6.939124267578125,-0.3785223960876465,0.28055819869041443,-0.036149412393569946
1782814921764207000,6.95920703125,-0.24740013480186462,0.20205852389335632,-0.12092050164937973
1782814921784290000,6.9792900390625,-0.11938551813364029,-0.0355321504175663,-0.23597100377082825
1782814921804373000,6.999373046875,-0.05677993595600128,-0.3199061453342438,-0.351925790309906
1782814921824456200,7.019456298828125,-0.09371768683195114,-0.5271406769752502,-0.45511671900749207
1782814921844539100,7.0395390625,-0.17184986174106598,-0.6095921993255615,-0.5583046674728394
1782814921864622000,7.0596220703125,-0.20946909487247467,-0.5212075710296631,-0.5939580202102661
1782814921884706000,7.0797060546875,-0.1712702363729477,-0.29679617285728455,-0.4768504798412323
1782814921904789200,7.099789306640625,-0.06251710653305054,-0.037670016288757324,-0.26247990131378174
1782814921924872200,7.1198720703125,0.06583960354328156,0.10729986429214478,-0.08432865887880325
1782814921944955100,7.139955078125,0.14666791260242462,0.1393193006515503,-0.021094251424074173
1782814921965037800,7.160037841796875,0.1569286286830902,0.16416573524475098,-0.026697086170315742
1782814921985121000,7.18012109375,0.11370652168989182,0.11230885982513428,-0.06185375899076462
1782814922005204000,7.200203857421875,0.06862367689609528,0.029272761195898056,-0.06848504394292831
1782814922025287000,7.220286865234375,0.05609702691435814,-0.0219900943338871,-0.022724198177456856
1782814922045371100,7.24037109375,0.06978181004524231,-0.04197048768401146,0.02085700072348118
1782814922065454000,7.2604541015625,0.12893247604370117,-0.04955602437257767,0.04839521646499634
1782814922085537000,7.280537109375,0.2023792266845703,-0.03229786828160286,0.0646079033613205
1782814922105620000,7.300619873046875,0.27046725153923035,0.03990214690566063,0.08094314485788345
1782814922125703000,7.320702880859375,0.32362571358680725,0.11545177549123764,0.08937911689281464
1782814922145786000,7.3407861328125,0.366530179977417,0.15357990562915802,0.10969820618629456
1782814922165869000,7.360869140625,0.4115923345088959,0.12406923621892929,0.11413399875164032
1782814922185952000,7.380951904296875,0.4529549777507782,0.08556219190359116,0.08835770934820175
1782814922206036000,7.401035888671875,0.4642145037651062,0.08222166448831558,0.06575816869735718
1782814922226119200,7.421119140625,0.4487067461013794,0.12312621623277664,0.07809965312480927
1782814922246202000,7.4412021484375,0.43229568004608154,0.1909911036491394,0.10625781863927841
1782814922266285000,7.46128515625,0.44054922461509705,0.20313934981822968,0.12523193657398224
1782814922286368000,7.481367919921875,0.4715713858604431,0.1599879264831543,0.15000870823860168
1782814922306451000,7.501450927734375,0.4823800027370453,0.09711863845586777,0.14696919918060303
1782814922326534100,7.5215341796875,0.44509968161582947,-0.0022011452820152044,0.09746187925338745
1782814922346617000,7.5416171875,0.3844946026802063,-0.09172123670578003,0.037278153002262115
1782814922366700800,7.56170068359375,0.35830819606781006,-0.10171665996313095,0.01916460506618023
1782814922386783700,7.58178369140625,0.36359527707099915,-0.055493734776973724,0.036497704684734344
1782814922406867000,7.601866943359375,0.391391396522522,0.036635879427194595,0.07512972503900528
1782814922426950000,7.621949951171875,0.40454134345054626,0.15472827851772308,0.16009463369846344
1782814922447032800,7.64203271484375,0.38767674565315247,0.11758825927972794,0.2069195955991745
1782814922467115800,7.66211572265625,0.2770303189754486,-0.1609344333410263,0.11297787725925446
1782814922487198700,7.68219873046875,0.14678771793842316,-0.1725701242685318,0.055444955825805664
1782814922507282000,7.702281982421875,0.06699152290821075,0.07792258262634277,0.11725644767284393
1782814922527366000,7.722365966796875,0.08970065414905548,0.3199664354324341,0.20329312980175018
1782814922547448800,7.74244873046875,0.1706555336713791,0.34794673323631287,0.23787133395671844
1782814922567531800,7.76253173828125,0.1824953854084015,0.2046610414981842,0.2603943943977356
1782814922587615000,7.782614990234375,0.10635074228048325,0.041593704372644424,0.2526179850101471
1782814922607698000,7.802697998046875,-0.009991810657083988,-0.08034107089042664,0.1848750114440918
1782814922627780900,7.82278076171875,-0.0986928939819336,-0.04391846805810928,0.10600113868713379
1782814922647863800,7.84286376953125,-0.11946722865104675,0.08246214687824249,0.04811538755893707
1782814922667947000,7.862947021484375,-0.1041780412197113,0.1845225989818573,0.03277913108468056
1782814922688031000,7.883031005859375,-0.09846508502960205,0.21365857124328613,0.04246476665139198
1782814922708114000,7.903114013671875,-0.12785634398460388,0.13139654695987701,0.04025286063551903
1782814922728196900,7.92319677734375,-0.16628380119800568,0.0264871958643198,0.01555472519248724
1782814922748280000,7.943280029296875,-0.18595632910728455,-0.0493759848177433,-0.016443291679024696
1782814922768363000,7.963363037109375,-0.19181455671787262,-0.05257594957947731,-0.02334076166152954
1782814922788446000,7.983446044921875,-0.18528757989406586,0.007592363283038139,0.006788435857743025
1782814922808529000,8.00352880859375,-0.17637285590171814,0.07760109752416611,0.04306885600090027
1782814922828613000,8.023613037109374,-0.17271894216537476,0.11530667543411255,0.06893648952245712
1782814922848696000,8.043696044921875,-0.173249289393425,0.11848964542150497,0.10874882340431213
1782814922868779000,8.063779052734375,-0.18518327176570892,0.10620469599962234,0.13257819414138794
1782814922888862000,8.083862060546876,-0.1934082806110382,0.08371105790138245,0.1404065042734146
1782814922908945000,8.10394482421875,-0.18435639142990112,0.04599085822701454,0.12908947467803955
1782814922929028000,8.124028076171875,-0.17002393305301666,-0.03547888621687889,0.09180206060409546
1782814922949111000,8.144111083984376,-0.17992323637008667,-0.10694173723459244,0.06589382141828537
1782814922969193700,8.16419384765625,-0.1914464682340622,-0.1494884043931961,0.06775430589914322
1782814922989278000,8.18427783203125,-0.19488637149333954,-0.15652702748775482,0.07094743102788925
1782814923009361000,8.20436083984375,-0.2078436017036438,-0.15965725481510162,0.025425005704164505
1782814923029443800,8.22444384765625,-0.21506443619728088,-0.18165624141693115,-0.05513320490717888
1782814923049526800,8.24452685546875,-0.25488218665122986,-0.27410462498664856,-0.15171179175376892
1782814923069609700,8.264609619140625,-0.3298884928226471,-0.358828604221344,-0.27582165598869324
1782814923089693000,8.28469287109375,-0.39244765043258667,-0.35415181517601013,-0.3637852668762207
1782814923109776000,8.30477587890625,-0.4478911757469177,-0.27075108885765076,-0.35272127389907837
1782814923129858800,8.32485888671875,-0.48019787669181824,-0.11253051459789276,-0.23802150785923004
1782814923149942500,8.344942626953125,-0.45271989703178406,0.037454716861248016,-0.08429159224033356
1782814923170025700,8.365025634765624,-0.39554113149642944,0.14111313223838806,0.06153729185461998
1782814923190108700,8.385108642578125,-0.33768850564956665,0.16850924491882324,0.1235538199543953
1782814923210191600,8.405191650390625,-0.28753721714019775,0.21881403028964996,0.08480977267026901
1782814923230274600,8.425274658203126,-0.251411497592926,0.2313811033964157,-0.007927300408482552
1782814923250357500,8.445357421875,-0.24362775683403015,0.21124008297920227,-0.09924286603927612
1782814923270440700,8.465440673828125,-0.23725944757461548,0.22268782556056976,-0.21876153349876404
1782814923290523600,8.485523681640625,-0.2272166907787323,0.23123933374881744,-0.35070130228996277
1782814923310607600,8.505607666015624,-0.21860133111476898,0.2207372784614563,-0.4536283016204834
1782814923330690600,8.525690673828125,-0.20855741202831268,0.22320060431957245,-0.5049861669540405
1782814923350773800,8.545773681640625,-0.20878908038139343,0.20413635671138763,-0.5070738196372986
1782814923370856700,8.565856689453126,-0.2173461616039276,0.162179097533226,-0.4271281361579895
1782814923390939600,8.585939697265625,-0.25419870018959045,0.10280924290418625,-0.3070198595523834
1782814923411022600,8.606022705078125,-0.30231159925460815,0.06344500929117203,-0.2471993863582611
1782814923431105500,8.62610546875,-0.34645506739616394,0.061216164380311966,-0.24541997909545898
1782814923451188700,8.646188720703124,-0.3876146078109741,0.039454441517591476,-0.25262293219566345
1782814923471272700,8.666272705078125,-0.3985374867916107,0.0052564130164682865,-0.21435019373893738
1782814923491355600,8.686355712890625,-0.39075374603271484,-0.01786912977695465,-0.09297740459442139
1782814923511438800,8.70643896484375,-0.3814159333705902,-0.016839927062392235,0.038540005683898926
1782814923531521800,8.726521728515625,-0.37811312079429626,-0.005144957918673754,0.13172057271003723
1782814923551604700,8.746604736328125,-0.38619816303253174,-0.027307454496622086,0.19440314173698425
1782814923571687700,8.766687744140626,-0.4008801579475403,-0.08677534013986588,0.2377212792634964
1782814923591770600,8.7867705078125,-0.43450412154197693,-0.14466147124767303,0.2847367525100708
1782814923611853800,8.806853759765625,-0.48160049319267273,-0.17533503472805023,0.34303319454193115
1782814923631937800,8.826937744140626,-0.503552258014679,-0.12214686721563339,0.3870190680027008
1782814923652020700,8.847020751953124,-0.5813437104225159,-0.2344176322221756,0.2933197021484375
1782814923672103700,8.867103759765625,-0.72663813829422,-0.3791887164115906,0.06459756195545197
1782814923692187000,8.887186767578125,-0.901156485080719,-0.48379912972450256,-0.14606641232967377
1782814923712269800,8.907269775390626,-1.0578539371490479,-0.5240899920463562,-0.1854768693447113
1782814923732352800,8.927352783203125,-1.1231112480163574,-0.4660208821296692,-0.020626317709684372
1782814923752435700,8.947435791015625,-1.112945318222046,-0.24856506288051605,0.2526981234550476
1782814923772518700,8.9675185546875,-1.047897219657898,0.004413135815411806,0.45168960094451904
1782814923792603000,8.987602783203124,-1.0063436031341553,0.12966762483119965,0.4935571551322937
1782814923812685800,9.007685791015625,-1.0125256776809692,0.1573338657617569,0.44743168354034424
1782814923832768800,9.027768798828125,-0.9920922517776489,0.12248778343200684,0.3177356421947479
1782814923852851700,9.047851806640624,-0.9568168520927429,-0.021817153319716454,0.21818634867668152
1782814923872935000,9.067934814453125,-0.9764742255210876,-0.28022029995918274,0.21222834289073944
1782814923893017900,9.088017822265625,-1.0624186992645264,-0.5215687155723572,0.3007056713104248
1782814923913100800,9.108100830078126,-1.1878907680511475,-0.6753827333450317,0.39464396238327026
1782814923933183700,9.128183837890624,-1.2071137428283691,-0.7307180166244507,0.3641124963760376
1782814923953267700,9.148267822265625,-1.1868128776550293,-0.6736558079719543,0.23061662912368774
1782814923973351000,9.168350830078126,-1.1975979804992676,-0.5700125694274902,0.07137002050876617
1782814923993433900,9.188433837890624,-1.2009550333023071,-0.4319508671760559,-0.029639288783073425
1782814924013516800,9.208516845703125,-1.2075949907302856,-0.4235861599445343,-0.08902309089899063
1782814924033599700,9.228599853515625,-1.1952219009399414,-0.46937811374664307,-0.05625029280781746
1782814924053683000,9.248682861328126,-1.1743006706237793,-0.45245835185050964,-0.004744500853121281
1782814924073766000,9.268765869140625,-1.1606361865997314,-0.4514855444431305,-0.07332546263933182
1782814924093848800,9.288848876953125,-1.1477018594741821,-0.41115936636924744,-0.18761366605758667
1782814924113931800,9.308931884765625,-1.1853915452957153,-0.37124204635620117,-0.22424784302711487
1782814924134014700,9.3290146484375,-1.2626277208328247,-0.32802891731262207,-0.11737886071205139
1782814924154099000,9.349098876953125,-1.3216005563735962,-0.2102971076965332,0.051925718784332275
1782814924174182000,9.369181884765625,-1.3372248411178589,-0.1529095619916916,0.14754946529865265
1782814924194264800,9.389264892578124,-1.3728379011154175,-0.27854976058006287,0.1729717254638672
1782814924214347800,9.40934765625,-1.5024428367614746,-0.5105056762695312,0.1845482587814331
1782814924234431000,9.429430908203125,-1.688978672027588,-0.7138299942016602,0.17685328423976898
1782814924254514000,9.449513916015626,-1.8717750310897827,-0.7627541422843933,0.1594875603914261
1782814924274596900,9.469596923828124,-2.02376127243042,-0.6632736325263977,0.12551593780517578
1782814924294679800,9.4896796875,-2.1443405151367188,-0.5092870593070984,0.0787941962480545
1782814924314764000,9.509763916015626,-2.2014734745025635,-0.4133475422859192,-0.011312505230307579
1782814924334847000,9.529846923828124,-2.243562698364258,-0.4353303611278534,-0.1330074667930603
1782814924354930000,9.549929931640625,-2.331207752227783,-0.49596813321113586,-0.2019500583410263
1782814924375012900,9.570012939453125,-2.4539759159088135,-0.5677152872085571,-0.20564599335193634
1782814924395095800,9.590095703125,-2.5688071250915527,-0.6716785430908203,-0.17009302973747253
1782814924415179000,9.610178955078124,-2.6605868339538574,-0.6935922503471375,-0.11405090987682343
1782814924435263000,9.630262939453125,-2.7019052505493164,-0.5499313473701477,-0.07755435258150101
1782814924455346000,9.650345947265626,-2.6817636489868164,-0.3720313608646393,-0.06286688894033432
1782814924475428900,9.670428955078124,-2.57538104057312,-0.22080709040164948,-0.048568904399871826
1782814924495512000,9.690511962890625,-2.431669235229492,-0.20850884914398193,-0.00739838182926178
1782814924515595000,9.710594970703125,-2.3456640243530273,-0.3120810389518738,0.045562177896499634
1782814924535679000,9.730678955078124,-2.307629346847534,-0.3999551236629486,0.07542694360017776
1782814924555762200,9.75076220703125,-2.2732994556427,-0.47267934679985046,0.04929247871041298
1782814924575845000,9.77084521484375,-2.214346408843994,-0.5523847937583923,-0.033751484006643295
1782814924595928000,9.790927978515626,-2.1278793811798096,-0.5447880625724792,-0.1211341843008995
1782814924616011000,9.811010986328125,-2.052658796310425,-0.5218176245689392,-0.1934923529624939
1782814924636094000,9.831093994140625,-1.9758691787719727,-0.5693365335464478,-0.20872482657432556
1782814924656177200,9.85117724609375,-1.8918792009353638,-0.5085775256156921,-0.1586802899837494
1782814924676260000,9.871260009765624,-1.7859654426574707,-0.32228949666023254,-0.11440987884998322
1782814924696343800,9.89134375,-1.6569041013717651,-0.10279608517885208,-0.07701663672924042
1782814924716426800,9.9114267578125,-1.5254236459732056,0.07066436856985092,-0.009384948760271072
1782814924736510000,9.931510009765624,-1.4044538736343384,0.11396394670009613,0.024253087118268013
1782814924756593000,9.951593017578125,-1.3126671314239502,0.09806268662214279,0.01267219241708517
1782814924776675800,9.97167578125,-1.257226586341858,-0.10348493605852127,-0.005213158205151558
1782814924796758800,9.9917587890625,-1.2210689783096313,-0.38425230979919434,-0.018463190644979477
1782814924816841700,10.011841796875,-1.1709030866622925,-0.46529823541641235,-0.029668353497982025
1782814924836926000,10.031926025390625,-1.1139954328536987,-0.40806883573532104,-0.06017717346549034
1782814924857009000,10.0520087890625,-1.0756433010101318,-0.34415316581726074,-0.07748889923095703
1782814924877091800,10.072091796875,-1.0463987588882446,-0.25353506207466125,-0.08766553550958633
1782814924897174800,10.0921748046875,-0.9995326399803162,-0.1001601368188858,-0.0977642610669136
1782814924917258000,10.112258056640625,-0.9434581398963928,0.03586581349372864,-0.1063397154211998
1782814924937341000,10.1323408203125,-0.8752095103263855,0.1323002725839615,-0.05744965374469757
1782814924957423900,10.152423828125,-0.8088657259941101,0.1084941029548645,-0.005820168182253838
1782814924977506800,10.1725068359375,-0.7620795965194702,0.021200885996222496,0.03383355215191841
1782814924997590800,10.1925908203125,-0.7433583736419678,0.1786077320575714,0.13618019223213196
1782814925017673700,10.212673828125,-0.71795654296875,0.0867576152086258,0.20292527973651886
1782814925037757000,10.2327568359375,-0.6173607707023621,-0.18048632144927979,0.20267987251281738
1782814925057839900,10.25283984375,-0.5782188773155212,-0.22606900334358215,0.17746199667453766
1782814925077922800,10.2729228515625,-0.6087602972984314,-0.230979785323143,0.05969086289405823
1782814925098005800,10.293005859375,-0.6262215971946716,-0.08492929488420486,-0.0025611664168536663
