time,seconds_elapsed,z,y,x
1782815272995217000,0.059216796875,0.3887130618095398,-0.21757914125919342,0.26152265071868896
1782815273015298800,0.079298828125,0.37897244095802307,-0.17230454087257385,0.2977643609046936
1782815273035380700,0.099380615234375,0.3971118628978729,-0.1180967390537262,0.21102219820022583
1782815273055463000,0.119462890625,0.4222743809223175,-0.12780292332172394,0.08624425530433655
1782815273075544800,0.139544921875,0.4548620581626892,-0.22510281205177307,-0.0037659683730453253
1782815273095626800,0.159626708984375,0.49267324805259705,-0.27937859296798706,-0.04353325068950653
1782815273115709700,0.179709716796875,0.5533042550086975,-0.12755617499351501,-0.050605159252882004
1782815273135790800,0.199790771484375,0.6388912200927734,0.10120541602373123,-0.060572411864995956
1782815273155873800,0.219873779296875,0.6593579649925232,0.17870472371578217,0.021195819601416588
1782815273175955700,0.239955810546875,0.5777755379676819,-0.000541758956387639,0.17220793664455414
1782815273196038000,0.260037841796875,0.5498442649841309,-0.14594000577926636,0.335195928812027
1782815273216119800,0.280119873046875,0.359505295753479,-0.13038280606269836,0.4333096444606781
1782815273236201700,0.30020166015625,0.24260349571704865,-0.11498696357011795,0.40243610739707947
1782815273256283600,0.32028369140625,0.19652163982391357,-0.008495332673192024,0.36101073026657104
1782815273276365800,0.34036572265625,0.17916801571846008,0.06575550138950348,0.33187609910964966
1782815273296447700,0.36044775390625,0.15589997172355652,0.0677972361445427,0.28132331371307373
1782815273316529400,0.380529296875,0.1620563566684723,-0.04187249764800072,0.27512216567993164
1782815273336611600,0.400611572265625,0.2846023440361023,-0.18804626166820526,0.3311760425567627
1782815273356693500,0.420693603515625,0.38389280438423157,-0.18859140574932098,0.28463414311408997
1782815273376775400,0.440775390625,0.3817819356918335,-0.021156374365091324,0.16578757762908936
1782815273396857600,0.460857666015625,0.2855477035045624,0.23264789581298828,0.08980236947536469
1782815273416939500,0.480939453125,0.13823792338371277,0.43346503376960754,0.05695715546607971
1782815273437021400,0.501021484375,0.06504679471254349,0.3500581681728363,-0.0075576333329081535
1782815273457103600,0.521103515625,0.09067580103874207,0.26331809163093567,-0.10456589609384537
1782815273477185500,0.541185546875,0.09547968953847885,0.2462538480758667,-0.18112783133983612
1782815273497267500,0.561267333984375,0.0656098946928978,0.34286803007125854,-0.14572587609291077
1782815273517349400,0.581349365234375,0.027615701779723167,0.5244889855384827,-0.007739582099020481
1782815273537431600,0.601431640625,0.03058752417564392,0.6950257420539856,0.18243636190891266
1782815273557513500,0.621513427734375,0.06559701263904572,0.6014934778213501,0.266968697309494
1782815273577595400,0.641595458984375,0.03903873637318611,0.3496657609939575,0.23195697367191315
1782815273597677600,0.661677490234375,-0.05220874398946762,0.06195041909813881,0.12902404367923737
1782815273617759500,0.681759521484375,-0.2004147619009018,-0.13316428661346436,-0.006621484644711018
1782815273637841400,0.70184130859375,-0.24040338397026062,-0.087058424949646,-0.2727489769458771
1782815273657923600,0.721923583984375,-0.25240403413772583,0.271857351064682,-0.5468575358390808
1782815273678005500,0.742005615234375,-0.26156607270240784,0.6005426049232483,-0.7848803997039795
1782815273698087400,0.76208740234375,-0.20542968809604645,0.8922655582427979,-1.095794677734375
1782815273718169300,0.78216943359375,-0.07493162900209427,1.0733880996704102,-1.2925862073898315
1782815273738251500,0.80225146484375,0.157400444149971,0.9787553548812866,-1.3363372087478638
1782815273758333400,0.82233349609375,0.2998826503753662,0.8513522744178772,-1.2163485288619995
1782815273778415400,0.842415283203125,0.4836792051792145,1.0025485754013062,-1.220900058746338
1782815273798498600,0.86249853515625,0.6080855131149292,1.1834269762039185,-1.326540470123291
1782815273818580700,0.882580810546875,0.6920281052589417,0.7480825781822205,-1.3315142393112183
1782815273838662700,0.90266259765625,0.7257293462753296,0.09915059804916382,-1.1707285642623901
1782815273858744600,0.92274462890625,0.5962435603141785,-0.37647995352745056,-0.950775682926178
1782815273878826500,0.942826416015625,0.3229074776172638,-0.7976179122924805,-0.6683194637298584
1782815273898908700,0.96290869140625,0.11795604974031448,-0.600714921951294,-0.26677757501602173
1782815273918990600,0.982990478515625,0.05203596130013466,-0.16729380190372467,0.1303437203168869
1782815273939072500,1.003072509765625,0.088526651263237,0.24882233142852783,0.3355502188205719
1782815273959154700,1.02315478515625,0.14253228902816772,0.5559141635894775,0.31451690196990967
1782815273979236600,1.043236572265625,0.17451171576976776,0.6438483595848083,0.12063340842723846
1782815273999318500,1.063318603515625,0.19041143357753754,0.6988129615783691,-0.035666171461343765
1782815274019400700,1.083400634765625,0.15955086052417755,0.645668625831604,-0.12256180495023727
1782815274039482600,1.103482666015625,0.061096761375665665,0.5532484650611877,-0.10937356948852539
1782815274059564500,1.123564453125,-0.06783297657966614,0.4582951068878174,-0.00909227691590786
1782815274079646500,1.143646484375,-0.14934901893138885,0.2814699411392212,0.08572012931108475
1782815274099728600,1.163728759765625,-0.1410895735025406,0.1771569848060608,0.09834309667348862
1782815274119810600,1.183810546875,0.00870019942522049,0.34572702646255493,0.01168714091181755
1782815274139892500,1.203892578125,0.256578654050827,0.5888577699661255,-0.06328652054071426
1782815274159974700,1.223974609375,0.6001166105270386,0.6592726707458496,-0.07305037975311279
1782815274180056600,1.244056640625,0.8016513586044312,0.7620999217033386,-0.12297268956899643
1782815274200138500,1.264138427734375,0.721611738204956,0.8977440595626831,-0.2168363332748413
1782815274220220700,1.284220703125,0.6428927779197693,1.0961359739303589,-0.22237615287303925
1782815274240302600,1.304302490234375,0.5277252197265625,1.2243763208389282,-0.2222738265991211
1782815274260384500,1.324384521484375,0.3393346965312958,1.618640422821045,-0.37519559264183044
1782815274280466400,1.344466552734375,0.2041921466588974,1.9003117084503174,-0.6796213388442993
1782815274300549600,1.364549560546875,0.07276459783315659,1.523630142211914,-0.8408079743385315
1782815274320631600,1.384631591796875,-0.005028150975704193,1.225953221321106,-0.6365926861763
1782815274340713700,1.404713623046875,0.25024309754371643,0.9431939125061035,-0.5592761635780334
1782815274360795600,1.424795654296875,0.38547948002815247,0.40445560216903687,-0.5549013614654541
1782815274380877800,1.4448779296875,0.28438952565193176,-0.4437546133995056,-0.21838480234146118
1782815274400959700,1.464959716796875,-0.010681389831006527,-1.280254602432251,0.44874826073646545
1782815274421041700,1.485041748046875,-0.42005011439323425,-2.2501235008239746,1.2807502746582031
1782815274441123800,1.505123779296875,-0.3493761122226715,-4.003568172454834,2.0994455814361572
1782815274461205800,1.525205810546875,-0.3860756456851959,-6.0370402336120605,2.3139123916625977
1782815274481287700,1.54528759765625,-0.820626974105835,-5.353940963745117,1.7449382543563843
1782815274501369600,1.56536962890625,-0.5747896432876587,-3.4047186374664307,1.0407336950302124
1782815274521451800,1.58545166015625,-0.1564731001853943,-1.608896017074585,0.15655075013637543
1782815274541533700,1.60553369140625,-0.031164513900876045,-0.55647873878479,-0.18914467096328735
1782815274561615600,1.62561572265625,-0.06479720026254654,-0.20221735537052155,-0.18485161662101746
1782815274581697800,1.64569775390625,-0.05983288958668709,-0.4349942207336426,0.04772365093231201
1782815274601779700,1.66577978515625,-0.06864115595817566,-1.0945476293563843,0.4215489327907562
1782815274621861600,1.685861572265625,-0.049916595220565796,-1.3854955434799194,0.7938219308853149
1782815274641943800,1.70594384765625,0.0024955961853265762,-1.1693907976150513,1.0410945415496826
1782815274662025700,1.726025634765625,0.12953415513038635,-0.8344797492027283,1.0997790098190308
1782815274682107600,1.746107666015625,0.20244675874710083,-0.5024736523628235,0.9901431798934937
1782815274702189600,1.766189453125,0.18214298784732819,-0.13592389225959778,0.656365156173706
1782815274722271700,1.786271728515625,0.15348279476165771,0.26902785897254944,0.19562369585037231
1782815274742353700,1.806353759765625,0.09584406018257141,0.7058603167533875,-0.16776975989341736
1782815274762435600,1.826435546875,0.00666736951097846,0.9236202239990234,-0.371051162481308
1782815274782517800,1.846517822265625,-0.08332260698080063,1.0318294763565063,-0.44633281230926514
1782815274802599700,1.866599609375,-0.1432574838399887,0.7370874285697937,-0.4399578273296356
1782815274822682600,1.8866826171875,-0.2637573778629303,-0.008485623635351658,-0.412529319524765
1782815274842764500,1.9067646484375,-0.34411975741386414,-0.7878996133804321,-0.43258780241012573
1782815274862846700,1.9268466796875,-0.33553120493888855,-1.341666340827942,-0.4489942193031311
1782815274882928600,1.9469287109375,-0.4358702003955841,-1.828213095664978,-0.6506032347679138
1782815274903010600,1.967010498046875,-0.5746970176696777,-1.9825466871261597,-0.9987741708755493
1782815274923092500,1.987092529296875,-0.6387009024620056,-1.6638036966323853,-1.2624640464782715
1782815274943174700,2.007174560546875,-0.556201159954071,-0.8865946531295776,-1.2823082208633423
1782815274963256600,2.027256591796875,-0.3234408497810364,0.13108466565608978,-1.0810489654541016
1782815274983338500,2.04733837890625,0.003809947520494461,0.9506573677062988,-0.8649863004684448
1782815275003420700,2.067420654296875,0.25078675150871277,1.420109510421753,-0.660950243473053
1782815275023502600,2.087502685546875,0.30761781334877014,1.5549750328063965,-0.5233126878738403
1782815275043584500,2.10758447265625,0.29361575841903687,1.6435096263885498,-0.4356851279735565
1782815275063666700,2.127666748046875,0.25000256299972534,2.0415079593658447,-0.4566989839076996
1782815275083748600,2.14774853515625,0.23425811529159546,2.3639116287231445,-0.3095013201236725
1782815275103830500,2.16783056640625,0.34423547983169556,2.25781512260437,-0.20731791853904724
1782815275123912400,2.187912353515625,0.4881266951560974,1.6222946643829346,-0.1586858630180359
1782815275143994600,2.20799462890625,0.5103709101676941,1.2137436866760254,-0.034801941365003586
1782815275164076500,2.22807666015625,0.3538246750831604,0.8852145671844482,0.08595073223114014
1782815275184158500,2.248158447265625,0.2979365289211273,0.645646333694458,0.14415201544761658
1782815275204240600,2.26824072265625,0.36033448576927185,0.5649264454841614,0.0916849821805954
1782815275224322600,2.288322509765625,0.47156181931495667,0.5620417594909668,0.001420989166945219
1782815275244404500,2.308404541015625,0.529522716999054,0.3158853054046631,-0.012111010029911995
1782815275264487400,2.3284873046875,0.4792320728302002,-0.0540645569562912,0.0990375503897667
1782815275284569900,2.34856982421875,0.3204765319824219,-0.3935321569442749,0.2520562708377838
1782815275304652300,2.36865234375,0.18093650043010712,-0.6578758358955383,0.3165755867958069
1782815275324734200,2.388734130859375,0.13971199095249176,-0.6608025431632996,0.4019831717014313
1782815275344816000,2.408816162109375,0.17260617017745972,-0.5761005878448486,0.5378280878067017
1782815275364898300,2.428898193359375,0.20482970774173737,-0.49951809644699097,0.6914361119270325
1782815275384980200,2.448980224609375,0.19633598625659943,-0.3489629328250885,0.831508219242096
1782815275405062100,2.469062255859375,0.16830086708068848,-0.18374235928058624,0.8311566710472107
1782815275425144300,2.489144287109375,0.12961262464523315,-0.1445900797843933,0.6623269319534302
1782815275445226200,2.509226318359375,0.11680687218904495,-0.18513895571231842,0.39575183391571045
1782815275465308200,2.52930810546875,0.16343127191066742,-0.24185146391391754,0.24640050530433655
1782815275485390000,2.54939013671875,0.15979015827178955,-0.45550537109375,0.2600761353969574
1782815275505472300,2.56947216796875,0.10915789753198624,-0.6525797247886658,0.3339073657989502
1782815275525554200,2.58955419921875,0.0317344143986702,-0.604523241519928,0.4518011510372162
1782815275545636000,2.609635986328125,-0.00163375330157578,-0.31252995133399963,0.5984777808189392
1782815275565718300,2.62971826171875,-0.012656332924962044,-0.02128070406615734,0.658085286617279
1782815275585800200,2.64980029296875,-0.0043074325658380985,0.1110597625374794,0.5491761565208435
1782815275605882000,2.669882080078125,-0.011281830258667469,0.07963307946920395,0.3577156066894531
1782815275625964300,2.68996435546875,-0.053805187344551086,-0.13403236865997314,0.16369935870170593
1782815275646046200,2.710046142578125,-0.10160189867019653,-0.1000371128320694,0.07954058796167374
1782815275666128100,2.730128173828125,-0.08508317917585373,0.10418442636728287,-0.019534394145011902
1782815275686211000,2.750211181640625,-0.019322311505675316,0.4057573676109314,-0.12773354351520538
1782815275706293000,2.77029296875,0.059990838170051575,0.49930354952812195,-0.2412717491388321
1782815275726375200,2.790375244140625,0.12636898458003998,0.34111762046813965,-0.2919740378856659
1782815275746457000,2.81045703125,0.20560243725776672,0.13024140894412994,-0.2008315920829773
1782815275766539000,2.8305390625,0.29150617122650146,-0.05637968331575394,0.017761845141649246
1782815275786621200,2.85062109375,0.3614712655544281,-0.1338018923997879,0.2904815375804901
1782815275806703000,2.870703125,0.39093688130378723,-0.18769288063049316,0.5349106192588806
1782815275826785000,2.890784912109375,0.413832426071167,-0.2212264984846115,0.6828948855400085
1782815275846867200,2.9108671875,0.40440383553504944,-0.2935255169868469,0.6678828597068787
1782815275866949000,2.93094921875,0.32154619693756104,-0.3712991774082184,0.49324676394462585
1782815275887031000,2.951031005859375,0.15804676711559296,-0.39832180738449097,0.22504818439483643
1782815275907113000,2.971113037109375,-0.029768317937850952,-0.3430728316307068,-0.055127888917922974
1782815275927195100,2.991195068359375,-0.15598702430725098,-0.11373325437307358,-0.2688808739185333
1782815275947277000,3.011277099609375,-0.2234366536140442,0.14250712096691132,-0.4152294099330902
1782815275967359000,3.03135888671875,-0.28998619318008423,0.2743210196495056,-0.4909369945526123
1782815275987441200,3.051441162109375,-0.34837424755096436,0.3483029305934906,-0.49328288435935974
1782815276007523000,3.071523193359375,-0.37783777713775635,0.30491286516189575,-0.4476325213909149
1782815276027605000,3.09160498046875,-0.36773625016212463,0.23466448485851288,-0.3846169710159302
1782815276047687200,3.111687255859375,-0.3460545539855957,0.21540023386478424,-0.32823193073272705
1782815276067769000,3.13176904296875,-0.35312506556510925,0.23310235142707825,-0.29965120553970337
1782815276087851000,3.15185107421875,-0.3687018156051636,0.18421514332294464,-0.30935412645339966
1782815276107933000,3.171932861328125,-0.3293372690677643,0.09089506417512894,-0.30938953161239624
1782815276128015000,3.19201513671875,-0.21381719410419464,0.08404385298490524,-0.28146493434906006
1782815276148097000,3.212096923828125,-0.06361505389213562,0.048108793795108795,-0.24315495789051056
1782815276168180200,3.23218017578125,0.05820314958691597,-0.07075394690036774,-0.20509202778339386
1782815276188262100,3.25226220703125,0.11693359911441803,-0.09941922128200531,-0.15879365801811218
1782815276208344300,3.27234423828125,0.1339617520570755,-0.07350821793079376,-0.15105842053890228
1782815276228426200,3.29242626953125,0.14686888456344604,-0.05766104534268379,-0.22232753038406372
1782815276248508200,3.312508056640625,0.16539770364761353,-0.014651337638497353,-0.3149034082889557
1782815276268590300,3.33259033203125,0.2023552656173706,0.05650494247674942,-0.33007949590682983
1782815276288672300,3.35267236328125,0.276002436876297,0.15026266872882843,-0.261478990316391
1782815276308754200,3.372754150390625,0.3363765776157379,0.10162638127803802,-0.1396392583847046
1782815276328836000,3.392836181640625,0.36674660444259644,-0.03056311421096325,-0.015077082440257072
1782815276348918300,3.412918212890625,0.38445159792900085,-0.0775657445192337,0.09853243082761765
1782815276369000200,3.433000244140625,0.4294542372226715,-0.02678070403635502,0.1409725397825241
1782815276389082000,3.45308203125,0.46475231647491455,0.012751787900924683,0.12541934847831726
1782815276409164300,3.473164306640625,0.44329848885536194,-0.07868095487356186,0.1170322373509407
1782815276429246200,3.49324609375,0.40254124999046326,-0.1357675939798355,0.1836187094449997
1782815276449328000,3.513328125,0.4001508355140686,0.002179346978664398,0.24793849885463715
1782815276469410300,3.533410400390625,0.3762792944908142,-0.05246955528855324,0.1869109719991684
1782815276489492200,3.5534921875,0.3279477655887604,-0.14294999837875366,0.06769814342260361
1782815276509574100,3.57357421875,0.33324331045150757,0.001939887646585703,0.04980528727173805
1782815276529656000,3.593656005859375,0.38187921047210693,0.32366687059402466,0.12857675552368164
1782815276549738200,3.61373828125,0.38480687141418457,0.5082406401634216,0.18112076818943024
1782815276569820200,3.633820068359375,0.3278842866420746,0.3954561650753021,0.10788837820291519
1782815276589902000,3.653902099609375,0.2920648753643036,0.2150261104106903,-0.009508542716503143
1782815276609984300,3.673984375,0.3268815577030182,0.12049955874681473,-0.012186713516712189
1782815276630066200,3.694066162109375,0.40576618909835815,0.053038839250802994,0.1462969034910202
1782815276650148000,3.714148193359375,0.42441898584365845,-0.10102894902229309,0.3240289092063904
1782815276670230300,3.734230224609375,0.37467658519744873,-0.12528802454471588,0.41173386573791504
1782815276690312200,3.754312255859375,0.31466084718704224,0.030474938452243805,0.3856971561908722
1782815276710394000,3.77439404296875,0.2673328220844269,0.16122864186763763,0.28122738003730774
1782815276730476000,3.79447607421875,0.22905538976192474,0.18370313942432404,0.18699485063552856
1782815276750559000,3.81455908203125,0.15581157803535461,0.09432262182235718,0.14211027324199677
1782815276770641200,3.83464111328125,0.05788348615169525,-0.04375835508108139,0.06383005529642105
1782815276790723000,3.85472314453125,0.002456577029079199,-0.19890274107456207,-0.09638850390911102
1782815276810805000,3.874804931640625,0.00421611312776804,-0.266089528799057,-0.22763720154762268
1782815276830887200,3.89488720703125,0.021302931010723114,-0.29488304257392883,-0.2668403685092926
1782815276850969000,3.914968994140625,0.017184261232614517,-0.27578413486480713,-0.236557736992836
1782815276871051000,3.935051025390625,0.020643973723053932,-0.25324952602386475,-0.1745300590991974
1782815276891133200,3.95513330078125,0.005483570974320173,-0.237188920378685,-0.09063253551721573
1782815276911215000,3.975215087890625,-0.017503609880805016,-0.19484823942184448,-0.008262449875473976
1782815276931297000,3.995297119140625,-0.05410104617476463,-0.15123902261257172,0.04827047139406204
1782815276951379000,4.01537890625,-0.11628976464271545,-0.1466713547706604,0.07840592414140701
1782815276971461000,4.035461181640625,-0.17076732218265533,-0.10567540675401688,0.07136911898851395
1782815276991543000,4.05554296875,-0.20399925112724304,-0.042883239686489105,0.007594482973217964
1782815277011625000,4.075625,-0.24132803082466125,-0.005723054986447096,-0.10181213915348053
1782815277031707100,4.09570703125,-0.27115070819854736,-0.03484955057501793,-0.19757947325706482
1782815277051789000,4.1157890625,-0.2816182076931,-0.03938932716846466,-0.21339896321296692
1782815277071871000,4.13587109375,-0.29325011372566223,-0.08399879932403564,-0.17717768251895905
1782815277091953200,4.155953125,-0.29993635416030884,-0.059000346809625626,-0.1392059475183487
1782815277112035000,4.17603515625,-0.30333152413368225,-0.01537754200398922,-0.15931424498558044
1782815277132117000,4.196116943359375,-0.28388816118240356,0.08234768360853195,-0.2240791618824005
1782815277152199000,4.216198974609375,-0.27599313855171204,0.1708967536687851,-0.2519429624080658
1782815277172281000,4.236281005859375,-0.25751227140426636,0.2810021638870239,-0.22828009724617004
1782815277192363000,4.256363037109375,-0.24987179040908813,0.3399088382720947,-0.1904708296060562
1782815277212445000,4.27644482421875,-0.2331904023885727,0.30170920491218567,-0.1950937956571579
1782815277232527000,4.296527099609375,-0.21768958866596222,0.16568134725093842,-0.25784775614738464
1782815277252609000,4.316609130859375,-0.17058758437633514,0.013908056542277336,-0.33283865451812744
1782815277272691000,4.33669091796875,-0.13768401741981506,-0.05385379120707512,-0.3784481883049011
1782815277292773000,4.356773193359375,-0.128437340259552,-0.11935766786336899,-0.38762134313583374
1782815277312855300,4.376855224609375,-0.11429890245199203,-0.14956913888454437,-0.40172502398490906
1782815277332937200,4.396937255859375,-0.08915895968675613,-0.10075560212135315,-0.398716002702713
1782815277353019100,4.41701904296875,-0.0640229731798172,-0.09063931554555893,-0.3863304555416107
1782815277373101300,4.437101318359375,-0.04656142368912697,-0.08937021344900131,-0.356123685836792
1782815277393184300,4.457184326171875,-0.03975977376103401,-0.12451567500829697,-0.3345626890659332
1782815277413266200,4.47726611328125,-0.01924842968583107,-0.12486417591571808,-0.30352574586868286
1782815277433348000,4.49734814453125,-0.0008946204325184226,-0.05516311526298523,-0.23153673112392426
1782815277453430300,4.51743017578125,0.005357431247830391,0.014467503875494003,-0.12307873368263245
1782815277473512200,4.53751220703125,0.009561054408550262,0.046624232083559036,-0.026235215365886688
1782815277493594000,4.557593994140625,0.01944499835371971,0.08831943571567535,0.025929022580385208
1782815277513676300,4.57767626953125,0.02253522165119648,0.13645195960998535,0.044076718389987946
1782815277533758200,4.59775830078125,0.014419077895581722,0.11519568413496017,0.0409773625433445
1782815277553840000,4.617840087890625,0.007851953618228436,0.039598699659109116,0.023052187636494637
1782815277573922000,4.637922119140625,0.0016954542370513082,-0.0506896898150444,-0.007630952633917332
1782815277594004200,4.658004150390625,-0.019532032310962677,-0.06422354280948639,-0.028048787266016006
1782815277614086100,4.678086181640625,-0.05514492467045784,-0.0646691545844078,-0.04171488434076309
1782815277634168000,4.69816796875,-0.07480629533529282,-0.11674366146326065,-0.05743760988116264
1782815277654250200,4.718250244140625,-0.07010816037654877,-0.16554810106754303,-0.04716318100690842
1782815277674332200,4.738332275390625,-0.07584034651517868,-0.20904630422592163,0.019116239622235298
1782815277694414000,4.7584140625,-0.11095939576625824,-0.2842710316181183,0.11695804446935654
1782815277714496300,4.778496337890625,-0.1239335685968399,-0.2932274043560028,0.19436699151992798
1782815277734578200,4.798578125,-0.12977232038974762,-0.23463179171085358,0.2897986173629761
1782815277754660000,4.81866015625,-0.12729620933532715,-0.20402243733406067,0.41254034638404846
1782815277774742000,4.838741943359375,-0.10269433259963989,-0.23479507863521576,0.5437517762184143
1782815277794824200,4.85882421875,-0.08273550868034363,-0.2981109023094177,0.6287188529968262
1782815277814906000,4.878906005859375,-0.1335541009902954,-0.4054972529411316,0.6355132460594177
1782815277834988000,4.898988037109375,-0.27093008160591125,-0.36025378108024597,0.627014696598053
1782815277855070200,4.9190703125,-0.3938644826412201,-0.17569562792778015,0.5653298497200012
1782815277875152100,4.939152099609375,-0.45887327194213867,0.029894210398197174,0.4542420506477356
1782815277895234000,4.959234130859375,-0.43739384412765503,0.21241360902786255,0.31052422523498535
1782815277915316200,4.979316162109375,-0.2717844247817993,0.3844566345214844,0.1556960642337799
1782815277935398100,4.999398193359375,-0.05044650658965111,0.451028048992157,0.15603792667388916
1782815277955480000,5.01947998046875,0.07124026864767075,0.24332697689533234,0.32569900155067444
1782815277975562000,5.03956201171875,0.05837094783782959,0.06182490289211273,0.32856252789497375
1782815277995644200,5.05964404296875,0.015177524648606777,0.11798259615898132,0.028722302988171577
1782815278015726000,5.07972607421875,-0.0701422467827797,0.24192139506340027,-0.3801043927669525
1782815278035808000,5.09980810546875,-0.2072490155696869,0.2937116324901581,-0.7199952006340027
1782815278055890200,5.11989013671875,-0.3385228216648102,0.27919435501098633,-0.8283533453941345
1782815278075972000,5.13997216796875,-0.3866868019104004,0.29930636286735535,-0.6639623045921326
1782815278096054000,5.160053955078125,-0.3183043599128723,0.45743730664253235,-0.47155922651290894
1782815278116136200,5.18013623046875,-0.1745908260345459,0.6439634561538696,-0.2700904905796051
1782815278136218000,5.200218017578125,-0.036740273237228394,0.6770716905593872,-0.046054065227508545
1782815278156300000,5.220300048828125,0.10173729807138443,0.5337027311325073,0.1726643145084381
1782815278176382000,5.2403818359375,0.2728031575679779,0.336758553981781,0.33071085810661316
1782815278196464000,5.260464111328125,0.40167078375816345,-0.03367498889565468,0.35132721066474915
1782815278216546000,5.280546142578125,0.4044424593448639,-0.40874797105789185,0.29006335139274597
1782815278236628000,5.3006279296875,0.29682865738868713,-0.5874507427215576,0.20067685842514038
1782815278257337000,5.321337158203125,0.1763661503791809,-0.5256368517875671,0.046395037323236465
1782815278277419000,5.3414189453125,0.1186021938920021,-0.22200769186019897,-0.10852517187595367
1782815278297501200,5.361501220703125,0.14743821322917938,0.2687365710735321,-0.22387798130512238
1782815278317582600,5.38158251953125,0.21323740482330322,0.5675948858261108,-0.3081701397895813
1782815278337664500,5.40166455078125,0.2767997682094574,0.6201408505439758,-0.3352836072444916
1782815278357746700,5.42174658203125,0.3422989547252655,0.5045889616012573,-0.359610378742218
1782815278377828600,5.44182861328125,0.41180434823036194,0.3178439140319824,-0.3848879039287567
1782815278397910500,5.46191064453125,0.46012604236602783,0.13457758724689484,-0.4065881073474884
1782815278417992700,5.48199267578125,0.49967503547668457,-0.041258275508880615,-0.45356228947639465
1782815278438074600,5.50207470703125,0.552599310874939,-0.16386348009109497,-0.5316014885902405
1782815278458156500,5.522156494140625,0.6053057909011841,-0.2561938762664795,-0.6051772832870483
1782815278478238500,5.542238525390625,0.6427751183509827,-0.21905283629894257,-0.6462249159812927
1782815278498320600,5.562320556640625,0.6883319020271301,-0.00885775126516819,-0.6747846603393555
1782815278518402600,5.582402587890625,0.7403488159179688,0.17409519851207733,-0.6683093309402466
1782815278538484500,5.602484375,0.7956559062004089,0.26939332485198975,-0.5849612355232239
1782815278558566700,5.622566650390625,0.7929431200027466,0.2546103298664093,-0.35772982239723206
1782815278578648600,5.642648681640625,0.7276643514633179,0.09516536444425583,-0.04381966590881348
1782815278598104800,5.662104736328125,0.6660826802253723,-0.021927477791905403,0.18947264552116394
1782815278618186800,5.682186767578125,0.6003091931343079,-0.03806137293577194,0.23421327769756317
1782815278638268700,5.7022685546875,0.523167073726654,0.016905929893255234,0.16367295384407043
1782815278658350600,5.7223505859375,0.4342880845069885,0.04221722111105919,0.1021338403224945
1782815278678432800,5.742432861328125,0.36492082476615906,0.028018806129693985,0.08026359975337982
1782815278698514700,5.7625146484375,0.2870568037033081,0.008807257749140263,0.06379801034927368
1782815278718596600,5.7825966796875,0.20485857129096985,-0.05324865132570267,0.07450585067272186
1782815278738678800,5.8026787109375,0.14750097692012787,-0.08627709746360779,0.10843014717102051
1782815278758760700,5.8227607421875,0.11466368287801743,-0.10505224019289017,0.1567486673593521
1782815278778842600,5.842842529296875,0.06559951603412628,-0.13388723134994507,0.21273492276668549
1782815278798924800,5.8629248046875,-0.0046745240688323975,-0.13954491913318634,0.2855837047100067
1782815278819006700,5.8830068359375,-0.08092392235994339,-0.06108158081769943,0.3701877295970917
1782815278839088600,5.903088623046875,-0.18853077292442322,-0.043122176080942154,0.3866867423057556
1782815278859170600,5.923170654296875,-0.34028902649879456,-0.12410099804401398,0.3106016218662262
1782815278879252700,5.943252685546875,-0.4764765799045563,-0.11480606347322464,0.19458845257759094
1782815278899334700,5.963334716796875,-0.5513758063316345,0.050177864730358124,0.11766843497753143
1782815278919416600,5.98341650390625,-0.5705562233924866,0.21034760773181915,0.09415201842784882
1782815278939498800,6.003498779296875,-0.593389630317688,0.2559473216533661,0.10563157498836517
1782815278959580700,6.02358056640625,-0.6190536618232727,0.19910931587219238,0.11518985778093338
1782815278979662600,6.04366259765625,-0.6009904146194458,0.11434410512447357,0.11197918653488159
1782815278999744800,6.063744873046875,-0.48638537526130676,0.04835283383727074,0.10275502502918243
1782815279019826700,6.08382666015625,-0.2987348735332489,0.0010812324471771717,0.12155570834875107
1782815279039908600,6.10390869140625,-0.1878601312637329,-0.07086639106273651,0.2073839157819748
1782815279059990500,6.123990478515625,-0.17640520632266998,-0.19493068754673004,0.30551713705062866
1782815279080072700,6.14407275390625,-0.21728584170341492,-0.3505094349384308,0.3267400562763214
1782815279100154600,6.164154541015625,-0.3144048750400543,-0.43994444608688354,0.25163233280181885
1782815279120236500,6.184236572265625,-0.47215792536735535,-0.47971850633621216,0.15856021642684937
1782815279140318700,6.204318603515625,-0.6363841891288757,-0.3239139914512634,0.12268386036157608
1782815279160400600,6.224400634765625,-0.7631784677505493,-0.05981072410941124,0.10030186176300049
1782815279180482600,6.244482666015625,-0.8508632183074951,0.034982286393642426,0.09896110743284225
1782815279200564700,6.264564697265625,-0.9138906598091125,0.015400819480419159,0.1098242774605751
1782815279220646700,6.284646728515625,-0.9588537812232971,-0.03506932035088539,0.09475015848875046
1782815279240728600,6.304728515625,-0.9940822124481201,-0.10345902293920517,0.0571783147752285
1782815279260810500,6.324810546875,-1.0119708776474,-0.15131476521492004,0.020526403561234474
1782815279280892700,6.344892578125,-1.0121294260025024,-0.1915000081062317,0.03596208617091179
1782815279300974600,6.364974609375,-1.014145851135254,-0.23644214868545532,0.14277461171150208
1782815279321056800,6.385056884765625,-1.0719990730285645,-0.2709799110889435,0.287409245967865
1782815279341139000,6.405138916015625,-1.155028223991394,-0.2990705668926239,0.39723286032676697
1782815279361220900,6.425220947265625,-1.2410051822662354,-0.30709025263786316,0.45948249101638794
1782815279381302800,6.445302734375,-1.3298121690750122,-0.2828293442726135,0.4758862853050232
1782815279401384700,6.465384765625,-1.3877360820770264,-0.20843368768692017,0.45339903235435486
1782815279421467000,6.485466796875,-1.4463670253753662,-0.1442643254995346,0.4166942238807678
1782815279441548800,6.505548828125,-1.5366755723953247,-0.14568857848644257,0.39786145091056824
1782815279461630700,6.525630615234375,-1.6435898542404175,-0.18477390706539154,0.383624404668808
1782815279481713000,6.545712890625,-1.7163830995559692,-0.2906329035758972,0.33952975273132324
1782815279501794800,6.565794921875,-1.760678768157959,-0.44643595814704895,0.23149627447128296
1782815279521876700,6.585876708984375,-1.7561949491500854,-0.5849316716194153,0.05636868253350258
1782815279541959000,6.605958984375,-1.7240732908248901,-0.6758983135223389,-0.09336870908737183
1782815279562040800,6.626040771484375,-1.7411015033721924,-0.826779305934906,-0.09953870624303818
1782815279582122800,6.646122802734375,-1.8511511087417603,-0.976711630821228,-0.01730095036327839
1782815279602204700,6.66620458984375,-1.9921796321868896,-0.9735217094421387,0.04243287816643715
1782815279622286800,6.686286865234375,-2.090923309326172,-0.6962835788726807,0.06094399839639664
1782815279642368800,6.70636865234375,-2.1490306854248047,-0.4156145751476288,0.17994408309459686
1782815279662450700,6.72645068359375,-2.2114036083221436,-0.4480499029159546,0.391555517911911
1782815279682532900,6.746532958984375,-2.26946759223938,-0.5351266860961914,0.496261864900589
1782815279702614800,6.76661474609375,-2.325834035873413,-0.5463039875030518,0.39912793040275574
1782815279722696700,6.78669677734375,-2.3616106510162354,-0.5359274744987488,0.1644667387008667
1782815279742779000,6.80677880859375,-2.353226661682129,-0.5392023921012878,-0.09918391704559326
1782815279762860800,6.82686083984375,-2.3314638137817383,-0.5288161039352417,-0.28377652168273926
1782815279782942700,6.846942626953125,-2.360999822616577,-0.4791489243507385,-0.3515755236148834
1782815279803025000,6.86702490234375,-2.3628506660461426,-0.4044758677482605,-0.2864220142364502
1782815279823106800,6.88710693359375,-2.290421485900879,-0.33406633138656616,-0.09025473147630692
1782815279843188700,6.907188720703125,-2.210390567779541,-0.3325014114379883,0.11510298401117325
1782815279863270700,6.927270751953125,-2.1960065364837646,-0.4208996891975403,0.24635273218154907
1782815279883351800,6.947351806640625,-2.225045680999756,-0.4696224629878998,0.30094677209854126
1782815279903433700,6.967433837890625,-2.2434206008911133,-0.4697722792625427,0.28853166103363037
1782815279923516000,6.987515869140625,-2.2515809535980225,-0.543742835521698,0.24293076992034912
1782815279943597800,7.007597900390625,-2.2997217178344727,-0.6050826907157898,0.1939678192138672
1782815279963679700,7.0276796875,-2.347299098968506,-0.4950111508369446,0.14391005039215088
1782815279983761700,7.04776171875,-2.3635025024414062,-0.16872638463974,0.10792490094900131
1782815280003843800,7.06784375,-2.30273699760437,0.044668056070804596,0.06919267028570175
1782815280023925800,7.08792578125,-2.153163433074951,0.2672053277492523,0.11040231585502625
1782815280044007700,7.108007568359375,-1.9774099588394165,0.5150418281555176,0.1980571299791336
1782815280064089900,7.12808984375,-1.8450429439544678,0.7065223455429077,0.2353217899799347
1782815280084171800,7.148171875,-1.7142468690872192,0.729566752910614,0.12439461052417755
1782815280104253700,7.168253662109375,-1.4908775091171265,0.5349701642990112,-0.1075357049703598
1782815280124335900,7.1883359375,-1.1760774850845337,0.09354793280363083,-0.38494881987571716
1782815280144417800,7.208417724609375,-0.8924468159675598,-0.5163564682006836,-0.5206279158592224
1782815280164499700,7.228499755859375,-0.667366623878479,-0.9241479635238647,-0.3531975746154785
1782815280184581600,7.24858154296875,-0.5101222395896912,-0.8318997621536255,0.12783531844615936
1782815280204663800,7.268663818359375,-0.5492294430732727,-0.6422086358070374,0.6959959864616394
1782815280224745700,7.288745849609375,-0.6424756050109863,-0.48556002974510193,1.033593773841858
1782815280244827600,7.30882763671875,-0.7114763259887695,-0.3867686688899994,1.016878366470337
1782815280264909800,7.328909912109375,-0.8208284974098206,-0.26629698276519775,0.775242805480957
1782815280284991700,7.34899169921875,-0.9440448880195618,-0.0962672308087349,0.49056145548820496
1782815280305073700,7.36907373046875,-1.0185502767562866,-0.05521519482135773,0.30031341314315796
1782815280325156400,7.38915625,-1.063177466392517,-0.24853281676769257,0.2727965712547302
1782815280345238500,7.409238525390625,-1.1679922342300415,-0.5260049700737,0.3767566680908203
1782815280365320400,7.429320556640625,-1.3398754596710205,-0.7149014472961426,0.47130125761032104
1782815280385402400,7.44940234375,-1.5085240602493286,-0.8016785979270935,0.44243407249450684
1782815280405484500,7.469484619140625,-1.6061824560165405,-0.8073916435241699,0.3011043071746826
1782815280425566500,7.48956640625,-1.6923319101333618,-0.7623932957649231,0.14304065704345703
1782815280445648400,7.5096484375,-1.7606655359268188,-0.7049677968025208,0.020190758630633354
1782815280465730300,7.529730224609375,-1.8176718950271606,-0.6259775757789612,-0.026478981599211693
1782815280485812500,7.5498125,-1.8473633527755737,-0.6812295913696289,-0.04231327772140503
1782815280505894400,7.569894287109375,-1.8602780103683472,-0.8981859087944031,-0.06387566030025482
1782815280525975600,7.5899755859375,-1.8247241973876953,-1.1150283813476562,-0.06644301861524582
1782815280546057500,7.610057373046875,-1.8010351657867432,-1.2247154712677002,-0.0928267240524292
1782815280566139400,7.630139404296875,-1.8171299695968628,-1.1596837043762207,-0.17935001850128174
1782815280586221600,7.6502216796875,-1.8514885902404785,-0.9099960327148438,-0.270031601190567
1782815280606303500,7.670303466796875,-1.905477523803711,-0.5742436647415161,-0.26175278425216675
1782815280626385400,7.690385498046875,-1.8874285221099854,-0.26182880997657776,-0.2143334597349167
1782815280646467300,7.71046728515625,-1.8282620906829834,-0.0830005630850792,-0.16543740034103394
1782815280666549500,7.730549560546875,-1.7512524127960205,-0.002434074878692627,-0.06176243722438812
1782815280686631400,7.75063134765625,-1.6764729022979736,-0.06782835721969604,0.06930400431156158
1782815280706713300,7.77071337890625,-1.5917927026748657,-0.2092909961938858,0.14587992429733276
1782815280726795500,7.79079541015625,-1.5224647521972656,-0.3084559738636017,0.13966083526611328
1782815280746877400,7.81087744140625,-1.450252890586853,-0.25372132658958435,0.09026246517896652
1782815280766959400,7.83095947265625,-1.3443267345428467,-0.12611918151378632,0.04971417784690857
1782815280787041500,7.85104150390625,-1.2403990030288696,-0.09158061444759369,0.02579985372722149
1782815280807123500,7.87112353515625,-1.1547998189926147,-0.1215510219335556,0.04202466085553169
1782815280827205400,7.891205322265625,-1.0797181129455566,-0.13097621500492096,0.10359268635511398
1782815280847287300,7.911287353515625,-0.9876533150672913,-0.11100976914167404,0.17156411707401276
1782815280867369500,7.931369384765625,-0.8856275677680969,-0.11604494601488113,0.16178032755851746
1782815280887451400,7.951451416015625,-0.7767621278762817,-0.12069792300462723,0.09498869627714157
1782815280907533300,7.971533203125,-0.6677235960960388,-0.11078593134880066,0.047432832419872284
1782815280927615500,7.991615478515625,-0.5562048554420471,-0.06843339651823044,0.08670303970575333
1782815280947697400,8.011697509765625,-0.4482763111591339,-0.0824487954378128,0.17746390402317047
1782815280967779300,8.031779296875,-0.3531019389629364,-0.12616464495658875,0.26237916946411133
1782815280987860500,8.051860595703126,-0.24381384253501892,-0.19069235026836395,0.2905709147453308
1782815281007942400,8.0719423828125,-0.1569305956363678,-0.2811623513698578,0.3049391806125641
1782815281028024300,8.0920244140625,-0.12013759464025497,-0.39467886090278625,0.27467861771583557
1782815281048106500,8.1121064453125,-0.13947202265262604,-0.46272802352905273,0.20127643644809723
1782815281068188400,8.1321884765625,-0.187792107462883,-0.3759405314922333,0.11490290611982346
1782815281088270300,8.152270263671875,-0.222021222114563,-0.1622462272644043,0.07833399623632431
1782815281108352500,8.1723525390625,-0.21817420423030853,0.06850556284189224,0.14824312925338745
1782815281128434400,8.192434326171876,-0.17494601011276245,0.23000749945640564,0.2711256146430969
1782815281148516400,8.212516357421874,-0.14183689653873444,0.20224355161190033,0.33088570833206177
1782815281168598500,8.2325986328125,-0.11005909740924835,0.09029603004455566,0.30383023619651794
1782815281188680400,8.252680419921875,-0.05074658244848251,-0.05272400751709938,0.23609507083892822
1782815281208762400,8.272762451171875,-0.00576062873005867,-0.1439940184354782,0.22389006614685059
1782815281228844300,8.29284423828125,0.010895655490458012,-0.1575595885515213,0.28453269600868225
1782815281248926500,8.312926513671876,0.009017428383231163,-0.14527234435081482,0.37976327538490295
1782815281269008400,8.33300830078125,-0.008167112246155739,-0.18604840338230133,0.4322866201400757
1782815281289090300,8.35309033203125,-0.030728142708539963,-0.1664830446243286,0.43800637125968933
1782815281309172500,8.37317236328125,-0.05914992094039917,-0.15284021198749542,0.3802032470703125
1782815281329254000,8.39325390625,-0.09382020682096481,-0.09760166704654694,0.2772165536880493
1782815281349335000,8.4133349609375,-0.13936950266361237,-0.01934816502034664,0.1636505275964737
1782815281369417000,8.4334169921875,-0.17648525536060333,0.03931218385696411,0.10963595658540726
1782815281389499000,8.453498779296876,-0.19773109257221222,0.06347941607236862,0.12066725641489029
1782815281409581000,8.4735810546875,-0.22987774014472961,0.08267011493444443,0.13336697220802307
1782815281429663000,8.4936630859375,-0.2578462064266205,0.08202305436134338,0.08379454910755157
1782815281449745000,8.513744873046875,-0.2575724422931671,0.08138053119182587,0.005964390933513641
1782815281469826800,8.533826904296875,-0.2254570722579956,0.01708575338125229,-0.02191908285021782
1782815281489909000,8.553908935546875,-0.2175954431295395,-0.16365545988082886,-0.023779677227139473
1782815281509991000,8.573990966796876,-0.29517677426338196,-0.4014500081539154,-0.07901223003864288
1782815281530072800,8.59407275390625,-0.4166984260082245,-0.5201547145843506,-0.18981234729290009
1782815281550155000,8.614155029296874,-0.5080322623252869,-0.45468130707740784,-0.337159126996994
1782815281570237000,8.63423681640625,-0.5319230556488037,-0.21411378681659698,-0.44389134645462036
1782815281590318800,8.65431884765625,-0.5322414040565491,0.039881013333797455,-0.4436648488044739
1782815281610401000,8.674401123046875,-0.5552850961685181,0.05972151830792427,-0.3865169882774353
1782815281630483000,8.69448291015625,-0.5938860774040222,0.05281497538089752,-0.3163808286190033
1782815281650564900,8.71456494140625,-0.598027765750885,0.1640005260705948,-0.24981637299060822
1782815281670646000,8.73464599609375,-0.5658018589019775,0.247983917593956,-0.23125611245632172
1782815281690728000,8.75472802734375,-0.531437337398529,0.293739378452301,-0.24661067128181458
1782815281710809900,8.774809814453125,-0.5196963548660278,0.2975013256072998,-0.2670499384403229
1782815281730892000,8.79489208984375,-0.5316157341003418,0.26924967765808105,-0.2629181146621704
1782815281750974000,8.814973876953125,-0.5358908772468567,0.23048770427703857,-0.24502870440483093
1782815281771055900,8.835055908203126,-0.5008329749107361,0.16977180540561676,-0.23816034197807312
1782815281791138000,8.855137939453124,-0.4527340829372406,0.08266530930995941,-0.21582114696502686
1782815281811220000,8.875219970703125,-0.43890270590782166,-0.02096034213900566,-0.15211842954158783
1782815281831302000,8.895302001953125,-0.4592770040035248,-0.15548869967460632,-0.10702388733625412
1782815281851383800,8.9153837890625,-0.4899250864982605,-0.28345632553100586,-0.13167636096477509
1782815281871466000,8.935466064453125,-0.5027294754981995,-0.3387990891933441,-0.18221384286880493
1782815281891548000,8.9555478515625,-0.4983990788459778,-0.31072869896888733,-0.2211863100528717
1782815281911629800,8.9756298828125,-0.48472151160240173,-0.2062142938375473,-0.19889776408672333
1782815281931712000,8.9957119140625,-0.4851508140563965,-0.052788060158491135,-0.11730239540338516
1782815281951794000,9.0157939453125,-0.4790269136428833,0.07803159207105637,-0.009016189724206924
1782815281971875000,9.035875,-0.4647572636604309,0.10784894227981567,0.07297999411821365
1782815281991957000,9.05595703125,-0.44875869154930115,0.05464566498994827,0.09248372912406921
1782815282012039000,9.076038818359375,-0.4314853847026825,0.021631181240081787,0.07032100856304169
1782815282032120800,9.096120849609376,-0.41442403197288513,0.01359398290514946,0.019208194687962532
1782815282052203000,9.116203125,-0.3996431827545166,-0.0024182945489883423,-0.022244466468691826
1782815282072285000,9.136284912109375,-0.3898470103740692,-0.025477919727563858,-0.04389915615320206
1782815282092366800,9.156366943359375,-0.3670121729373932,-0.06504480540752411,-0.04115638881921768
1782815282112449000,9.176448974609375,-0.3288346230983734,-0.12892751395702362,-0.019994929432868958
1782815282132531000,9.196531005859375,-0.296700119972229,-0.2238335907459259,0.004675107076764107
1782815282152612900,9.21661279296875,-0.26673176884651184,-0.2333417683839798,0.02117680385708809
1782815282172695000,9.236695068359374,-0.23230315744876862,-0.18768823146820068,0.010738072916865349
1782815282192777000,9.25677685546875,-0.19534458220005035,-0.172643780708313,-0.010819709859788418
1782815282212859000,9.27685888671875,-0.15151846408843994,-0.19724948704242706,-0.005272017791867256
1782815282232940800,9.29694091796875,-0.0908128097653389,-0.1965460181236267,0.03694656118750572
1782815282253022000,9.31702197265625,-0.0345582515001297,-0.1658107042312622,0.09652393311262131
1782815282273104000,9.337103759765625,0.002304918598383665,-0.13887247443199158,0.14598461985588074
1782815282293186000,9.35718603515625,0.022247912362217903,-0.219913512468338,0.15730418264865875
1782815282313268000,9.37726806640625,0.029431015253067017,-0.3420555293560028,0.10744315385818481
1782815282333349600,9.397349609375,0.0760645940899849,-0.12606178224086761,0.08374352753162384
1782815282353431800,9.417431884765625,0.11282967776060104,-0.022788014262914658,0.09347175061702728
1782815282373513700,9.437513671875,0.09785082191228867,-0.006938233971595764,0.12227509170770645
1782815282393595600,9.457595703125,0.04773686081171036,0.06433947384357452,0.12361722439527512
1782815282413677600,9.477677490234376,0.020805910229682922,0.1623411327600479,0.09378529340028763
1782815282433759700,9.497759765625,0.023657331243157387,0.2980806827545166,0.08800533413887024
1782815282453841700,9.517841552734374,0.050785139203071594,0.33668622374534607,0.10451607406139374
1782815282473923600,9.537923583984375,0.08615119755268097,0.3125484585762024,0.13253338634967804
1782815282494005800,9.558005859375,0.0935264527797699,0.1459653675556183,0.1198405995965004
1782815282514087700,9.578087646484375,0.07112736999988556,0.006306129042059183,0.06532730907201767
1782815282534169600,9.598169677734376,0.052861060947179794,0.0586615614593029,-0.014872338622808456
1782815282554251800,9.618251708984374,0.0515795536339283,0.18878977000713348,-0.09485681354999542
1782815282574332700,9.638332763671874,0.08602592349052429,0.25812119245529175,-0.14028258621692657
1782815282594414600,9.65841455078125,0.1155385673046112,0.22904206812381744,-0.1324503868818283
1782815282614496800,9.678496826171875,0.11097105592489243,0.14792035520076752,-0.08384311199188232
1782815282634578700,9.69857861328125,0.11300613731145859,0.12347791343927383,-0.0671636164188385
1782815282654660600,9.71866064453125,0.13364286720752716,0.14097543060779572,-0.11708077788352966
1782815282674742800,9.73874267578125,0.16515402495861053,0.14902080595493317,-0.16719596087932587
1782815282694824700,9.75882470703125,0.177454873919487,0.09688983112573624,-0.17413294315338135
1782815282714906600,9.77890673828125,0.1469758152961731,-0.011279629543423653,-0.14910268783569336
1782815282734988800,9.79898876953125,0.1024593785405159,-0.00023598968982696533,-0.126089945435524
1782815282755070700,9.81907080078125,0.058672141283750534,0.08243782073259354,-0.13609445095062256
1782815282775152600,9.839152587890625,0.027527328580617905,0.17571118474006653,-0.14974042773246765
1782815282795234600,9.859234619140626,0.00920240767300129,0.196283221244812,-0.15548530220985413
1782815282815316700,9.879316650390624,-0.04766477271914482,0.1231522187590599,-0.15839871764183044
1782815282835398700,9.899398681640625,-0.10785158723592758,0.032249510288238525,-0.17719118297100067
1782815282855480600,9.91948046875,-0.13803541660308838,0.005926043260842562,-0.18854744732379913
1782815282875562800,9.939562744140625,-0.14729882776737213,0.010218113660812378,-0.20068667829036713
1782815282895644700,9.959644775390625,-0.14213092625141144,0.054222967475652695,-0.22041061520576477
1782815282915726600,9.9797265625,-0.12268403172492981,0.05977634713053703,-0.24344958364963531
1782815282935808800,9.999808837890624,-0.09969566017389297,0.005555553361773491,-0.2582365870475769
1782815282955890700,10.019890625,-0.08760125935077667,-0.0620722621679306,-0.24553577601909637
1782815282975972600,10.03997265625,-0.045015979558229446,-0.0558556392788887,-0.2062043398618698
1782815282996054500,10.060054443359375,0.01579059474170208,0.03799297660589218,-0.14192704856395721
1782815283016136700,10.08013671875,0.03331040218472481,0.08716762810945511,-0.026471218094229698
1782815283036218600,10.100218505859376,0.060673266649246216,-0.09412211924791336,0.05066089704632759
1782815283056300500,10.120300537109374,0.08808876574039459,-0.3418709933757782,-0.0053617460653185844
1782815283076381700,10.140381591796874,0.05797311291098595,-0.41386982798576355,-0.13732753694057465
1782815283096463600,10.160463623046875,-0.01223298441618681,-0.26311272382736206,-0.3468315303325653
1782815283116545800,10.1805458984375,0.026372699066996574,0.02304913103580475,-0.4723375141620636
