time,seconds_elapsed,z,y,x
1782815035376219000,0.060218994140625,0.32588157057762146,-0.5682187676429749,0.33128273487091064
1782815035396300800,0.08030078125,0.29950636625289917,-0.4021996259689331,0.271737664937973
1782815035416382700,0.1003828125,0.2152576893568039,-0.20376147329807281,0.1784728467464447
1782815035436465000,0.12046484375,0.12050874531269073,0.0064049409702420235,0.0920102521777153
1782815035456546800,0.140546875,0.035307954996824265,0.021139318123459816,0.01008443534374237
1782815035476628700,0.160628662109375,0.01579803228378296,0.08598150312900543,-0.05033883452415466
1782815035496711700,0.180711669921875,-0.014088829979300499,0.163456991314888,-0.053372327238321304
1782815035516793600,0.200793701171875,-0.038468122482299805,0.17299535870552063,-0.025831609964370728
1782815035536875800,0.220875732421875,-0.00963934138417244,0.10211215913295746,-0.004367535933852196
1782815035556957700,0.240957763671875,0.05161069706082344,-0.006365406326949596,0.010285355150699615
1782815035577039600,0.26103955078125,0.11950148642063141,-0.11051221936941147,0.03145807236433029
1782815035597121800,0.281121826171875,0.1834683120250702,-0.12556514143943787,0.06785355508327484
1782815035617203700,0.30120361328125,0.1933930218219757,-0.0727030411362648,0.13204772770404816
1782815035637285600,0.32128564453125,0.15079917013645172,-0.12154430150985718,0.16157954931259155
1782815035657367800,0.341367919921875,0.10335919260978699,-0.26212212443351746,0.16770070791244507
1782815035677450800,0.36145068359375,0.07471759617328644,-0.24144913256168365,0.13830748200416565
1782815035697532700,0.38153271484375,0.07558875530958176,-0.044126443564891815,0.04968773201107979
1782815035717614600,0.401614501953125,0.05713608115911484,0.19778621196746826,-0.03287450969219208
1782815035737696800,0.42169677734375,-0.006042518652975559,0.3590835630893707,-0.044830046594142914
1782815035757779000,0.441779052734375,-0.035002488642930984,0.24772651493549347,-0.02616293355822563
1782815035777860900,0.46186083984375,0.022732658311724663,0.18598632514476776,0.024033239111304283
1782815035797942800,0.48194287109375,0.06922437250614166,0.21581560373306274,0.09970326721668243
1782815035818025000,0.50202490234375,0.08810683339834213,0.19752143323421478,0.14398473501205444
1782815035838107000,0.52210693359375,0.0921466127038002,0.06073964387178421,0.1153300404548645
1782815035858189800,0.54218994140625,0.12870030105113983,-0.15810246765613556,0.007173416670411825
1782815035878271700,0.562271728515625,0.16855022311210632,-0.20813962817192078,-0.06427229195833206
1782815035898354000,0.58235400390625,0.2161611020565033,0.0018629282712936401,-0.017751170322299004
1782815035918435800,0.602435791015625,0.2618832290172577,0.2471819669008255,0.11826743930578232
1782815035938517800,0.622517822265625,0.3119833171367645,0.36331918835639954,0.2874506115913391
1782815035958599700,0.642599609375,0.3338143229484558,0.25542956590652466,0.3961554765701294
1782815035978681900,0.662681884765625,0.3511805534362793,-0.011177081614732742,0.3930957615375519
1782815035998763800,0.682763671875,0.36228424310684204,-0.14649955928325653,0.32730671763420105
1782815036018845700,0.702845703125,0.349330335855484,-0.1294471025466919,0.24375468492507935
1782815036038928600,0.7229287109375,0.295994371175766,-0.13860918581485748,0.15596897900104523
1782815036059010800,0.7430107421875,0.21398968994617462,-0.1265205293893814,0.09745330363512039
1782815036079093000,0.763093017578125,0.1289997696876526,-0.1410646289587021,0.09310513734817505
1782815036099175000,0.7831748046875,0.04904599487781525,-0.09471964836120605,0.17165951430797577
1782815036119257000,0.803257080078125,-0.06848553568124771,-0.038794487714767456,0.24756412208080292
1782815036139339000,0.823339111328125,-0.22076000273227692,-0.025032587349414825,0.22409281134605408
1782815036159421000,0.8434208984375,-0.37349024415016174,-0.04265229403972626,0.09709075838327408
1782815036179502800,0.8635029296875,-0.44628018140792847,-0.07469875365495682,-0.08323612809181213
1782815036199585000,0.8835849609375,-0.4443308413028717,-0.10765605419874191,-0.26385384798049927
1782815036219667000,0.9036669921875,-0.3919115662574768,-0.07049685716629028,-0.39465799927711487
1782815036239750000,0.92375,-0.3250739574432373,0.04423006623983383,-0.46103179454803467
1782815036259831800,0.943831787109375,-0.2608467936515808,0.21244505047798157,-0.39361968636512756
1782815036279914000,0.9639140625,-0.23322038352489471,0.27224963903427124,-0.2157273292541504
1782815036299996000,0.983995849609375,-0.2155676782131195,0.19563007354736328,-0.03599100187420845
1782815036320077800,1.004077880859375,-0.18301238119602203,-0.010672837495803833,0.07096058875322342
1782815036340160000,1.024159912109375,-0.14412757754325867,-0.17703476548194885,0.08958671987056732
1782815036360242000,1.044241943359375,-0.10470756888389587,-0.2696523666381836,0.048497408628463745
1782815036380323800,1.06432373046875,-0.09142031520605087,-0.3610915243625641,-0.03430139273405075
1782815036400405800,1.08440576171875,-0.0675981268286705,-0.3664532005786896,-0.1439051479101181
1782815036420489000,1.104489013671875,-0.06385819613933563,-0.2903592884540558,-0.2599497139453888
1782815036440571000,1.12457080078125,-0.07430066913366318,-0.16472233831882477,-0.36856696009635925
1782815036460652800,1.14465283203125,-0.05353923141956329,-0.08394147455692291,-0.4555518329143524
1782815036480734700,1.164734619140625,0.012290618382394314,-0.02336205169558525,-0.4858688414096832
1782815036500817000,1.18481689453125,0.09431678056716919,-0.012679047882556915,-0.4550132155418396
1782815036520898800,1.20489892578125,0.21821154654026031,-0.028268832713365555,-0.3468959927558899
1782815036540981000,1.22498095703125,0.3338911533355713,-0.006000970024615526,-0.16529397666454315
1782815036561063200,1.245063232421875,0.3933357894420624,0.004094132222235203,0.007416467182338238
1782815036581145000,1.26514501953125,0.4181986451148987,-0.01783744990825653,0.10973230749368668
1782815036601227000,1.28522705078125,0.4286521077156067,-0.006445054896175861,0.15357176959514618
1782815036621310000,1.30531005859375,0.4345510005950928,0.020810192450881004,0.13586638867855072
1782815036641391900,1.325391845703125,0.4442075192928314,0.05576026439666748,0.08624942600727081
1782815036661474000,1.34547412109375,0.44547775387763977,0.07908179610967636,0.07155351340770721
1782815036681556000,1.365555908203125,0.4196932911872864,0.04643036425113678,0.13167524337768555
1782815036701638000,1.385637939453125,0.3612481355667114,0.04302642494440079,0.22184237837791443
1782815036721720000,1.405719970703125,0.29447677731513977,-0.02081017941236496,0.23476187884807587
1782815036741802000,1.425802001953125,0.22769413888454437,-0.04162617772817612,0.16331903636455536
1782815036761884000,1.4458837890625,0.17368610203266144,0.13335739076137543,0.0748683363199234
1782815036781966000,1.465966064453125,0.14312605559825897,0.2400546371936798,0.04486125335097313
1782815036802048000,1.486048095703125,0.11643540859222412,0.3171524703502655,0.08558746427297592
1782815036822131000,1.506130859375,0.08497966080904007,0.2952890396118164,0.10034200549125671
1782815036842212900,1.526212890625,0.06897912174463272,0.2444644719362259,0.07307896018028259
1782815036862295000,1.546294921875,0.057214267551898956,0.24373994767665863,0.04420408234000206
1782815036882377000,1.566376953125,0.06594930589199066,0.18641799688339233,0.015178699977695942
1782815036902459000,1.586458984375,0.10118093341588974,0.07809427380561829,0.0205673947930336
1782815036922540800,1.606540771484375,0.14023344218730927,0.007929056882858276,0.08543124049901962
1782815036942623000,1.626623046875,0.1748136281967163,-0.0020057104993611574,0.17943231761455536
1782815036962705000,1.646704833984375,0.1722681224346161,0.014564807526767254,0.25542744994163513
1782815036982786800,1.666786865234375,0.14601187407970428,0.08100356161594391,0.285431832075119
1782815037002869000,1.686868896484375,0.12433258444070816,0.13521000742912292,0.2631068527698517
1782815037022952000,1.706951904296875,0.1315862238407135,0.1779322624206543,0.23325292766094208
1782815037043033900,1.727033935546875,0.13076914846897125,0.15018388628959656,0.2264985889196396
1782815037063115800,1.74711572265625,0.1229347363114357,0.015106088481843472,0.2270665317773819
1782815037083198200,1.7671982421875,0.10786928236484528,-0.1820983737707138,0.2067798674106598
1782815037103280400,1.7872802734375,0.10448268800973892,-0.20913930237293243,0.2077162116765976
1782815037123362300,1.8073623046875,0.05369412153959274,-0.09599452465772629,0.22089694440364838
1782815037143444200,1.8274443359375,-0.01680482178926468,-0.11726900190114975,0.19184336066246033
1782815037163526400,1.8475263671875,-0.10229438543319702,-0.186628520488739,0.11363799124956131
1782815037183608300,1.8676083984375,-0.1677134931087494,-0.1745462566614151,0.021648673340678215
1782815037203690200,1.887690185546875,-0.22377732396125793,-0.061225201934576035,-0.03539475053548813
1782815037223773200,1.907773193359375,-0.26445356011390686,0.01241659838706255,-0.07131767272949219
1782815037243855400,1.92785546875,-0.26601120829582214,-0.09445522725582123,-0.12071198970079422
1782815037263937300,1.947937255859375,-0.27824145555496216,-0.1769697666168213,-0.17191839218139648
1782815037284019200,1.968019287109375,-0.30635374784469604,-0.27546828985214233,-0.24151183664798737
1782815037304101000,1.98810107421875,-0.34290242195129395,-0.30605190992355347,-0.34363436698913574
1782815037324183300,2.008183349609375,-0.38304832577705383,-0.23041437566280365,-0.4584147334098816
1782815037344265200,2.02826513671875,-0.4077012538909912,-0.12825049459934235,-0.5551467537879944
1782815037364347100,2.04834716796875,-0.3837195634841919,-0.08174379169940948,-0.5972762107849121
1782815037384429300,2.06842919921875,-0.33426815271377563,-0.06262583285570145,-0.5367592573165894
1782815037404511200,2.08851123046875,-0.30496639013290405,-0.01942754164338112,-0.3997766077518463
1782815037424593200,2.10859326171875,-0.30014196038246155,0.022646134719252586,-0.26625847816467285
1782815037444676400,2.12867626953125,-0.293644517660141,0.05086072161793709,-0.18490153551101685
1782815037464758300,2.14875830078125,-0.2544209361076355,0.05050474777817726,-0.15888981521129608
1782815037484840400,2.16884033203125,-0.18669340014457703,0.030277792364358902,-0.1606353521347046
1782815037504922400,2.18892236328125,-0.1527968943119049,0.04655798524618149,-0.131912499666214
1782815037525004300,2.20900439453125,-0.15013155341148376,0.04145239666104317,-0.09356966614723206
1782815037545086500,2.22908642578125,-0.12608569860458374,-0.02880905568599701,-0.06435045599937439
1782815037565168400,2.24916845703125,-0.1019582450389862,-0.1605328917503357,-0.045590590685606
1782815037585250300,2.269250244140625,-0.09996859729290009,-0.2951434254646301,-0.031770650297403336
1782815037605332500,2.28933251953125,-0.11098624020814896,-0.36357858777046204,-0.026541411876678467
1782815037625414400,2.309414306640625,-0.13555191457271576,-0.3375440537929535,-0.024151189252734184
1782815037645497300,2.329497314453125,-0.1868136078119278,-0.29557478427886963,-0.009358230978250504
1782815037665579300,2.349579345703125,-0.28471967577934265,-0.3302488625049591,0.04497618228197098
1782815037685661400,2.369661376953125,-0.35881727933883667,-0.3567465841770172,0.10028868168592453
1782815037705743400,2.389743408203125,-0.4004763960838318,-0.3169921338558197,0.12170866131782532
1782815037725825300,2.4098251953125,-0.4047546982765198,-0.16290156543254852,0.13244925439357758
1782815037745907200,2.4299072265625,-0.40350109338760376,-0.016109339892864227,0.17772473394870758
1782815037765989400,2.4499892578125,-0.3858124613761902,-0.10587649047374725,0.21254360675811768
1782815037786071300,2.4700712890625,-0.3627835214138031,-0.1390531361103058,0.22650146484375
1782815037806153200,2.4901533203125,-0.32955458760261536,-0.11945047974586487,0.19663293659687042
1782815037826235400,2.5102353515625,-0.29390138387680054,-0.12031611055135727,0.13497404754161835
1782815037846317300,2.5303173828125,-0.23209120333194733,-0.130754292011261,0.09555625915527344
1782815037866400300,2.550400146484375,-0.19462129473686218,-0.0807412713766098,0.13605931401252747
1782815037886482200,2.570482177734375,-0.165801540017128,-0.03302571922540665,0.21693941950798035
1782815037906564400,2.590564453125,-0.1442262977361679,-0.08554241806268692,0.28462082147598267
1782815037926646300,2.610646240234375,-0.13180100917816162,-0.17680057883262634,0.29825031757354736
1782815037946728200,2.630728271484375,-0.12857364118099213,-0.2308020293712616,0.26658394932746887
1782815037966810000,2.65081005859375,-0.14424164593219757,-0.2884717881679535,0.22967660427093506
1782815037986892300,2.670892333984375,-0.21004930138587952,-0.27120187878608704,0.1859390288591385
1782815038006974200,2.69097412109375,-0.30738264322280884,-0.1362747848033905,0.08950139582157135
1782815038027056000,2.71105615234375,-0.41314083337783813,0.053022660315036774,-0.08028716593980789
1782815038047138300,2.73113818359375,-0.4949139952659607,0.22511285543441772,-0.2557637393474579
1782815038067221500,2.751221435546875,-0.5373363494873047,0.34208521246910095,-0.3452932834625244
1782815038087302700,2.771302734375,-0.536429226398468,0.4360209107398987,-0.3250673711299896
1782815038107384600,2.791384521484375,-0.5617680549621582,0.3880292475223541,-0.24739284813404083
1782815038127466800,2.811466796875,-0.5924370884895325,0.24695004522800446,-0.21324442327022552
1782815038147548700,2.831548583984375,-0.6205265522003174,0.09530926495790482,-0.2735760807991028
1782815038167630600,2.851630615234375,-0.6094950437545776,-0.06036268547177315,-0.36597439646720886
1782815038187712800,2.871712646484375,-0.6252915859222412,-0.12847231328487396,-0.36764827370643616
1782815038207794700,2.891794677734375,-0.6686747670173645,-0.13619251549243927,-0.2359251081943512
1782815038227876600,2.911876708984375,-0.6844306588172913,-0.10125602036714554,-0.008662763983011246
1782815038247958800,2.931958740234375,-0.5579742193222046,-0.2118327021598816,0.12972624599933624
1782815038268040700,2.952040771484375,-0.4446296989917755,-0.1776438057422638,-0.16369731724262238
1782815038288123600,2.97212353515625,-0.31722843647003174,0.4921964406967163,-1.129446029663086
1782815038308205600,2.99220556640625,-0.34480753540992737,0.2860897481441498,-1.942257046699524
1782815038328287500,3.01228759765625,-0.6571928262710571,-0.374175101518631,-2.7464566230773926
1782815038348369700,3.03236962890625,-0.46456894278526306,-0.5949180126190186,-3.105738878250122
1782815038368451600,3.05245166015625,-0.12166360765695572,-0.28371137380599976,-2.9211978912353516
1782815038388533500,3.072533447265625,-0.01954478584229946,0.13170523941516876,-2.328897476196289
1782815038408615700,3.09261572265625,-0.035012174397706985,0.5981383919715881,-1.4737030267715454
1782815038428697600,3.112697509765625,-0.13055497407913208,0.8830177187919617,-0.5025121569633484
1782815038448779500,3.132779541015625,-0.32769274711608887,0.7795403599739075,0.48879584670066833
1782815038468861700,3.15286181640625,-0.6202967166900635,0.4140731692314148,1.3524895906448364
1782815038488943600,3.172943603515625,-0.8480453491210938,-0.2589413523674011,1.8729504346847534
1782815038509026800,3.19302685546875,-1.0239092111587524,-0.5936328768730164,1.9735543727874756
1782815038529108700,3.213108642578125,-1.1359496116638184,-0.8126653432846069,1.9417979717254639
1782815038549190700,3.233190673828125,-1.2150238752365112,-0.5815137028694153,1.9072142839431763
1782815038569272800,3.25327294921875,-1.232078194618225,-0.2504240572452545,1.8697696924209595
1782815038589354800,3.273354736328125,-1.0713748931884766,-0.2766415476799011,1.567717432975769
1782815038609436700,3.293436767578125,-0.6831789612770081,-0.6002163290977478,0.7254411578178406
1782815038629518800,3.313518798828125,-0.4879755675792694,-0.2509644329547882,0.09826915711164474
1782815038649600800,3.333600830078125,-0.34828901290893555,0.3304590582847595,-0.3336906433105469
1782815038669682700,3.3536826171875,-0.141709104180336,0.8025816679000854,-0.5228718519210815
1782815038689764900,3.373764892578125,0.006640390492975712,1.0172604322433472,-0.5759024620056152
1782815038709846800,3.3938466796875,0.004952809773385525,0.9942618608474731,-0.5303063988685608
1782815038729928700,3.4139287109375,-0.007216996978968382,0.8413322567939758,-0.40922847390174866
1782815038750011600,3.43401171875,0.14335080981254578,0.7826479077339172,-0.28517934679985046
1782815038770093600,3.454093505859375,0.31411948800086975,0.61124587059021,-0.2509787976741791
1782815038790175700,3.47417578125,0.15470270812511444,0.29064831137657166,-0.18049706518650055
1782815038810257700,3.494257568359375,0.023294713348150253,0.2558528482913971,0.018213288858532906
1782815038830339600,3.514339599609375,-0.0228744950145483,0.28466612100601196,0.21772344410419464
1782815038850421800,3.534421875,0.03351828083395958,0.3159661293029785,0.32877227663993835
1782815038870503700,3.554503662109375,0.054829951375722885,0.1720070093870163,0.37286293506622314
1782815038890585600,3.574585693359375,-0.08013904094696045,-0.20803822576999664,0.4729957580566406
1782815038910667800,3.594667724609375,-0.19034327566623688,-0.42030736804008484,0.616661012172699
1782815038930749700,3.614749755859375,-0.25925561785697937,-0.4566331207752228,0.8432993292808533
1782815038950831600,3.63483154296875,-0.3512178361415863,-0.6533671617507935,0.9766688942909241
1782815038970914600,3.65491455078125,-0.5181751251220703,-0.7076969742774963,1.0278958082199097
1782815038990996500,3.67499658203125,-0.6019461750984192,-0.5484229326248169,0.9823075532913208
1782815039011078700,3.69507861328125,-0.4879775643348694,-0.19142718613147736,0.7848613858222961
1782815039031160600,3.71516064453125,-0.3264062702655792,-0.26719990372657776,0.264271080493927
1782815039051242500,3.735242431640625,-0.32596680521965027,-0.7107183337211609,-0.3570874333381653
1782815039071324700,3.75532470703125,-0.1561385989189148,-0.35208696126937866,-0.7174677848815918
1782815039091406300,3.77540625,0.07431718707084656,0.4890967607498169,-0.7837969660758972
1782815039111488300,3.79548828125,0.027132732793688774,1.3159922361373901,-0.6492450833320618
1782815039131570400,3.8155703125,-0.1406882107257843,1.9049484729766846,-0.44395679235458374
1782815039151652400,3.83565234375,-0.3494565188884735,1.6404621601104736,-0.2531113028526306
1782815039171734300,3.855734375,-0.7389965057373047,0.3147836923599243,-0.040805473923683167
1782815039191817200,3.875817138671875,-0.9380213618278503,-0.09567607939243317,0.3012200891971588
1782815039211899400,3.8958994140625,-0.9314055442810059,-0.3739064633846283,0.4385162591934204
1782815039231981300,3.915981201171875,-0.884965181350708,-0.8804815411567688,0.362030565738678
1782815039252063200,3.936063232421875,-0.8699555397033691,-1.5932931900024414,0.09042525291442871
1782815039272145200,3.956145263671875,-0.6658732295036316,-1.8380680084228516,-0.3137103021144867
1782815039292227300,3.976227294921875,-0.687361478805542,-2.2816319465637207,-0.8911269903182983
1782815039312309200,3.996309326171875,-0.9775702357292175,-2.203152894973755,-1.4844014644622803
1782815039332391200,4.01639111328125,-1.2663213014602661,-1.7623287439346313,-1.9195338487625122
1782815039352473300,4.036473388671875,-1.586748480796814,-1.2012901306152344,-2.100054979324341
1782815039372555300,4.05655517578125,-1.6693658828735352,-0.36963188648223877,-1.7763336896896362
1782815039392637200,4.07663720703125,-1.5781869888305664,0.3149517774581909,-1.1210016012191772
1782815039412719400,4.09671923828125,-1.4506064653396606,0.8096427917480469,-0.45899462699890137
1782815039432802300,4.11680224609375,-1.3466155529022217,1.046234130859375,0.009618797339498997
1782815039452884200,4.13688427734375,-1.1597365140914917,1.1392868757247925,0.2533832788467407
1782815039472966100,4.156966064453125,-0.9668774008750916,1.189621090888977,0.26447635889053345
1782815039493048300,4.17704833984375,-0.7991246581077576,1.07041335105896,0.17519418895244598
1782815039513130500,4.197130615234375,-0.6238987445831299,0.7210473418235779,0.07513982802629471
1782815039533212400,4.21721240234375,-0.44215893745422363,0.27186983823776245,-0.020932475104928017
1782815039553294300,4.23729443359375,-0.2548966109752655,-0.05997911095619202,-0.006044317968189716
1782815039573376500,4.25737646484375,-0.1268526166677475,-0.10669475793838501,0.13382580876350403
1782815039593458400,4.27745849609375,-0.10112908482551575,-0.1651545614004135,0.29218700528144836
1782815039613540400,4.297540283203125,-0.10248760879039764,-0.32153254747390747,0.3621741235256195
1782815039633622500,4.31762255859375,-0.17670413851737976,-0.4733498692512512,0.3924082815647125
1782815039653704400,4.337704345703125,-0.29237422347068787,-0.4735000431537628,0.4001144766807556
1782815039673786400,4.357786376953125,-0.4272467792034149,-0.3746407926082611,0.27112066745758057
1782815039693869300,4.377869384765625,-0.4963673949241638,-0.032752588391304016,0.12663137912750244
1782815039713951200,4.397951171875,-0.4604090750217438,0.14948999881744385,-0.043792203068733215
1782815039734033400,4.418033447265625,-0.4629919230937958,-0.13649873435497284,-0.31143951416015625
1782815039754115300,4.438115234375,-0.44751453399658203,-0.6575544476509094,-0.4291965365409851
1782815039774197200,4.458197265625,-0.3850211799144745,-0.8162280321121216,-0.3064698576927185
1782815039794279400,4.478279541015625,-0.2994476854801178,-0.7401476502418518,-0.13690567016601562
1782815039814361300,4.498361328125,-0.22502541542053223,-0.6808982491493225,0.02628924325108528
1782815039834443300,4.518443359375,-0.20066078007221222,-0.5047301650047302,0.15745453536510468
1782815039854525400,4.538525390625,-0.20518095791339874,-0.12325714528560638,0.17706765234470367
1782815039874607400,4.558607421875,-0.18405264616012573,0.08896555751562119,0.07322101294994354
1782815039894689300,4.578689208984375,-0.1861669272184372,0.07812755554914474,-0.08730101585388184
1782815039914771200,4.598771240234375,-0.21933478116989136,-0.026518387719988823,-0.18293562531471252
1782815039934853400,4.618853271484375,-0.22241359949111938,-0.050167638808488846,-0.10876970738172531
1782815039954936300,4.638936279296875,-0.19539526104927063,0.08422551304101944,0.07839522510766983
1782815039975018200,4.659018310546875,-0.13018088042736053,0.35547786951065063,0.28503289818763733
1782815039995100200,4.67910009765625,-0.046256761997938156,0.6168546676635742,0.44402459263801575
1782815040015182300,4.699182373046875,-0.010605002753436565,0.7393351793289185,0.5310027599334717
1782815040035264300,4.71926416015625,-0.028759591281414032,0.693475604057312,0.5355350375175476
1782815040055346200,4.73934619140625,-0.08182261139154434,0.6471067667007446,0.45685291290283203
1782815040075428900,4.759428955078125,-0.13638922572135925,0.7097568511962891,0.2867765426635742
1782815040095511000,4.779510986328125,-0.20720309019088745,0.7530865669250488,0.05091567710042
1782815040115593000,4.799593017578125,-0.29646196961402893,0.7086948752403259,-0.17989547550678253
1782815040135675000,4.8196748046875,-0.33622124791145325,0.6411158442497253,-0.3468034565448761
1782815040155757000,4.839757080078125,-0.33510857820510864,0.6041271686553955,-0.44727814197540283
1782815040175839000,4.8598388671875,-0.35712775588035583,0.5714684724807739,-0.49743378162384033
1782815040195921000,4.8799208984375,-0.3804469406604767,0.4853942096233368,-0.5079226493835449
1782815040216004000,4.900004150390625,-0.3040550649166107,0.22028371691703796,-0.4999222755432129
1782815040236086000,4.9200859375,-0.13642142713069916,-0.09166919440031052,-0.4500422775745392
1782815040256168200,4.940168212890625,-0.030844205990433693,-0.3337254226207733,-0.3708569407463074
1782815040276250000,4.96025,-0.018284758552908897,-0.4487355649471283,-0.2407539039850235
1782815040296332000,4.98033203125,-0.0620996430516243,-0.4653482735157013,-0.06821499764919281
1782815040316414200,5.000414306640625,-0.12063906341791153,-0.3790685534477234,0.10438976436853409
1782815040336496000,5.02049609375,-0.2233942747116089,-0.1474623829126358,0.26568803191185
1782815040356578000,5.040578125,-0.3686595559120178,0.027202516794204712,0.3919907510280609
1782815040376660200,5.06066015625,-0.4550119638442993,-0.061363834887742996,0.40212205052375793
1782815040396742100,5.0807421875,-0.5240417718887329,-0.21932001411914825,0.32521742582321167
1782815040416824000,5.100823974609375,-0.6307003498077393,-0.23890294134616852,0.2508639395236969
1782815040436906000,5.120906005859375,-0.6801421046257019,-0.13529139757156372,0.24864663183689117
1782815040456988200,5.14098828125,-0.6223201155662537,0.027553100138902664,0.3063473105430603
1782815040477071000,5.161071044921875,-0.4808802306652069,0.05558488890528679,0.26151561737060547
1782815040497153000,5.181153076171875,-0.33295515179634094,-0.058365993201732635,0.07163029909133911
1782815040517235000,5.20123486328125,-0.33491405844688416,0.03965906798839569,-0.13726097345352173
1782815040537317000,5.221317138671875,-0.4377569258213043,0.18107886612415314,-0.15849296748638153
1782815040557399000,5.24139892578125,-0.4944377541542053,0.24367359280586243,-0.13244405388832092
1782815040577481000,5.26148095703125,-0.5776512026786804,0.31731152534484863,-0.26575061678886414
1782815040597563100,5.281563232421875,-0.6035672426223755,0.39334920048713684,-0.38625070452690125
1782815040617645000,5.30164501953125,-0.6053290367126465,0.042179640382528305,-0.14207011461257935
1782815040637727000,5.32172705078125,-0.7029997706413269,-0.44864699244499207,0.580914318561554
1782815040659064000,5.34306396484375,-0.822331964969635,-0.25784310698509216,1.3927979469299316
1782815040679146000,5.36314599609375,-0.8222581744194031,-0.4003933072090149,1.551196575164795
1782815040699228200,5.383228271484375,-0.6274752616882324,-0.4607190787792206,1.3322570323944092
1782815040719310000,5.40331005859375,-0.4759839177131653,-0.04143185913562775,0.9742722511291504
1782815040739392000,5.42339208984375,-0.24454687535762787,0.5035509467124939,0.6984758377075195
1782815040759474000,5.443473876953125,-0.08805646747350693,0.5823234915733337,0.4788022041320801
1782815040779556000,5.46355615234375,-0.09337848424911499,0.37445637583732605,0.4128768742084503
1782815040799638000,5.483637939453125,-0.07202089577913284,0.32052385807037354,0.4186301827430725
1782815040819720000,5.503719970703125,-0.010009011253714561,0.4514802098274231,0.3686733543872833
1782815040839803000,5.523802978515625,0.15112122893333435,0.3252946734428406,0.24193161725997925
1782815040859885000,5.543885009765625,0.1624833047389984,0.08669084310531616,0.1877063363790512
1782815040879967000,5.563967041015625,0.16524499654769897,-0.21867454051971436,0.23814670741558075
1782815040900049000,5.584048828125,0.20702321827411652,-0.2646523416042328,0.31947168707847595
1782815040920131000,5.604131103515625,0.267333060503006,-0.440550297498703,0.35257741808891296
1782815040940213000,5.624212890625,0.3221202790737152,-0.6135405898094177,0.40498867630958557
1782815040960295000,5.644294921875,0.2708548605442047,-0.39592841267585754,0.44049859046936035
1782815040980376800,5.664376953125,0.23661163449287415,-0.33919593691825867,0.3317163288593292
1782815041000460000,5.6844599609375,0.18471448123455048,-0.38827407360076904,-0.055089838802814484
1782815041020542000,5.7045419921875,0.098167285323143,-0.47305020689964294,-0.47658059000968933
1782815041040623900,5.724623779296875,0.034375011920928955,-0.25996091961860657,-0.6164656281471252
1782815041060706000,5.7447060546875,0.0902428925037384,0.0738067701458931,-0.4788961708545685
1782815041080787700,5.76478759765625,0.22584785521030426,0.10355226695537567,-0.25065845251083374
1782815041100869600,5.78486962890625,0.33029481768608093,-0.16326580941677094,0.056375883519649506
1782815041120951600,5.80495166015625,0.35846468806266785,-0.3794627785682678,0.38561686873435974
1782815041141033700,5.82503369140625,0.3443993628025055,-0.42345619201660156,0.5570598840713501
1782815041161115600,5.84511572265625,0.2804182469844818,-0.3446092903614044,0.5135492086410522
1782815041181197600,5.865197509765625,0.12696795165538788,-0.2583249509334564,0.36758166551589966
1782815041201279700,5.88527978515625,-0.08416328579187393,-0.11909907311201096,0.2500084638595581
1782815041221361700,5.905361572265625,-0.22843480110168457,0.0017592757940292358,0.12909553945064545
1782815041241443600,5.925443603515625,-0.30346474051475525,0.03428218886256218,0.005833673290908337
1782815041261525500,5.945525390625,-0.3261646032333374,-0.12960559129714966,-0.12205388396978378
1782815041281608700,5.965608642578125,-0.3274550139904022,-0.3362659513950348,-0.18901056051254272
1782815041301690600,5.985690673828125,-0.316441148519516,-0.40693339705467224,-0.18949227035045624
1782815041321772500,6.0057724609375,-0.29620763659477234,-0.24988242983818054,-0.14578434824943542
1782815041341854500,6.0258544921875,-0.2940571904182434,-0.13528424501419067,-0.03981110453605652
1782815041361936600,6.0459365234375,-0.32716721296310425,-0.09371310472488403,0.12927670776844025
1782815041382018600,6.0660185546875,-0.36178627610206604,-0.031209507957100868,0.20851051807403564
1782815041402100500,6.0861005859375,-0.3941914141178131,0.049349553883075714,0.10192924737930298
1782815041422182700,6.1061826171875,-0.3988617956638336,0.11020857095718384,-0.16070060431957245
1782815041442264600,6.1262646484375,-0.39227598905563354,0.1822800487279892,-0.39598777890205383
1782815041462346500,6.146346435546875,-0.41879820823669434,0.1728113442659378,-0.49826961755752563
1782815041482428700,6.1664287109375,-0.47759753465652466,0.1129409670829773,-0.5007734894752502
1782815041502510600,6.186510498046875,-0.534993052482605,0.08496735244989395,-0.4547085762023926
1782815041522592500,6.206592529296875,-0.5278372764587402,0.03333771973848343,-0.39855241775512695
1782815041542675700,6.22667578125,-0.43418166041374207,-0.0063177146948874,-0.3178851902484894
1782815041562757600,6.246757568359375,-0.30801042914390564,-0.029628578573465347,-0.19987334311008453
1782815041582839800,6.26683984375,-0.2129397690296173,-0.07161098718643188,-0.08833746612071991
1782815041602921700,6.286921630859375,-0.20039117336273193,-0.08970507979393005,-0.03140842542052269
1782815041623003600,6.307003662109375,-0.2278847098350525,-0.05301592871546745,-0.048024166375398636
1782815041643085800,6.3270859375,-0.2499428689479828,-0.06419001519680023,-0.1171044409275055
1782815041663167700,6.347167724609375,-0.24443528056144714,-0.09215887635946274,-0.15565575659275055
1782815041683249700,6.367249755859375,-0.22129206359386444,-0.10285675525665283,-0.12888772785663605
1782815041703331600,6.38733154296875,-0.21051588654518127,-0.14373981952667236,-0.0955256000161171
1782815041723413800,6.407413818359375,-0.22998780012130737,-0.17198438942432404,-0.07934507727622986
1782815041743495700,6.42749560546875,-0.2731006145477295,-0.1874689906835556,-0.09805475175380707
1782815041763577600,6.44757763671875,-0.3069818913936615,-0.2478405088186264,-0.0812605544924736
1782815041783659800,6.46765966796875,-0.313128799200058,-0.25613540410995483,-0.027488112449645996
1782815041803742700,6.48774267578125,-0.2896890640258789,-0.21659234166145325,-0.0022679015528410673
1782815041823824600,6.50782470703125,-0.29909181594848633,-0.2068537324666977,0.009202769957482815
1782815041843906600,6.527906494140625,-0.37094610929489136,-0.28462278842926025,0.060136087238788605
1782815041863988700,6.54798876953125,-0.4411810338497162,-0.34868285059928894,0.12169113755226135
1782815041884070700,6.568070556640625,-0.4328855276107788,-0.2485959231853485,0.12551617622375488
1782815041904152600,6.588152587890625,-0.3839872181415558,-0.1107386127114296,0.12654897570610046
1782815041924234800,6.60823486328125,-0.3351919651031494,-0.10636311769485474,0.15068717300891876
1782815041944316700,6.628316650390625,-0.2950952351093292,-0.373509019613266,0.14518943428993225
1782815041964398600,6.648398681640625,-0.24660144746303558,-0.5431178212165833,0.15920282900333405
1782815041984480500,6.66848046875,-0.17990845441818237,-0.49348193407058716,0.21037432551383972
1782815042004562700,6.688562744140625,-0.12552808225154877,-0.3038421869277954,0.26726293563842773
1782815042024644600,6.70864453125,-0.061613257974386215,-0.14786303043365479,0.2345876544713974
1782815042044726500,6.7287265625,-0.005959652364253998,-0.07811713963747025,0.13935346901416779
1782815042064809500,6.7488095703125,-0.010555113665759563,-0.03568544611334801,0.10313226282596588
1782815042084892000,6.768891845703125,-0.045411787927150726,0.07333295792341232,0.12023773789405823
1782815042104973800,6.788973876953125,-0.04822428524494171,0.20861104130744934,0.1047305017709732
1782815042125055700,6.8090556640625,-0.017686525359749794,0.302196204662323,0.0133192865177989
1782815042145137700,6.8291376953125,-0.01717045158147812,0.2974694073200226,-0.09231656789779663
1782815042165219800,6.8492197265625,-0.03574231266975403,0.1968514770269394,-0.1704622060060501
1782815042185301800,6.8693017578125,-0.028842531144618988,0.0562865175306797,-0.14315328001976013
1782815042205383700,6.8893837890625,0.027256667613983154,0.06174873933196068,-0.039695434272289276
1782815042225465900,6.9094658203125,0.08950857818126678,0.11471059918403625,0.05245351791381836
1782815042245547800,6.9295478515625,0.1439649611711502,0.1435312181711197,0.10718981921672821
1782815042265629700,6.949629638671875,0.17277376353740692,0.14203894138336182,0.10333843529224396
1782815042285712000,6.9697119140625,0.16705359518527985,0.10727768391370773,0.09933474659919739
1782815042305793800,6.989793701171875,0.15298694372177124,0.026563655585050583,0.09758652001619339
1782815042325875700,7.009875732421875,0.15869095921516418,0.0047347950749099255,0.11921611428260803
1782815042345957600,7.02995751953125,0.18005412817001343,-0.022340912371873856,0.1193733811378479
1782815042366040800,7.050040771484375,0.19778522849082947,-0.019180046394467354,0.13169501721858978
1782815042386122800,7.070122802734375,0.2244681417942047,0.04208441078662872,0.15786679089069366
1782815042406204700,7.09020458984375,0.2720071077346802,0.0392724946141243,0.1743471473455429
1782815042426286600,7.11028662109375,0.30355456471443176,-0.046485744416713715,0.1799061894416809
1782815042446368800,7.13036865234375,0.29449695348739624,-0.2442072331905365,0.10240016132593155
1782815042466450700,7.15045068359375,0.2374112606048584,-0.475074827671051,-0.030193433165550232
1782815042486532600,7.17053271484375,0.14643830060958862,-0.5728769302368164,-0.15294235944747925
1782815042506614800,7.19061474609375,0.10886584222316742,-0.3659663498401642,-0.2920948565006256
1782815042526696700,7.21069677734375,0.11932247877120972,0.055870380252599716,-0.3834681808948517
1782815042546778600,7.230778564453125,0.15427616238594055,0.38806647062301636,-0.32602882385253906
1782815042566860800,7.25086083984375,0.21089637279510498,0.4844070076942444,-0.15686635673046112
1782815042586942700,7.270942626953125,0.25824540853500366,0.4260401129722595,-0.004591639153659344
1782815042607024600,7.291024658203125,0.26727184653282166,0.22483763098716736,0.062092699110507965
1782815042627106600,7.3111064453125,0.2549877166748047,0.031148942187428474,0.057605959475040436
1782815042647188700,7.331188720703125,0.22494511306285858,-0.050440192222595215,0.017155740410089493
1782815042667270700,7.351270751953125,0.19410830736160278,-0.05434933304786682,-0.042712464928627014
1782815042687353600,7.371353515625,0.17989802360534668,-0.022349780425429344,-0.09283137321472168
1782815042707435500,7.391435546875,0.17558637261390686,-0.010388458147644997,-0.13477855920791626
1782815042727517700,7.411517578125,0.18715393543243408,-0.041832514107227325,-0.14019061625003815
1782815042747599600,7.431599609375,0.22527286410331726,0.017833972349762917,-0.09505432099103928
1782815042767681500,7.451681640625,0.28150439262390137,0.09565260261297226,-0.056926481425762177
1782815042787763700,7.471763671875,0.34495702385902405,0.13625898957252502,-0.05856123939156532
1782815042807845600,7.491845703125,0.39055585861206055,0.12667877972126007,-0.09979785978794098
1782815042827927600,7.511927490234375,0.40542787313461304,0.09151379019021988,-0.14978419244289398
1782815042848009500,7.532009521484375,0.3950299620628357,0.07248508185148239,-0.16395461559295654
1782815042868091600,7.552091552734375,0.38011130690574646,0.08078520745038986,-0.17739570140838623
1782815042888173600,7.572173583984375,0.3678765296936035,0.1198289692401886,-0.19980835914611816
1782815042908255500,7.59225537109375,0.3674411475658417,0.16488881409168243,-0.17112258076667786
1782815042928337700,7.612337646484375,0.3747924268245697,0.1805053949356079,-0.09228826314210892
1782815042948419600,7.632419677734375,0.3618238866329193,0.14418286085128784,0.006230081431567669
1782815042968501500,7.65250146484375,0.3210395872592926,0.04636719450354576,0.05974868685007095
1782815042988584700,7.672584716796875,0.2665359377861023,-0.060384444892406464,0.027079014107584953
1782815043008667000,7.6926669921875,0.2260509580373764,-0.036076053977012634,-0.022164350375533104
1782815043028748800,7.712748779296875,0.17599570751190186,0.04521983116865158,-0.041101884096860886
1782815043048830700,7.732830810546875,0.10083694756031036,0.0895826518535614,-0.014262963086366653
1782815043068912600,7.75291259765625,0.044757165014743805,0.14533555507659912,0.011368876323103905
1782815043088994600,7.77299462890625,-0.03282749652862549,-0.07047721743583679,-0.05331813916563988
1782815043109076500,7.793076416015625,-0.13364627957344055,-0.13310125470161438,-0.08034905046224594
1782815043129158400,7.813158447265625,-0.15370063483715057,0.23097626864910126,-0.004960043355822563
1782815043149240600,7.833240478515625,-0.15072813630104065,0.5273491144180298,0.061012547463178635
1782815043169322500,7.853322509765625,-0.17171558737754822,0.5472175478935242,0.05826340243220329
1782815043189404400,7.873404296875,-0.1967347413301468,0.40828442573547363,0.03516877070069313
1782815043209486600,7.893486572265625,-0.22549176216125488,0.13114352524280548,0.025335926562547684
1782815043229568500,7.913568603515625,-0.27934879064559937,-0.11028766632080078,0.05272912606596947
1782815043249650400,7.933650390625,-0.330051064491272,-0.12876996397972107,0.08165092021226883
1782815043269732400,7.953732421875,-0.38936659693717957,-0.035745326429605484,0.06208145618438721
1782815043289814500,7.973814453125,-0.43946996331214905,0.11669184267520905,-0.014133976772427559
1782815043309897500,7.9938974609375,-0.48330196738243103,0.17959004640579224,-0.0661562904715538
1782815043329979400,8.0139794921875,-0.554388165473938,0.10006976127624512,-0.03187403082847595
1782815043350061300,8.034061279296875,-0.6126667261123657,-0.04344860464334488,0.04789561405777931
1782815043370143500,8.0541435546875,-0.6332229375839233,-0.07351332902908325,0.10772951692342758
1782815043390225400,8.074225341796875,-0.6475003957748413,-0.033946435898542404,0.1224759966135025
1782815043410307300,8.094307373046876,-0.6924733519554138,-0.013764167204499245,0.1281086802482605
1782815043430389500,8.114389404296874,-0.7516672611236572,-0.06195680797100067,0.14281712472438812
1782815043450471400,8.134471435546875,-0.8042858242988586,-0.09790536761283875,0.16165977716445923
1782815043470553300,8.15455322265625,-0.8433037400245667,-0.10864578932523727,0.16980348527431488
1782815043490635500,8.174635498046875,-0.8918299674987793,-0.11103031039237976,0.1388288140296936
1782815043510717400,8.194717529296875,-0.9479095935821533,-0.0931401401758194,0.06402859091758728
1782815043530799400,8.21479931640625,-1.0094677209854126,-0.1014251559972763,-0.003839678131043911
1782815043550881300,8.23488134765625,-1.0387111902236938,-0.09835696965456009,0.011799235828220844
1782815043570963500,8.25496337890625,-1.0249512195587158,-0.13661730289459229,0.08355621993541718
1782815043591045400,8.27504541015625,-1.010395884513855,-0.22588014602661133,0.16292551159858704
1782815043611127300,8.295127197265625,-1.030394196510315,-0.30241674184799194,0.23069554567337036
1782815043631210200,8.315210205078126,-1.0863951444625854,-0.3497743606567383,0.2512820363044739
1782815043651292400,8.33529248046875,-1.1592484712600708,-0.4444125294685364,0.18071851134300232
1782815043671374300,8.355374267578124,-1.1979115009307861,-0.5056388974189758,0.10583797842264175
1782815043691456300,8.375456298828125,-1.2072277069091797,-0.4734645485877991,0.12207045406103134
1782815043711538400,8.395538330078125,-1.241236925125122,-0.37246888875961304,0.19164279103279114
1782815043731620400,8.415620361328125,-1.2791424989700317,-0.1876579374074936,0.21876604855060577
1782815043751702300,8.435702392578126,-1.3041789531707764,-0.08251683413982391,0.16986487805843353
1782815043771784200,8.4557841796875,-1.321021556854248,-0.047426220029592514,0.14857007563114166
1782815043791866400,8.475866455078124,-1.3208839893341064,-0.08156976848840714,0.16962185502052307
1782815043811948300,8.4959482421875,-1.3024388551712036,-0.08509096503257751,0.21991901099681854
1782815043832030200,8.5160302734375,-1.2718544006347656,-0.1388881802558899,0.2283027470111847
1782815043852112400,8.5361123046875,-1.2706899642944336,-0.17964795231819153,0.19656413793563843
1782815043872194300,8.5561943359375,-1.2913298606872559,-0.2042372226715088,0.11741569638252258
1782815043892276200,8.576276123046876,-1.3132610321044922,-0.2739819288253784,0.024606158956885338
1782815043912358400,8.5963583984375,-1.3346377611160278,-0.28684279322624207,0.02418341301381588
1782815043932440300,8.6164404296875,-1.3786113262176514,-0.2856843173503876,0.08881779760122299
1782815043952522200,8.636522216796875,-1.4376109838485718,-0.2553149163722992,0.11814592033624649
1782815043972605400,8.65660546875,-1.5098555088043213,-0.24482093751430511,0.08151140064001083
1782815043992687400,8.676687255859376,-1.5915483236312866,-0.25413981080055237,0.0036129048094153404
1782815044012769500,8.69676953125,-1.7007437944412231,-0.31902503967285156,-0.07303307950496674
1782815044032851500,8.7168515625,-1.82204270362854,-0.37545132637023926,-0.10692053288221359
1782815044052933400,8.736933349609375,-1.941450595855713,-0.3781498074531555,-0.09630175679922104
1782815044073015600,8.757015625,-2.0437660217285156,-0.35328924655914307,-0.08931847661733627
1782815044093097700,8.77709765625,-2.1212127208709717,-0.3103642463684082,-0.12657825648784637
1782815044113179600,8.7971796875,-2.189046621322632,-0.2751355767250061,-0.17922286689281464
1782815044133261600,8.817261474609374,-2.2543392181396484,-0.24058449268341064,-0.18511445820331573
1782815044153343700,8.83734375,-2.3085646629333496,-0.24301546812057495,-0.1551995575428009
1782815044173425700,8.85742578125,-2.335114002227783,-0.29071539640426636,-0.13195209205150604
1782815044193507600,8.877507568359375,-2.372584581375122,-0.39663100242614746,-0.1338927149772644
1782815044213589800,8.89758984375,-2.4257125854492188,-0.492933064699173,-0.11295600980520248
1782815044233671700,8.917671630859376,-2.4609506130218506,-0.5384594202041626,-0.07916297018527985
1782815044253753600,8.937753662109374,-2.485426902770996,-0.476667582988739,-0.05783725902438164
1782815044273835800,8.957835693359375,-2.5301406383514404,-0.4081038236618042,-0.07757975161075592
1782815044293917700,8.977917724609375,-2.569563627243042,-0.3681924641132355,-0.08653382211923599
1782815044313999600,8.99799951171875,-2.5704827308654785,-0.3604108691215515,-0.07394210994243622
1782815044334082600,9.01808251953125,-2.5527584552764893,-0.4024461507797241,-0.06263519823551178
1782815044354164500,9.03816455078125,-2.5384626388549805,-0.38892093300819397,-0.046304840594530106
1782815044374246700,9.05824658203125,-2.5369083881378174,-0.3446957767009735,-0.0405728705227375
1782815044394328600,9.07832861328125,-2.490933895111084,-0.3087467551231384,-0.013399115763604641
1782815044414410500,9.098410400390625,-2.3887860774993896,-0.26181522011756897,0.032554227858781815
1782815044434492700,9.11849267578125,-2.288820505142212,-0.2620414197444916,0.09319305419921875
1782815044454574600,9.13857470703125,-2.2162294387817383,-0.35103997588157654,0.14130878448486328
1782815044474656500,9.158656494140626,-2.1376793384552,-0.35465148091316223,0.19081927835941315
1782815044494738700,9.17873876953125,-2.0592477321624756,-0.2785145938396454,0.2304879128932953
1782815044514820600,9.198820556640625,-2.0054402351379395,-0.27924343943595886,0.2602313756942749
1782815044534902500,9.218902587890625,-1.9641237258911133,-0.2962154150009155,0.24343228340148926
1782815044554984400,9.238984375,-1.9015485048294067,-0.23081092536449432,0.18114063143730164
1782815044575067000,9.25906689453125,-1.8490961790084839,-0.19122323393821716,0.1014876738190651
1782815044595148800,9.279148681640624,-1.796892762184143,-0.20946964621543884,0.03131997585296631
1782815044615230700,9.299230712890624,-1.714741587638855,-0.22432661056518555,0.04674763232469559
1782815044635313000,9.31931298828125,-1.5937461853027344,-0.13070166110992432,0.1056998074054718
1782815044656021500,9.340021484375,-1.4777942895889282,-0.054492611438035965,0.13830119371414185
1782815044676103700,9.360103759765625,-1.361405611038208,0.018531683832406998,0.14368033409118652
1782815044696185600,9.380185546875,-1.2392677068710327,0.08721426129341125,0.16925077140331268
1782815044716267500,9.400267578125,-1.1259726285934448,0.07967778295278549,0.18622146546840668
1782815044736349700,9.420349609375,-1.0206438302993774,0.013740694150328636,0.19484926760196686
1782815044756431600,9.440431640625,-0.9250668287277222,-0.047166600823402405,0.17939507961273193
1782815044776513500,9.460513427734375,-0.8681753277778625,-0.12334681302309036,0.16148453950881958
1782815044796595500,9.480595458984375,-0.8253319263458252,-0.16347303986549377,0.15952490270137787
1782815044816677600,9.500677734375,-0.7706910967826843,-0.1787773221731186,0.16741959750652313
1782815044836760800,9.5207607421875,-0.7060576677322388,-0.1491641402244568,0.14614634215831757
1782815044856842800,9.5408427734375,-0.6474593281745911,-0.11747831106185913,0.1122550442814827
1782815044876924700,9.560924560546875,-0.5966639518737793,-0.06792137026786804,0.10394498705863953
1782815044897006800,9.5810068359375,-0.5653374791145325,-0.0632469579577446,0.09201282262802124
1782815044917088800,9.6010888671875,-0.5417773127555847,-0.08488118648529053,0.03775424510240555
1782815044937170700,9.621170654296876,-0.506782591342926,-0.08102419972419739,-0.003205525455996394
1782815044956625700,9.640625732421874,-0.4654511511325836,-0.07007978856563568,0.023478863760828972
1782815044976707600,9.66070751953125,-0.41489270329475403,-0.05974322557449341,0.10834291577339172
1782815044996789800,9.680789794921875,-0.37780916690826416,-0.060425564646720886,0.17191939055919647
1782815045016871700,9.70087158203125,-0.34521055221557617,-0.05233658850193024,0.16813570261001587
1782815045036953600,9.72095361328125,-0.3312281370162964,-0.04994302988052368,0.11181829869747162
1782815045057036500,9.74103662109375,-0.3354990482330322,-0.058107588440179825,0.054168734699487686
1782815045077118700,9.76111865234375,-0.3503825068473816,-0.07265837490558624,0.0028572219889611006
1782815045097201000,9.781200927734375,-0.3503939211368561,-0.09794870018959045,-0.004402336198836565
1782815045117282800,9.80128271484375,-0.32871657609939575,-0.09996479004621506,0.0507475808262825
1782815045137365000,9.821364990234375,-0.3053232729434967,-0.10395318269729614,0.09229998290538788
1782815045157447000,9.841447021484376,-0.2818535268306732,-0.09207213670015335,0.06454949826002121
1782815045177528800,9.86152880859375,-0.2718462347984314,-0.1034548357129097,0.024976693093776703
1782815045197610800,9.88161083984375,-0.2516380548477173,-0.0837509036064148,0.060027122497558594
1782815045217693000,9.90169287109375,-0.22565549612045288,-0.07426852732896805,0.11983843892812729
1782815045237774800,9.92177490234375,-0.20307065546512604,-0.05880046263337135,0.13604921102523804
1782815045257856800,9.941856689453125,-0.20769506692886353,-0.06605274975299835,0.07935789972543716
1782815045277939000,9.96193896484375,-0.2252516895532608,-0.1105634942650795,0.028251569718122482
1782815045298020900,9.982020751953126,-0.21417084336280823,-0.06249963492155075,0.014138058759272099
1782815045318102800,10.002102783203124,-0.1990065723657608,-0.045108355581760406,0.004923015832901001
1782815045338185000,10.02218505859375,-0.1875670850276947,-0.026021936908364296,-0.0023947907611727715
1782815045358267000,10.042266845703125,-0.16537724435329437,-0.00032345857471227646,-0.003387091914191842
1782815045378350000,10.06235009765625,-0.1538495421409607,-0.012540977448225021,-0.001958237262442708
1782815045398432000,10.082431884765626,-0.13724015653133392,-0.004469201434403658,0.01140383817255497
1782815045418514000,10.102513916015624,-0.1043347716331482,-0.014937023632228374,-0.0014142561703920364
1782815045438596000,10.12259619140625,-0.05718429014086723,-0.01814795657992363,-0.013967734761536121
1782815045458678000,10.142677978515625,-0.039045967161655426,-0.040180135518312454,0.00021234829910099506
1782815045478760000,10.162760009765625,-0.05612759292125702,-0.09454058110713959,0.016168644651770592
1782815045498842000,10.182842041015626,-0.06337123364210129,-0.10706516355276108,0.011465201154351234
1782815045518924000,10.202924072265626,-0.022770609706640244,0.009135709144175053,0.014497147873044014
1782815045539006000,10.223005859375,0.0012190832057967782,0.059581153094768524,0.02611670456826687
1782815045559087900,10.243087890625,0.025399696081876755,0.23404939472675323,0.028122426941990852
1782815045579170000,10.263170166015625,0.039201728999614716,0.40819212794303894,0.023272749036550522
1782815045599252000,10.283251953125,0.03590521588921547,0.20475192368030548,-0.020062141120433807
1782815045619334000,10.303333984375,0.025475064292550087,-0.02296348474919796,-0.04576937109231949
1782815045639416000,10.323416015625,0.0012590696569532156,-0.14240474998950958,-0.11461380869150162
1782815045659498000,10.343498046875,-0.06648468971252441,-0.18189044296741486,-0.16767385601997375
