time,seconds_elapsed,z,y,x
1782814976963126500,0.06712646484375,-0.6417348922491073,-0.09356091175079345,-0.2867831710193306
1782814976983208400,0.08720849609375,-0.5080623348623514,0.11092194252684712,-0.170697836113628
1782814977003291400,0.10729150390625,-0.5269821393877268,0.22020824667587874,-0.1527540004809387
1782814977023372500,0.12737255859375,-0.609071809053421,0.3329980289012193,-0.24011302538430318
1782814977043455500,0.14745556640625,-0.5863754085987806,0.3975302684359252,-0.29830232563307507
1782814977063537700,0.16753759765625,-0.4397989459753036,0.4318837889365852,-0.320015688133426
1782814977083620600,0.18762060546875,-0.3107008568972349,0.5491534930549562,-0.2735089528991841
1782814977103702500,0.20770263671875,-0.3241588888853788,0.7205306349359453,-0.28022792242327704
1782814977123785500,0.227785400390625,-0.31133097149431704,0.7671430407680571,-0.35998818102702496
1782814977143867400,0.247867431640625,-0.2561708098083734,0.7555261066019534,-0.42989013090133665
1782814977163950600,0.26795068359375,-0.10722937161922454,0.8303899166673422,-0.421637339406088
1782814977184032800,0.28803271484375,0.10866554190218448,0.8502940560549497,-0.3827875303994864
1782814977204115700,0.30811572265625,0.32261399753093717,0.8621260942764579,-0.4169385140653699
1782814977224197600,0.32819775390625,0.5060176772922277,0.8842468868002294,-0.4171380186928436
1782814977244280600,0.348280517578125,0.7004109531015157,0.9314289092138409,-0.3629538989648223
1782814977264362500,0.368362548828125,0.8138613911926746,0.94033132372424,-0.3449057261748239
1782814977284445400,0.388445556640625,0.7438672329902648,0.9485574464082718,-0.2974347672846168
1782814977304527600,0.408527587890625,0.615821283313632,0.9325903542086481,-0.2606790262141265
1782814977324610600,0.428610595703125,0.5327607227891683,0.769020086686313,-0.18752466868143527
1782814977344692500,0.4486923828125,0.45077275993227955,0.6441155037753283,-0.09667928123334422
1782814977364775700,0.468775634765625,0.39026188486814495,0.5634587895222007,0.03789574141846969
1782814977384857600,0.488857666015625,0.22712825519740582,0.509490760230273,0.14599122834773734
1782814977404940500,0.5089404296875,-0.030353052687644957,0.35804932191893457,0.10597173624094575
1782814977425022700,0.529022705078125,-0.30150866566002366,0.24388562099188565,-0.0468304233638104
1782814977445105700,0.549105712890625,-0.5544032302767038,0.18350626335293055,-0.10741703967843204
1782814977465187600,0.5691875,-0.8724287309736013,0.1709751369513571,-0.08402216296507976
1782814977485270500,0.5892705078125,-1.1996814942210912,0.2753106868252158,0.027253049978846682
1782814977505352400,0.6093525390625,-1.14378951112926,0.3405750400267541,0.16807068421412258
1782814977525435600,0.629435546875,-0.6301812325775623,0.24945450716540216,0.3533050134686753
1782814977545517600,0.649517578125,0.09232873960733413,0.05762494436427951,0.4895311643283814
1782814977565600500,0.6696005859375,0.5298270074248314,-0.11607231102734804,0.5190859793104231
1782814977585682700,0.6896826171875,0.6933025824010371,-0.24059052496924996,0.4694680349867791
1782814977605765600,0.709765625,0.8622580500930547,-0.2978241319283843,0.3571831335436553
1782814977625847600,0.72984765625,0.9278975202172994,-0.36063188575804234,0.35841800910085436
1782814977645930500,0.749930419921875,0.6722410896718501,-0.4262532357037067,0.34239041888564825
1782814977666012400,0.770012451171875,0.45666357153654097,-0.4243739978283643,0.1792104658551514
1782814977686095400,0.790095458984375,0.4167348812520504,-0.557075372095406,0.10704522895766422
1782814977706177500,0.810177490234375,0.27751404208838937,-0.6266526200599968,0.023134362613642587
1782814977726260700,0.8302607421875,0.07824468467533588,-0.7221860009275376,-0.15937864278508349
1782814977746342700,0.8503427734375,-0.16381459767222403,-0.7602161641143262,-0.23678583545666188
1782814977766425600,0.870425537109375,-0.4439595727860927,-0.68216334874928,-0.1834023097881116
1782814977786507500,0.890507568359375,-0.533005637460947,-0.6325234117895364,-0.10445891139204613
1782814977806590500,0.910590576171875,-0.3992266970902681,-0.678909753780812,-0.031761777841253204
1782814977826672600,0.930672607421875,-0.11322189003229141,-0.793919842404127,-0.03299874945741612
1782814977846755600,0.950755615234375,0.1637900477528572,-0.946563349981606,0.005197988768201321
1782814977866837500,0.97083740234375,0.2482902856916189,-1.0170702800117433,-0.0021476087712333537
1782814977886920700,0.990920654296875,0.08011398567855357,-0.9676949853375554,-0.06768889520103112
1782814977907002600,1.011002685546875,-0.26846096706092354,-0.8743918477401137,-0.013883436059672384
1782814977927085600,1.03108544921875,-0.20941373480856418,-0.7138876897901296,-0.052549559062439945
1782814977947167700,1.051167724609375,-0.5058282921999693,-0.6251254104927182,0.3923758082821965
1782814977967250700,1.071250732421875,-1.030533134305477,-0.21912848861515521,0.4400764842750504
1782814977987332600,1.09133251953125,-1.2597037089854477,0.019022826508432625,0.4445550179285928
1782814978007415600,1.11141552734375,-1.1144336527854204,0.18574688188657162,0.5751148135896772
1782814978027499300,1.131499267578125,-0.8084329364031553,0.20867387622669337,0.5758816332437098
1782814978047582200,1.151582275390625,-0.5895043542742728,0.26267332357019185,0.5879685595417395
1782814978067664100,1.1716640625,-0.35342473085820675,0.46659065291956064,0.6028032501779497
1782814978087747000,1.1917470703125,-0.20432547175884247,0.6897665172293782,0.552688462248072
1782814978107829000,1.2118291015625,-0.038521746096014976,0.7668015338540076,0.45268728831671173
1782814978127912000,1.231911865234375,0.17454057434797285,0.8336914424307644,0.364690111640282
1782814978147994000,1.251994140625,0.1660036321491003,0.8549534261681139,0.26642947949962686
1782814978168077300,1.272077392578125,0.03648351826667785,0.8751441274121403,0.03135464921193197
1782814978188159200,1.2921591796875,-0.26961013709604736,0.9928779419109225,-0.18557905103899539
1782814978208242200,1.3122421875,-0.33390111522078514,1.0490651085570455,-0.36216771702319384
1782814978228324000,1.332323974609375,-0.08613163853287696,1.0776143266931175,-0.4872560955358669
1782814978248407000,1.352406982421875,0.3153057203441858,1.0599031673051416,-0.4108438869846984
1782814978268489200,1.3724892578125,0.5268506219625473,0.9494625785544514,-0.46749344697818157
1782814978288572200,1.392572265625,0.7305804659157991,0.8354650279745459,-0.5769009298214689
1782814978308654000,1.412654052734375,1.002549148836732,0.7020585741780698,-0.6351295756999403
1782814978328737000,1.432737060546875,1.1038269185751677,0.5626728998415171,-0.5908485719574615
1782814978348819000,1.45281884765625,0.9454308388203382,0.5864471586607396,-0.39080771871525793
1782814978368902100,1.472902099609375,0.44505204419791694,0.6351236574158072,-0.31559432802721854
1782814978388984300,1.492984375,-0.33825580329895016,0.7658731669627129,-0.2932587602416053
1782814978409066200,1.513066162109375,-0.9450754495114088,0.88447441194579,-0.022922642391989937
1782814978429149200,1.533149169921875,-1.1919780802369118,1.0567455800570547,0.28936383516229686
1782814978449231000,1.553231201171875,-0.8300497249275446,1.0122155334569514,0.5956787685928866
1782814978469314000,1.57331396484375,-0.14557225401699542,0.6835495424106717,0.6298210209630429
1782814978489396000,1.59339599609375,0.3346668388962745,0.4034767557501793,0.5467318919312208
1782814978509479200,1.613479248046875,0.6004980419754982,0.17682503202334046,0.48611353790462014
1782814978529561000,1.63356103515625,0.22874270465672014,0.09761880883947015,0.36512116000130773
1782814978549644300,1.653644287109375,-0.29257717118561266,0.18366043100133536,0.06642109462176449
1782814978569726200,1.673726318359375,-0.44541444776952266,0.16326251674741504,0.10705791490930132
1782814978589809200,1.69380908203125,-0.37436055138111113,0.18816168794333935,0.28044918222483245
1782814978609891000,1.71389111328125,-0.10790566344559192,0.2515817284524441,0.47540816562548277
1782814978629974000,1.73397412109375,0.21949206123054027,0.24953619409948585,0.6222839034564793
1782814978650056200,1.75405615234375,0.2669815421581268,0.17462562228292225,0.5450612553052604
1782814978670139100,1.77413916015625,0.06028700318038463,0.08394844927489757,0.36668307555578644
1782814978690221000,1.794220947265625,-0.06529694029688835,0.0904234905079007,0.23741021443270147
1782814978710304000,1.814303955078125,0.12065993107855319,0.07020502447411417,0.34841084821894763
1782814978730386000,1.834385986328125,0.3333271147251129,0.015078472796827554,0.40348815392702814
1782814978750469000,1.85446923828125,0.345578109011054,-0.13659268261715768,0.3640488180620596
1782814978770551300,1.87455126953125,0.2693915259093046,-0.1805814619474113,0.3629906507786363
1782814978790633200,1.89463330078125,0.2152244669139385,-0.12862784121781587,0.46216819683481003
1782814978810716200,1.914716064453125,0.105423198980093,-0.041648353683948515,0.5233003090698272
1782814978830798000,1.934798095703125,0.07552373527884483,0.017910335221886634,0.4783063712850213
1782814978850881000,1.954881103515625,0.12738602446317673,-0.07728563038483262,0.4818143794059753
1782814978870963200,1.974963134765625,0.19964052881300448,-0.10619695983156562,0.6068170523965731
1782814978891046100,1.995046142578125,0.2834247274369001,0.02159238473549485,0.6025951603852212
1782814978911128000,2.015128173828125,-0.8831383410364388,0.1306682610042393,0.5273566352559254
1782814978931211300,2.035211181640625,-1.8590853141516446,0.43639644405543804,0.08527995360698551
1782814978951293200,2.055293212890625,-2.2440315569549796,0.5945217440448701,-0.25879231741838155
1782814978971376000,2.075376220703125,-1.7007172914475202,0.443676518061012,-0.3154217479392886
1782814978991458300,2.095458251953125,-0.56399640353024,0.16436770151033997,-0.14798318761624396
1782814979011541200,2.115541259765625,0.2783013930737972,0.007486410232633352,-0.09630180795677006
1782814979031622400,2.135622314453125,0.6657961513161659,-0.1517559110879898,-0.2302879796036519
1782814979051705300,2.155705322265625,0.5677145472705364,-0.17961597791612147,-0.4822138270523399
1782814979071787300,2.175787353515625,0.22148352730870247,-0.09252981513738631,-0.6726752433054148
1782814979091870500,2.195870361328125,-0.14598025029599665,0.05851502507179975,-0.6543130726628005
1782814979111952600,2.21595263671875,-0.22500001099705694,0.20661855113208294,-0.5199571361217648
1782814979132034600,2.23603466796875,0.04018587991595268,0.2845760894291103,-0.17060126213766633
1782814979152117500,2.256117431640625,0.23776596906781194,0.3719774556368589,0.10144059561733156
1782814979172199400,2.276199462890625,0.057151627764105796,0.5151686597362161,0.17854544434146954
1782814979192282400,2.296282470703125,-0.28611119004189967,0.6399712435774505,0.16783024478806183
1782814979212364500,2.316364501953125,-0.47404842157959937,0.6732124189220369,0.09623863392691127
1782814979232447500,2.336447509765625,-0.45803895154297347,0.6179872291758656,-0.003651374672487145
1782814979252529400,2.356529296875,-0.3676180913835764,0.5824817621611058,-0.1615308889155276
1782814979272612400,2.3766123046875,-0.29003391644358634,0.5839427746243775,-0.22679511425290255
1782814979292694500,2.396694580078125,-0.07428922504782676,0.6065881755441427,-0.23395596405928953
1782814979312777500,2.416777587890625,0.15706336984634398,0.5877085568986833,-0.19256969537762925
1782814979332859400,2.436859375,0.22955635912716388,0.660693275219202,-0.1812964418163523
1782814979352942600,2.456942626953125,0.32459786482453346,0.6413844713762402,0.025478341057058422
1782814979373024500,2.4770244140625,0.33339959543943404,0.6172755737751722,0.14373568623960017
1782814979393107500,2.497107421875,0.34454759691953657,0.6266521816685795,0.22189331368599086
1782814979413189400,2.517189453125,0.32258535595834253,0.6118959265634417,0.3009193762636743
1782814979433271300,2.537271240234375,0.16739011807143686,0.5515501789331436,0.18101444653719662
1782814979453354200,2.557354248046875,0.09137304631769656,0.4147137506879866,0.05744988005831837
1782814979473436400,2.5774365234375,0.1194090542346239,0.2741930809721351,-0.0071647405302152035
1782814979493519600,2.59751953125,0.22055179941654204,0.10705138470381498,-0.09709442877233959
1782814979513601500,2.6176015625,0.17695172714293003,-0.09738719204068183,-0.17370938422083854
1782814979533684500,2.6376845703125,-0.10138006106913089,-0.21793241069838404,-0.29520477974284437
1782814979553766400,2.657766357421875,-0.4739905539125204,-0.21284020212590693,-0.4218881723619997
1782814979573849300,2.677849365234375,-0.7941343619376421,-0.06534560174420476,-0.41273211188409475
1782814979593931500,2.697931640625,-0.9245955560624599,0.0145481653124094,-0.33915673419404774
1782814979614014500,2.718014404296875,-0.9441559965789318,0.0866151842661202,-0.3662194400994107
1782814979634096400,2.738096435546875,-0.6721516578227281,0.2158466904655099,-0.23405927830329162
1782814979654179300,2.758179443359375,-0.20509353352189064,0.308346987247467,-0.08078791201789863
1782814979674261200,2.77826123046875,0.12479717701375484,0.3698880821421742,-0.04356074491022154
1782814979694344400,2.798344482421875,0.3653945701152086,0.24183760242089627,-0.10333587131202221
1782814979714426600,2.818426513671875,0.5512924047797918,0.11616145061552524,-0.15801899007074535
1782814979734508500,2.838508544921875,0.6738187142521143,0.049858255885541436,-0.14590798877738415
1782814979754591500,2.858591552734375,0.6943330944925546,0.0006672317370772362,-0.06744508564095013
1782814979774673400,2.87867333984375,0.5053671044290066,0.024386253237724302,-0.028628987107705322
1782814979794756400,2.89875634765625,0.3389180665999651,0.04220613369718194,0.016511939666047692
1782814979814838500,2.918838623046875,0.2867155856758356,0.06661386811435223,0.1778770983595401
1782814979834921500,2.93892138671875,0.2427741526186466,-0.006571195083856582,0.31858547266721726
1782814979855003400,2.95900341796875,0.10074585481882095,0.011225889021903275,0.37849874716438353
1782814979875086600,2.979086669921875,-0.0738823978126049,-0.0061836570709943766,0.3877391614574939
1782814979895168500,2.99916845703125,-0.25248364572823045,0.040717940966039895,0.4215775355102494
1782814979915251500,3.01925146484375,-0.40474867538213727,0.1156805352307856,0.46097884091977026
1782814979935333400,3.03933349609375,-0.3559007655829191,0.2183161493189633,0.5020608294252306
1782814979955416300,3.059416259765625,-0.14600129308402537,0.2597390236839652,0.5925170531589538
1782814979975498500,3.07949853515625,-0.039454058510065074,0.20090937970504164,0.611193550447747
1782814979995581400,3.09958154296875,0.02155073755085468,0.18687822400406,0.4792939210176468
1782814980015663000,3.1196630859375,-0.12945581647455692,0.26001550253778694,0.4869092913921922
1782814980035745000,3.1397451171875,-0.21244155819714067,0.46398660790100693,0.4444012521389872
1782814980055828200,3.159828125,-0.0076268416166305536,0.44346623631119725,0.39121545926593243
1782814980075910400,3.179910400390625,0.26260873390138145,0.3471557335913181,0.26932180340765044
1782814980095993300,3.199993408203125,0.251296481770277,0.2504384036362171,0.1319100229599513
1782814980116075300,3.2200751953125,0.21069208418130875,0.2797811102375388,-0.020025610342808066
1782814980136158200,3.240158203125,0.23992753101587294,0.3090669720850885,-0.0093123378850054
1782814980156240100,3.260240234375,0.2387619943678379,0.2841488039277494,-0.03662276234058663
1782814980176323000,3.280322998046875,0.15301263315081595,0.2413146014600992,-0.1586300163748674
1782814980196405200,3.3004052734375,0.04547112684249878,0.22162191286608576,-0.2923556921883486
1782814980216488400,3.320488525390625,0.051348494443297386,0.1736712441675365,-0.2807158520706929
1782814980236570400,3.3405703125,0.16435411137640477,0.14988134938776493,-0.1855564556146972
1782814980256652300,3.36065234375,0.12573299655914305,0.20089272083118556,-0.10534170384225434
1782814980276735200,3.3807353515625,-0.11574877816140651,0.22091727172806858,-0.13022975998912006
1782814980296817400,3.4008173828125,-0.46963995748758314,0.20695348217487333,-0.22795871467217801
1782814980316900400,3.420900390625,-0.5710469065636397,0.19481924613639712,-0.19663228690773246
1782814980336982300,3.440982177734375,-0.5168652345210314,0.2147550958365202,-0.0921525975891389
1782814980357065200,3.461065185546875,-0.4470242210537195,0.22170476884394882,-0.051041547385975716
1782814980377147100,3.481147216796875,-0.3940986865520477,0.20987916036322712,-0.07010640467153861
1782814980397230000,3.50122998046875,-0.31395255216956136,0.15310820247977971,-0.1007170031836722
1782814980417312300,3.521312255859375,-0.2560714410871267,0.12404139021039008,-0.16031864531524478
1782814980437395500,3.5413955078125,-0.1115185932457447,0.08664192614257335,-0.23475562653699888
1782814980457477400,3.561477294921875,-0.06804945387542248,0.018801584973186253,-0.23377235112069172
1782814980477560300,3.581560302734375,-0.20037936448156832,0.10580927568823098,-0.24862404769062996
1782814980497642200,3.601642333984375,-0.23838439322710037,-0.003963789064437151,-0.3143901764018461
1782814980517724200,3.62172412109375,0.17456804687678812,0.01723988861441612,-0.16916496399054304
1782814980537807000,3.64180712890625,0.2880681693285703,0.022320114488154647,-0.13398105708034708
1782814980557889300,3.66188916015625,0.060385787379741665,-0.014806816248595714,-0.13615818192372098
1782814980577972200,3.68197216796875,-0.2810597518712282,0.00584127337411046,-0.2646115433574654
1782814980598054100,3.70205419921875,-0.436972782638669,0.03221490103676915,-0.30697273975219574
1782814980618137300,3.722137451171875,-0.42378246167600153,0.09057458941638469,-0.2940141086535528
1782814980638219300,3.74221923828125,-0.20785832206010818,0.07435176889002322,-0.23903222614396363
1782814980658302200,3.76230224609375,-0.0692857176721096,0.0774246004641056,-0.2628006397442892
1782814980678384400,3.78238427734375,0.022092004820704458,0.07752426144629716,-0.3160552235372364
1782814980698467300,3.80246728515625,0.0548421817779541,0.05671425926014781,-0.3653015215368941
1782814980718549200,3.82254931640625,-0.010598550903797148,0.09677315179556607,-0.3993759328352287
1782814980738631200,3.842631103515625,-0.021551906594634056,0.1972379977159202,-0.3318966069979593
1782814980758714000,3.862714111328125,0.04160743715167045,0.2793323435567319,-0.20304973446829244
1782814980778796300,3.88279638671875,0.15281214214265346,0.28732290391921994,-0.13454180536880156
1782814980798879200,3.902879150390625,0.05567687903642654,0.29202216765135525,-0.18255022300342097
1782814980818961200,3.922961181640625,0.036139819395542144,0.23794775537550447,-0.30602986941151317
1782814980839044400,3.94304443359375,0.10330664521753788,0.199819538641721,-0.3367261095136404
1782814980859126300,3.963126220703125,0.15786124222576617,0.18425372071936724,-0.27900632647275925
1782814980879209200,3.983209228515625,0.1316214700758457,0.21186521961390972,-0.22478441375130787
1782814980899291400,4.00329150390625,0.16342939774692058,0.28241350456774234,-0.1167692163834814
1782814980919374300,4.023374267578125,-0.08039747879505157,0.33041049662604927,-0.07060918482821435
1782814980939456300,4.043456298828125,-0.45784372123181816,0.28926190915778277,-0.16141564677171408
1782814980959538200,4.0635380859375,-0.6435714600265026,0.35124373355731364,-0.28046547577250747
1782814980979621000,4.08362109375,-0.48834816508889195,0.3003308540523052,-0.24101602037232367
1782814980999703300,4.103703369140625,-0.21535715338289738,0.1308829266682267,-0.2502632479987107
1782814981019785700,4.12378564453125,0.12589081746935843,-0.08305982987210155,-0.3455968867767602
1782814981039867600,4.14386767578125,0.23595862738490103,-0.24802725084125996,-0.3849452564226463
1782814981059950800,4.163950927734375,0.3115747171223163,-0.3640437400281429,-0.4693557702513411
1782814981080032800,4.18403271484375,0.4026017264813184,-0.4062311690248549,-0.45460905015952885
1782814981100115700,4.20411572265625,0.41621231868267056,-0.3910518662020564,-0.4489088657565415
1782814981120198000,4.224197998046875,0.46055590279996395,-0.3933300402671098,-0.3335243908628821
1782814981140280800,4.24428076171875,0.35528935568630693,-0.289630742470175,-0.22027745772087945
1782814981160362800,4.26436279296875,0.18237024506032465,-0.16290376643761992,0.008872713491879403
1782814981180444700,4.284444580078125,-0.014625906723737717,-0.10228022477924824,0.1446892515042331
1782814981200527600,4.304527587890625,-0.1312514677196741,0.014448212069272994,0.23128964919317513
1782814981220609800,4.32460986328125,-0.1521171456158161,0.11907967614978551,0.33478374327421184
1782814981240692700,4.344692626953125,-0.05391279197335243,0.15273060133904218,0.38541316619534044
1782814981260775000,4.36477490234375,0.1048871924072504,0.05810892848894,0.33041334617026147
1782814981280857900,4.38485791015625,0.3066191405415535,-0.055362698520720004,0.259229850319121
1782814981300939800,4.404939697265625,0.3686328213840723,-0.13377806358784436,0.21001323507167396
1782814981321022700,4.425022705078125,0.1772673689633608,-0.16407734026163814,0.14335669685937463
1782814981341104600,4.445104736328125,-0.1851870560467243,-0.0849929898917675,0.19058915255228057
1782814981361186800,4.465186767578125,-0.3678682667523622,-0.03131897511035204,0.20287781196748836
1782814981381269800,4.485269775390625,-0.32581717748641964,-0.06559475419968366,0.20898442174689844
1782814981401351700,4.5053515625,-0.18231880713403223,-0.06551686665788292,0.1939921841951087
1782814981421434600,4.5254345703125,-0.14102759632468223,-0.0950983504511416,0.18992793043088166
1782814981441516500,4.5455166015625,-0.12120762808918953,-0.13178557459637522,0.09873365647988393
1782814981461599700,4.565599853515625,-0.09415887764394283,-0.22811039810255168,-0.030782173953065647
1782814981481682000,4.585681884765625,-0.10497370164692402,-0.2874615817375481,-0.14613738621962255
1782814981501764900,4.605764892578125,-0.08589373812377453,-0.2688455824643373,-0.1336465552958194
1782814981521846800,4.6258466796875,-0.19655016158223151,-0.1440476747982204,-0.01863851364076254
1782814981541929700,4.6459296875,-0.3652244742453098,-0.011909048980474471,-0.0025042036565602757
1782814981562011600,4.66601171875,-0.4066951332747936,-0.0014279869765043258,-0.0033028569206944667
1782814981582093800,4.68609375,-0.26436639122366906,-0.027689532566815615,-0.027432283569849093
1782814981602176800,4.7061767578125,-0.08280220184922218,-0.041568274185061455,-0.07778302198033779
1782814981622258700,4.7262587890625,0.12883563874959944,-0.028363340175151824,-0.06540501291439868
1782814981642342000,4.746341796875,0.34775428400635716,-0.033926234999299046,-0.0426251262942329
1782814981662423800,4.766423828125,0.5039420400619506,-0.04279080171734095,0.03733687455984763
1782814981682506800,4.7865068359375,0.5377051934540271,-0.038491350957751275,0.06035103572676889
1782814981702588700,4.806588623046875,0.3994616748899221,-0.04578296927064657,0.12966389713413082
1782814981722671900,4.826671875,0.0218505972802639,0.0439158602245152,0.13119055871213786
1782814981742753800,4.84675390625,-0.23452362614572048,0.10049860205948352,0.09597742570745758
1782814981762835700,4.866835693359375,-0.2579050862550735,0.10541896119639277,0.1315701052147895
1782814981782918700,4.886918701171875,-0.14354454758167265,-0.036245033335685725,0.08046826987578533
1782814981803000600,4.90700048828125,-0.02142564986646175,-0.14029445974454283,-0.026045519086299464
1782814981823083500,4.92708349609375,-0.056122869238257406,-0.1814132365964353,-0.12644003058364614
1782814981843165700,4.947165771484375,-0.06521276914477347,-0.15672420101985335,-0.1897997374739498
1782814981863249000,4.967248779296875,-0.001266074413061142,-0.18624577131941913,-0.19703582620732485
1782814981883330800,4.987330810546875,-0.08864566718041897,-0.16401801128983495,-0.12237258021533488
1782814981903413800,5.007413818359375,-0.29807635312378405,-0.02799816012457013,-0.08410022403681651
1782814981923495700,5.02749560546875,-0.3649409811288118,0.027409400451183317,-0.07638612426184117
1782814981943578600,5.04757861328125,-0.2187228304237127,0.010331132139265536,-0.054753325317567214
1782814981963660800,5.067660888671875,-0.046376551249623296,0.011035188755393027,-0.01970929266894236
1782814981983742700,5.08774267578125,0.016816694766283034,0.029410218879580497,0.024356570485513655
1782814982003825700,5.10782568359375,0.05132978974282741,0.05714300606623292,-0.004858061889884993
1782814982023908400,5.127908447265625,0.007127659922838211,0.0190719263471663,-0.02543873056587763
1782814982043991600,5.147991455078125,0.03382511271238327,-0.035951018825173375,-0.1395691137452144
1782814982064073500,5.168073486328125,0.09425473923385143,-0.1525599209472537,-0.1539533115344122
1782814982084156400,5.188156494140625,0.11318974132835864,-0.12140680392310023,-0.17062562939394266
1782814982104238600,5.208238525390625,0.2289882038503885,-0.18007628890424965,-0.06925624498245306
1782814982124321500,5.228321533203125,0.3193009274601936,-0.256310656670481,0.06862748209224082
1782814982144403500,5.248403564453125,-0.009963175609707832,-0.25094299215748905,0.18926433368930592
1782814982164486400,5.268486328125,-0.5130582434535026,-0.0747559657767415,0.11446160616138949
1782814982184568300,5.288568359375,-0.7387450676709413,-0.03535729071572423,-0.026933088176324962
1782814982204650500,5.308650390625,-0.6936971346765756,-0.09373699897006153,0.01613731593368575
1782814982225359400,5.329359375,-0.6775900494843721,-0.08654854877069591,0.03585866436660289
1782814982245442300,5.3494423828125,-0.48506724372208115,-0.02144128582701087,0.028208021749276665
1782814982265524500,5.3695244140625,0.05832710128426551,-0.004724690434336662,0.19959369399659335
1782814982285607400,5.389607421875,0.7547188818722963,-0.04234349634125829,0.4184943652052432
1782814982305689300,5.409689453125,1.1225853950589895,-0.145574884365499,0.5154908043626696
1782814982325772500,5.4297724609375,1.0454565626710652,-0.2339844047024846,0.47028800960015504
1782814982345854500,5.4498544921875,0.9114847300767898,-0.2917560640610754,0.4834294133871793
1782814982365937400,5.4699375,0.6953267817050218,-0.2154775648921728,0.6444830219134688
1782814982386019600,5.49001953125,0.336489962670207,-0.030132980196177956,0.8085619696103036
1782814982406101500,5.5101015625,-0.07500877149403094,-0.0030718086607754228,0.8952066722318529
1782814982426184400,5.530184326171875,-0.43819794051945204,0.0034913492470979688,0.978038976958394
1782814982446266400,5.550266357421875,-0.5784346787273883,0.05768018168285489,1.1360560673329978
1782814982466349300,5.570349365234375,-0.5468389325022697,0.14615911399424075,1.3018380926206707
1782814982486431500,5.590431396484375,-0.25534721846580505,0.15969094187095761,1.4338414016209542
1782814982506514400,5.610514404296875,0.17092998263537884,0.04266454498916864,1.4760107104390858
1782814982526596600,5.6305966796875,0.37543665618002414,-0.04858224460035562,1.3291131991676985
1782814982546679600,5.650679443359375,0.4412374543458223,-0.15782149473726748,1.0590955041840673
1782814982566134500,5.670134521484375,0.32898060995340345,-0.27433292783424257,0.826770630191639
1782814982586217500,5.690217529296875,0.1522878260076046,-0.32845380960032344,0.6410256480012089
1782814982606299400,5.71029931640625,0.09511690902113915,-0.3629949616275728,0.6691880587767809
1782814982626382300,5.73038232421875,0.1397165137261152,-0.3399675756528973,0.7216567163564265
1782814982646464300,5.75046435546875,0.15440262620449066,-0.3401217433013022,0.7518099356230348
1782814982666547500,5.77054736328125,-0.02228548156619072,-0.3233586784183979,0.7362615072268992
1782814982686629600,5.790629638671875,-0.2330021156668663,-0.27787439983338114,0.6912377588257194
1782814982706712600,5.810712646484375,-0.5297638790607452,-0.20158347957432268,0.6097317342668771
1782814982726794500,5.83079443359375,-0.6566390313923358,-0.19698036969304084,0.3770628691423684
1782814982746876400,5.85087646484375,-0.5624935977518558,-0.3312864026777446,0.2859749233763665
1782814982766959400,5.87095947265625,-0.4196522300034761,-0.4235243952617049,0.2780089494658634
1782814982787041500,5.89104150390625,-0.3775520408987999,-0.42207127384394405,0.3069394220044836
1782814982807124500,5.91112451171875,-0.45410570374727244,-0.4304831283584237,0.1835256621731445
1782814982827206400,5.931206298828125,-0.5064321033120155,-0.44919148209020493,-0.006825717834196984
1782814982847289600,5.95128955078125,-0.41468379394114013,-0.39100086666718126,0.00852313286922872
1782814982867371500,5.97137158203125,-0.18963994380235671,-0.2575365452036261,0.15586330987419933
1782814982887454500,5.991454345703125,0.04407938022315502,-0.11542772951349616,0.3367573083695024
1782814982907536400,6.011536376953125,0.19961188724040985,0.021584639820456504,0.412161728117615
1782814982927619600,6.03161962890625,0.24106501061320304,0.07360182730555534,0.21004432432968168
1782814982947701500,6.051701416015625,0.2481383100003004,0.05696516528129577,-0.03119337596930563
1782814982967783400,6.071783447265625,0.17822306225299833,0.08208353218585253,-0.05154980743536725
1782814982987866400,6.091866455078125,0.19805530544817446,0.20277531970739363,0.014502974463813005
1782814983007948300,6.1119482421875,0.2679483413636684,0.197483643040061,0.013731451235199347
1782814983028030700,6.13203076171875,0.038439328509569166,0.20682313379347322,-0.13154413965647108
1782814983048112600,6.152112548828125,-0.5467968469262123,0.283795168184489,-0.3430947677627206
1782814983068195800,6.17219580078125,-1.00999420414567,0.45475569208860395,-0.6077848379828036
1782814983088277800,6.19227783203125,-1.0728192013710736,0.5880469950728118,-0.676829951832071
1782814983108360700,6.212360595703125,-0.7678332149893045,0.6411361957035958,-0.8258393406908958
1782814983128443000,6.23244287109375,-0.22674948501288889,0.5836097432777285,-0.9219836199983954
1782814983148525800,6.25252587890625,0.2410667641788721,0.5591312817119062,-1.0792594635516404
1782814983168607700,6.272607666015625,0.46903322376608847,0.4825437165938318,-1.2710739749141036
1782814983188689700,6.292689697265625,0.4213099340826273,0.5012810041591524,-1.4883441223114728
1782814983208772600,6.312772705078125,0.2767734528541565,0.5627969646126032,-1.575685721156001
1782814983228854800,6.332854736328125,0.19721300940513609,0.7116260284684598,-1.5295459012717008
1782814983248937700,6.352937744140625,0.2901981670945883,0.8848669183947145,-1.2318147083237767
1782814983269019600,6.37301953125,0.5167886621534824,1.0137151243649423,-0.9155939920265227
1782814983289102800,6.393102783203125,0.9027285921692848,0.9947807067923248,-0.5940768863542005
1782814983309184800,6.413184814453125,1.3307143507540224,0.9463849246747791,-0.21327698610797524
1782814983329266700,6.4332666015625,1.7595412363380192,0.9829466227442025,0.19707761952243744
1782814983349349600,6.453349609375,2.0411931088835,0.909702376704663,0.5675488353148103
1782814983369431800,6.473431884765625,1.8318138608664274,0.6817784410849214,0.7123710746821016
1782814983389514800,6.4935146484375,1.157489535179734,0.5552209764003754,0.6909926980234682
1782814983409596700,6.5135966796875,0.43464346290826794,0.4907746615834534,0.8193626920226961
1782814983429679600,6.5336796875,-0.2935468930006027,0.45001872669458387,1.1022162685081363
1782814983449761500,6.553761474609375,-0.9319576092630624,0.47459195387177167,1.2635177143156529
1782814983469844700,6.5738447265625,-1.295440792798996,0.4691402643371373,1.2024384647790343
1782814983489927000,6.593927001953125,-1.4903034396857022,0.38777131016142663,1.201496726949513
1782814983510008800,6.6140087890625,-1.7080255686342716,0.41332010437250133,1.1048943286109716
1782814983530091800,6.634091796875,-1.8836954392731189,0.5180017642702907,0.8499692080147564
1782814983550173700,6.654173583984375,-1.7546879510879516,0.6474252859104425,0.5038008780255914
1782814983570256600,6.674256591796875,-1.173636952382326,0.5712588688138872,0.18534071223847567
1782814983590338800,6.6943388671875,-0.3130494658499956,0.3499931489743292,0.009672357703279703
1782814983610421800,6.714421875,0.40912089911699295,0.2645141291312873,-0.016414087048452347
1782814983630503700,6.734503662109375,0.8870780185729265,0.22721249941475688,0.04249050359651446
1782814983650585600,6.754585693359375,0.9968424616277217,0.16959796684663742,0.015416636976320296
1782814983670668500,6.77466845703125,0.9557774607896804,0.055054801615327595,-0.13378560757348312
1782814983690750700,6.794750732421875,0.8893734360337257,-0.17859975007828324,-0.2552129793605767
1782814983710833700,6.814833740234375,0.5174754753738642,-0.3543558376958594,-0.27598031144877894
1782814983730915800,6.834915771484375,-0.10041443090736865,-0.41516763193532824,-0.3279150265485048
1782814983750997800,6.854997802734375,-0.5893956332027912,-0.5144629591522738,-0.35025534357447174
1782814983771080700,6.875080810546875,-0.989357658830285,-0.6543301699280738,-0.3033769437499344
1782814983791162600,6.89516259765625,-1.3817372665047645,-0.7385610894061625,-0.24820216901674866
1782814983811245600,6.91524560546875,-1.5379904890120029,-0.7443726982943714,-0.11692423341525718
1782814983831327700,6.93532763671875,-1.2284265271902084,-0.8105294702909887,0.13719740704465658
1782814983851410700,6.95541064453125,-0.8104016061276197,-0.8403620793011038,0.39201577933076764
1782814983871492600,6.97549267578125,-0.6748930654853582,-0.8597180832866579,0.5561165004679933
1782814983891574500,6.995574462890625,-0.749016286316514,-0.7509077991515397,0.4850999038826674
1782814983911657700,7.01565771484375,-0.6247896026670933,-0.7016583228141069,0.4950790077138692
1782814983931740000,7.035739990234375,0.0860819541722536,-0.7260453067041933,0.5836146386485547
1782814983951822800,7.05582275390625,0.6440589512825012,-0.8209203697934746,0.6250462808419018
1782814983971904800,7.07590478515625,0.5873907231211662,-0.7711001808959991,0.498329095550999
1782814983991987700,7.09598779296875,-0.450441920542717,-0.37497861021421847,0.25789182491470125
1782814984012069600,7.116069580078125,-1.5685867028057574,0.08321655480377375,-0.02674742941111326
1782814984032152000,7.136152099609375,-1.8936667981892823,0.46323951586075124,-0.31207159726116807
1782814984052235000,7.156235107421875,-1.0887491764307022,0.5058421015296131,-0.13310838416535406
1782814984072317200,7.176317138671875,0.004948562318086624,0.6043648734714836,0.02934011278543621
1782814984092400400,7.196400390625,0.7158475916862488,0.6838295283958316,-0.058851600082404906
1782814984112482300,7.216482421875,0.899887815785408,0.8138071767874061,-0.1850007762270048
1782814984132564200,7.236564208984375,0.5724088425666094,0.9076195790812372,-0.5591052704878151
1782814984152647200,7.256647216796875,0.21421850474178789,0.9975257677167654,-0.7974680364049971
1782814984172729300,7.276729248046875,0.10166355418562889,1.1029426830865443,-0.8644232653029262
1782814984192812300,7.296812255859375,0.2131201881110668,1.2178716692976652,-0.8425069093100727
1782814984212894200,7.316894287109375,0.14641571910381315,1.2032825874529778,-0.8836722287174313
1782814984232976100,7.33697607421875,-0.051454292905330656,1.1946869008041918,-1.1160421108953653
1782814984253059000,7.35705908203125,-0.018591303223371505,1.111763849054277,-1.3342621063634752
1782814984273141200,7.377141357421875,0.3417535822868347,1.0040290121309459,-1.4029416748359798
1782814984293224200,7.39722412109375,0.7494242825955152,0.7956978118620812,-1.2384389487691223
1782814984313306000,7.41730615234375,0.9183055160075425,0.5513191466562449,-1.0522829746250062
1782814984333388000,7.437387939453125,0.9913117155075073,0.3152712335526943,-1.0160238396987318
1782814984353471200,7.45747119140625,0.9320932183414697,-0.06983516824841499,-0.9729091397892683
1782814984373553200,7.47755322265625,0.7215864275991917,-0.27586481357663867,-0.862974162473157
1782814984393636400,7.49763623046875,0.5101128376513719,-0.4558018401406705,-0.7905068921554833
1782814984413718300,7.51771826171875,0.3004366525143385,-0.526883793579787,-0.7233158817403018
1782814984433800200,7.53780029296875,-0.03831365630328655,-0.6174694889120758,-0.7566055724017322
1782814984453883100,7.557883056640625,-0.3041927901774645,-0.7823593146003782,-0.8543607940372079
1782814984473965000,7.577965087890625,-0.37367549172639847,-0.8265469775035977,-0.7653959048397838
1782814984494048000,7.598048095703125,-0.21914836235940455,-0.7608344421431422,-0.6003941066769882
1782814984514130200,7.618130126953125,0.1151829609721899,-0.6616523295097053,-0.3252398159898817
1782814984534212000,7.638212158203125,0.3757295016467571,-0.6012725334793328,-0.0023006050925701857
1782814984554295300,7.65829541015625,0.39152562119364737,-0.5601365132316947,0.16769100071415305
1782814984574377200,7.678377197265625,0.268620541536808,-0.4586005309484899,0.30199663184005765
1782814984594460200,7.698460205078125,0.17843582822084425,-0.3519087733373046,0.5179366631448269
1782814984614542300,7.718542236328125,0.15877192732989787,-0.27365648987740276,0.715940238405764
1782814984634625300,7.738625244140625,0.14089783246517182,-0.3219078950881958,0.7071190724380314
1782814984654707200,7.758707275390625,0.14624153158068656,-0.4705019811443984,0.531242646376416
1782814984674789000,7.7787890625,0.10436579888164997,-0.5396085428573191,0.32279892564378676
1782814984694872000,7.7988720703125,0.017716858476400376,-0.6306390593476593,0.17850461914073676
1782814984714954200,7.818954345703125,0.12391805609166621,-0.8056402369447052,0.053578555050306016
1782814984735036200,7.8390361328125,0.08465513623952865,-1.0121497747443615,0.03568802050743252
1782814984755119000,7.859119140625,-0.3861573721587658,-0.8270740701176226,-0.2179820585263893
1782814984775201000,7.879200927734375,-0.6451695428729057,-0.7551920523419976,-0.3874623172774911
1782814984795284200,7.8992841796875,-0.6426981843233108,-0.7452914205744862,-0.3988113942876458
1782814984815366100,7.9193662109375,-0.5396422989964484,-0.6254933670222759,-0.42464342588689175
1782814984835448300,7.9394482421875,-0.32127427335977554,-0.616933774600178,-0.41143392529971895
1782814984855531300,7.95953125,-0.019129063361883164,-0.6208255213417112,-0.3981967329880222
1782814984875613200,7.97961328125,0.09477321015000342,-0.6900581936523318,-0.34944662100747226
1782814984895696100,7.999696044921875,0.15628244860172272,-0.663810676587373,-0.4703832501355558
1782814984915778000,8.019778076171875,0.24136603938639162,-0.7608331269688904,-0.46736770170666275
1782814984935860200,8.039860107421875,-0.026202947270870205,-0.6128896137759089,-0.522847268072702
1782814984955943200,8.059943115234375,-0.14591478384435175,-0.4042537314720452,-0.4416821293734014
1782814984976025000,8.080025146484376,-0.23766075512766838,-0.15615224635079503,-0.25396281490270045
1782814984996108300,8.1001083984375,-0.3976736224293709,-0.006550736817717551,-0.14913346276306547
1782814985016190200,8.120190185546875,-0.665486354714632,0.10519728126972913,-0.189839667625539
1782814985036272400,8.1402724609375,-0.74872519441545,0.3051642655581236,-0.2516324357263744
1782814985056355300,8.160355224609376,-0.49011692832708353,0.4253163932450115,-0.16197949119955302
1782814985076437200,8.180437255859376,-0.27322014428675173,0.4640646415732801,-0.16149996405430136
1782814985096519200,8.200519287109374,-0.1594149014085531,0.4980198104061186,-0.2979337297827005
1782814985116602400,8.220602294921875,-0.16363105779886244,0.5357249794222414,-0.4401799081169069
1782814985136684500,8.2406845703125,-0.21083236943483352,0.6741910546958446,-0.6672578944317996
1782814985156767500,8.260767578125,-0.23727438615858554,0.7687085365191102,-0.7659207324314862
1782814985176849400,8.280849365234374,-0.17882395075559615,0.8809288482934235,-0.7624656235415488
1782814985196931300,8.300931396484375,-0.06738134535551071,0.9693858610339462,-0.6599078239299356
1782814985217014300,8.32101416015625,0.1939928783148527,1.001888931362331,-0.5784751568682491
1782814985237096200,8.34109619140625,0.49681028848588465,1.0252522712931036,-0.5453254226667806
1782814985257179100,8.36117919921875,0.7697229742586612,0.9821734464146197,-0.5587436706338077
1782814985277261300,8.38126123046875,0.9623381344795227,0.8406013679496943,-0.5669369139615446
1782814985297343200,8.40134326171875,1.0655717144608496,0.7286006902754306,-0.5849577968858182
1782814985317426400,8.421426513671875,1.1947381926000118,0.6425036846645176,-0.4832745881516486
1782814985337508400,8.44150830078125,1.224836978265643,0.4702275481171906,-0.35071057652868326
1782814985357590500,8.461590576171876,0.9324626361757516,0.36918066452518106,-0.31232692372910675
1782814985377673500,8.481673583984374,0.5112894802153111,0.2898473078303039,-0.2196311226413585
1782814985397755400,8.50175537109375,0.10346797325909138,0.21336714860945938,-0.13239623557431623
1782814985417838300,8.52183837890625,-0.34079555090963837,0.10807795127257704,-0.1359810169922188
1782814985437920300,8.541920166015625,-0.7039373736619949,0.12666253249421716,-0.14682689372058957
1782814985458002400,8.56200244140625,-0.9282342048257589,0.09708090257048606,-0.13300907024303452
1782814985478085400,8.58208544921875,-1.1124532926231623,0.11719970762208104,-0.09869299567593261
1782814985498167300,8.602167236328125,-0.9414052365660667,0.13025690372437237,-0.061815345258824525
1782814985518249200,8.622249267578125,-0.47316754709184167,-0.007114800441265106,0.06279624605495482
1782814985538332200,8.642332275390626,0.007107786178588866,-0.12320070160254835,0.11056105505889281
1782814985558414300,8.662414306640626,0.3709200555384159,-0.2887571745060384,0.048052448572590944
1782814985578497500,8.68249755859375,0.5231593662291765,-0.4138463202036917,-0.032198315228149296
1782814985598579500,8.702579345703125,0.4254313979268074,-0.4533730055585503,-0.06996595502123236
1782814985618661400,8.722661376953125,0.28641631046831606,-0.44381607266217465,-0.05437924044132232
1782814985638744300,8.742744384765626,0.2517769587635994,-0.44665531467609104,-0.014130159096047281
1782814985658826200,8.762826171875,0.34314883603751656,-0.5850652027830481,-0.03189246414937079
1782814985678908400,8.782908447265624,0.43553076713681216,-0.7428995570018887,-0.05713222894389182
1782814985698991400,8.802991455078125,0.1772095012962818,-0.8296053421609103,-0.11190123588778078
1782814985719073300,8.8230732421875,-0.17248071920871733,-0.9467200749132781,-0.3299651274787262
1782814985739156200,8.84315625,-0.3189396929323673,-1.053262341051176,-0.45498252311442045
1782814985759238100,8.863238037109374,-0.42206572088599204,-1.1545395262677223,-0.4741588231515139
1782814985779320300,8.8833203125,-0.5468225658893585,-1.1886764814082533,-0.3141653546700254
1782814985799403500,8.903403564453125,-0.7651110965490341,-1.0798353637434541,-0.19044830104317514
1782814985819485400,8.9234853515625,-0.8838298304319381,-1.0137255726937204,-0.20874807397406547
1782814985839567400,8.9435673828125,-0.7879384299069643,-1.0158525747850538,-0.1944366948259063
1782814985859650300,8.963650390625,-0.560991961017251,-0.9202063081275671,-0.11409452641466632
1782814985879732500,8.983732421875,-0.284829333537817,-0.781040194825828,0.04065020949207246
1782814985899815400,9.0038154296875,-0.030904256829619406,-0.7833193918041884,0.2249292290494777
1782814985919897300,9.0238974609375,0.1763333029836416,-0.7736101178903132,0.273656234149076
1782814985939979300,9.043979248046876,-0.23370529550015925,-0.6314285292249172,0.12338517305767163
1782814985960062200,9.064062255859374,-0.6645587184756994,-0.35348705550469456,-0.025727621376700698
1782814985980144400,9.084144287109375,-0.9801882639467716,0.09852196822427213,0.24611268592420965
1782814986000226300,9.104226318359375,-1.127884670510888,0.5672623465236276,0.49114426208082584
1782814986020309200,9.124309326171876,-1.117355093190074,0.8291380899753421,0.8057508577123283
1782814986040391000,9.144390869140626,-1.1346592792123555,1.0251908234294502,0.9198041570674628
1782814986060473000,9.16447314453125,-0.9246592689484358,1.0202166152134537,0.823138557299599
1782814986080556000,9.18455615234375,-0.3670627955883741,0.9259462400190531,0.6714220283739268
1782814986100638200,9.20463818359375,0.43076223756074905,0.6714389795087278,0.5066374896910041
1782814986120721200,9.22472119140625,1.027733858975768,0.3855222891256213,0.4250813058475032
1782814986140803000,9.244802978515626,1.2178759070813656,0.1934757225729525,0.3614540888611227
1782814986160885000,9.264885009765624,0.9970978976935148,0.12065364746823906,0.08617731343866325
1782814986180968000,9.284968017578125,0.636836014291644,0.048684389800578355,-0.20371303894892334
1782814986201050000,9.305050048828125,0.3870750715255737,0.07957081871256232,-0.3181296186584979
1782814986221132000,9.325132080078125,0.13996376648545264,0.25958602507933976,-0.18965930608995257
1782814986241841200,9.345841064453126,-0.2295674650430679,0.5550811295382678,-0.12688776521799153
1782814986261924000,9.365924072265624,-0.36180209858119483,0.7167630990959704,-0.19011081271711736
1782814986282006000,9.386006103515625,-0.3750765906959772,0.8430835401542485,-0.273636122942809
1782814986302089000,9.4060888671875,-0.27889585183560844,0.897595613195002,-0.4020025915443897
1782814986322171000,9.4261708984375,0.13216098378002641,0.8201428095497191,-0.44149307307470587
1782814986342253000,9.446253173828126,0.7612982602626085,0.7479166545115411,-0.269702528087236
1782814986362336300,9.466336181640624,0.9354518811196089,0.7064115086905658,-0.09727493643839843
1782814986382418200,9.486418212890625,0.6652291650831699,0.6378482600741088,-0.14601133955400436
1782814986402500000,9.5065,0.22641104683876037,0.5400276450522243,-0.3494334327323362
1782814986422583000,9.5265830078125,-0.21967150945067404,0.4660116839878261,-0.4607338897153735
1782814986442665200,9.546665283203126,-0.609637041720748,0.41495808083787555,-0.3988572427233681
1782814986462747100,9.5667470703125,-0.6955570833295583,0.5167930460676551,-0.31163956251945346
1782814986482830000,9.586830078125,-0.323127207750082,0.4424646580532193,-0.15125573388035407
1782814986502912000,9.606912109375,0.20227029279470443,0.23938480244129895,-0.11708571672043762
1782814986522995000,9.626994873046876,0.5147346522331238,-0.012790654120594262,-0.19213676558677106
1782814986543077000,9.6470771484375,0.5759487071305514,-0.14120046867355704,-0.2569723719822243
1782814986563159000,9.667158935546874,0.5947638822376727,-0.19657251954451202,-0.24846074688769876
1782814986582615000,9.686614990234375,0.6200327635288239,-0.2853000197894871,-0.2649729788146913
1782814986602697200,9.706697265625,0.5724743090182542,-0.41136926256567236,-0.26144980965722353
1782814986622780200,9.7267802734375,0.31694647328853603,-0.40923984932154417,-0.17728198201060294
1782814986642862000,9.746862060546874,0.05605681826472282,-0.377935048867017,-0.13134057990838774
1782814986662944000,9.766944091796875,-0.06958850001096725,-0.34771424425691366,-0.019017565811425448
1782814986683027000,9.78702685546875,-0.018661445850133896,-0.43578518028929825,0.018691576126916333
1782814986703109000,9.807109130859375,0.16309855835735798,-0.5756821651488542,0.006132018215302378
1782814986723192000,9.827192138671874,0.3488473399400711,-0.7769907733045518,-0.011109870559955016
1782814986743274000,9.84727392578125,0.3997001598209142,-0.8530328333690762,-0.016430937718553466
1782814986763356000,9.86735595703125,0.28411972396373747,-0.9533800442591309,-0.08130189855517819
1782814986783439000,9.887439208984375,-0.03863689690828323,-0.9026023354411125,-0.09356447368105873
1782814986803521300,9.907521240234376,-0.28611995787024497,-0.8706431627310812,-0.19386547080921007
1782814986823603200,9.927603271484376,-0.30804245134294034,-0.9373014545090496,-0.22653587879482656
1782814986843686100,9.94768603515625,-0.31205344054996964,-0.9424164594352245,-0.2733892537759617
1782814986863768000,9.96776806640625,-0.3600426876932382,-0.9290294468566774,-0.4673836299281567
1782814986883850000,9.98785009765625,-0.5016442845135927,-0.9134111680947243,-0.5693586977483704
1782814986903933000,10.007932861328126,-0.9882137494921683,-0.7923781659200787,-0.6139649148572236
1782814986924015000,10.02801513671875,-1.1926660625010728,-0.5965653787016868,-0.7298120388265699
1782814986944098000,10.04809814453125,-1.0014169299364089,-0.4903197574228048,-0.6432671433176845
1782814986964180000,10.068179931640625,-0.49767362731695175,-0.3606581892430782,-0.546900380365923
1782814986984262000,10.088261962890625,0.02675882758796215,-0.2570642515167594,-0.32308570669591424
1782814987004345000,10.108344970703126,0.32302900807261464,-0.18049261462017893,-0.3693131317984313
1782814987024427000,10.128427001953124,0.2674894916802645,-0.14371741993054746,-0.5616493654800578
1782814987044509000,10.148509033203124,-0.10760931084752082,0.04742123799696565,-0.7419127379216254
1782814987064592000,10.168591796875,-0.4499731339871883,0.33915742831379175,-0.7029705744564533
1782814987084673800,10.188673828125,-0.22161387569010257,0.5907194291524589,-0.5009283182639629
1782814987104756700,10.2087568359375,0.3934188875943422,0.6877266819648444,-0.19309264153949915
1782814987124839000,10.2288388671875,0.8876964427322149,0.7337763393476605,0.01622293012421578
1782814987144920800,10.2489208984375,0.8699293153733014,0.6621618864670396,0.03361526935398578
1782814987165003800,10.269003662109375,0.3273854497164488,0.6855655584082007,-0.36414252422749993
1782814987185085700,10.289085693359375,-0.1521352657943964,0.8239414711803197,-0.6593881839700043
