time,seconds_elapsed,z,y,x
1782814914855626000,0.0506259765625,-0.46554830425977706,-0.7470202901937067,0.3441989296123385
1782814914875709200,0.070709228515625,-0.5988368307650089,-0.7471500540532171,0.19300876264832914
1782814914895792000,0.090792236328125,-0.9006588001579046,-0.6515749529357999,0.1391121911574155
1782814914915875000,0.110875,-1.3174281682014464,-0.4388520935792476,0.21203144302628932
1782814914935958000,0.1309580078125,-1.504237272492051,-0.30840660848021506,0.15838431625179947
1782814914956041200,0.151041259765625,-1.1669909384965895,-0.2907066280733794,0.16916761260535568
1782814914976124400,0.17112451171875,-0.49878188081979746,-0.3721763392098248,0.1917312900584191
1782814914996207400,0.191207275390625,-0.14477788876891134,-0.43498489675708113,0.18218243087064473
1782814915016290300,0.211290283203125,-0.1255003568470478,-0.5070082226995378,0.08102605902217327
1782814915036373500,0.23137353515625,-0.19090718725919723,-0.44605099210739135,-0.04866217796877026
1782814915056456400,0.25145654296875,-0.1278530574530363,-0.3534440200805664,0.020716697879508136
1782814915076539400,0.271539306640625,0.02040624369084835,-0.48858730760700997,0.15220723505206404
1782814915096622600,0.29162255859375,0.2605430335432291,-0.5036534323789179,0.1777523394687101
1782814915116705500,0.31170556640625,0.3682955522537231,-0.5408626345716416,0.19966153506841508
1782814915136788500,0.33178857421875,0.0791325734257698,-0.5090756766233593,0.20788122801166026
1782814915156871400,0.351871337890625,-0.0397188469260931,-0.48095498609766363,0.19000592757053672
1782814915176954600,0.37195458984375,-0.06352700801491737,-0.5332496753498912,0.130934656855464
1782814915197037600,0.39203759765625,-0.19615502478480337,-0.5150588426861912,0.032454262750595805
1782814915217120500,0.41212060546875,-0.5624836608797311,-0.5752591904964298,-0.23896964576914906
1782814915237203500,0.432203369140625,-0.558517095336318,-0.4839139089684933,-0.23930844926945863
1782814915257286700,0.45228662109375,0.16499182475805282,-0.2775872534550726,0.023608181537315247
1782814915277369600,0.47236962890625,0.7856827599346637,-0.34092648381292817,0.25473588163442906
1782814915297452500,0.49245263671875,0.863158213803172,-0.5817427803620696,0.25491931190993633
1782814915317535500,0.512535400390625,0.6331055955916642,-0.6372763054050504,0.06682758393026889
1782814915337618400,0.532618408203125,0.742777684187889,-0.3786407129183411,0.15004355421215296
1782814915357701600,0.55270166015625,0.785262488695979,-0.3531710483580828,0.48268089657481755
1782814915377784600,0.57278466796875,0.779880211135745,-0.406728889413923,0.7392991944223641
1782814915397867500,0.592867431640625,0.6224819102466106,-0.3681730949178338,0.7971542942807078
1782814915417950500,0.612950439453125,0.511065608331561,-0.15652327162027357,0.9096103145070373
1782814915438033400,0.633033447265625,0.3913800752431154,-0.09352057974040508,1.2760836197696626
1782814915458116600,0.65311669921875,0.26589433144330976,-0.2423062428459525,1.4767242655359207
1782814915478199600,0.673199462890625,0.1369242526590824,-0.55418425376378,1.345735978797078
1782814915498282500,0.693282470703125,-0.1273614745438099,-0.7785583148822188,1.2762097303673625
1782814915518365400,0.713365478515625,-0.4434416863918304,-0.6751903679315,1.3068985908806323
1782814915538448400,0.733448486328125,-1.0698089136391877,-0.3547975535813719,1.2151316498745233
1782814915558531600,0.753531494140625,-1.8141683140605687,-0.07164565173648298,0.9782971164379268
1782814915578614500,0.773614501953125,-2.2056682162910697,0.05214768199697137,0.5334317539185285
1782814915598697500,0.793697509765625,-2.1434879467099903,-0.05040032687298953,0.255993553545326
1782814915618780400,0.813780517578125,-1.6172452275127172,0.1252714799946174,0.04053191687464714
1782814915638863400,0.83386328125,-0.8193553124338387,0.36127643073927607,-0.24086517719216644
1782814915658946600,0.853946533203125,0.0768447547495365,0.09432199578378349,-0.4563405501272529
1782814915679029500,0.874029541015625,0.8076198664546013,-0.11015705910157411,-0.8548819683670997
1782814915699112400,0.894112548828125,0.7021756246864795,-0.17246468138936907,-1.0684048920601605
1782814915719195400,0.9141953125,0.14277648581862448,-0.051141610226966436,-1.320446639239788
1782814915739278600,0.934278564453125,-0.13132862460911274,-0.08427735243570059,-1.4037281490385531
1782814915759361500,0.954361572265625,0.1647393113017082,-0.06677216394860297,-1.2861255597040055
1782814915779444500,0.974444580078125,0.5404173750221729,0.08986695260368287,-0.942049964210391
1782814915799527400,0.99452734375,0.9658937811344861,0.17933496901765464,-0.5761331237867474
1782814915819610400,1.0146103515625,1.2807523422330618,0.163474259801954,-0.5021809486735612
1782814915839693600,1.034693603515625,1.2672785281538963,0.026200389987602827,-0.621585838189721
1782814915859776500,1.054776611328125,0.8326976090878248,0.07451828456334769,-0.8030364111218601
1782814915879859500,1.074859375,0.360652928546071,0.17222477168627082,-0.9792962835431098
1782814915899942400,1.0949423828125,-0.06097323187887668,0.23668511502854525,-1.056369586351514
1782814915920025300,1.115025390625,-0.26080256126224993,0.32377010876350104,-1.0109968053169547
1782814915940108500,1.135108642578125,-0.41721418920159337,0.3708636491760611,-0.8378104220569134
1782814915960192300,1.155192138671875,-0.5986965455114841,0.4504226313203573,-0.6748989837694913
1782814915980275200,1.175275146484375,-0.6952963865667581,0.6762962102815508,-0.13716266452483833
1782814916000358100,1.195358154296875,-0.5535451521426439,0.8766341467741876,0.3015842881795019
1782814916020441300,1.21544140625,-0.5568406865566968,0.9958438790444284,0.35254875174127515
1782814916040524300,1.235524169921875,-0.539091094854474,0.8948576395984739,0.23648064196500926
1782814916060607200,1.255607177734375,-0.2646913853943348,0.704560547061637,0.20202672982979564
1782814916080690200,1.275690185546875,0.22106910128891466,0.482946159914881,0.20679135041572153
1782814916100773000,1.295773193359375,0.7866630031436681,0.22004487280771134,0.11074121566507965
1782814916120856300,1.315856201171875,1.2686094844967126,-0.13263795364201067,-0.12308885699221864
1782814916140939300,1.335939208984375,1.5471552077203987,-0.5242611899912357,-0.1953159070795402
1782814916161022200,1.356022216796875,1.6234961046010254,-0.6833306389629841,-0.17534030989091842
1782814916181105200,1.376105224609375,1.5010007747888565,-0.8133174935743213,-0.06198028089641593
1782814916201188000,1.39618798828125,1.1399912878900766,-0.8252668745651841,0.12113316548033616
1782814916221271300,1.416271240234375,0.8328548454761505,-0.7105965392902494,0.44733770744968204
1782814916241354200,1.436354248046875,0.4870756609350443,-0.7297554132685065,0.7437114579066634
1782814916261437200,1.456437255859375,0.14803776734769344,-0.9737707250546663,0.8886557162184268
1782814916281520000,1.47652001953125,-0.19500468570590018,-1.3069742864653466,0.8607695651009678
1782814916301603000,1.49660302734375,-0.4955079737156629,-1.5616023968763648,0.843361334182322
1782814916321686300,1.516686279296875,-0.8081482742428779,-1.6558981987729668,0.9356951883561908
1782814916341769200,1.536769287109375,-1.2450924153089522,-1.7330916208297014,0.9673029903452843
1782814916361852200,1.55685205078125,-1.8387766856163739,-1.6512851520195602,0.7775066869374364
1782814916381935000,1.57693505859375,-2.49759715270102,-1.6050608687222003,0.5202026353154331
1782814916402019300,1.597019287109375,-2.6595272518008946,-1.3667162229835987,0.14955334127610548
1782814916422102300,1.617102294921875,-3.037418315395713,-1.1454499916873873,-0.06563001730930991
1782814916442185200,1.637185302734375,-3.104274175572395,-0.7082818326070904,-0.3956965502027422
1782814916462268200,1.65726806640625,-2.655225755214691,-0.30400172458477315,-0.5206194724880159
1782814916482351400,1.677351318359375,-1.838662703847885,-0.1366075879253447,-0.529647047748044
1782814916502434300,1.697434326171875,-1.071078495183587,-0.04277954967096448,-0.728198100823909
1782814916522517200,1.717517333984375,-0.6211386789441108,0.2354818036533892,-0.8664660231769085
1782814916542600200,1.73760009765625,-0.3519382916927337,0.4811418869718909,-0.9058796035461127
1782814916562683100,1.75768310546875,-0.21238602861762046,0.6312754575550555,-0.8574482386585325
1782814916582766300,1.777766357421875,-0.24932956561148165,0.9752652744613587,-0.8830334193572401
1782814916602849300,1.797849365234375,-0.4575508757650852,1.343827076435834,-0.803424168330431
1782814916622932200,1.81793212890625,-0.6816542301833629,1.8129213827393948,-0.6688403413176536
1782814916643015200,1.83801513671875,-0.4328203391343355,2.2415932238921523,-0.4409442800855264
1782814916663098000,1.85809814453125,0.2986503536194563,2.485145375145972,-0.1866887841128744
1782814916683181300,1.878181396484375,1.1752198376595973,2.4718188605830074,0.006033234015945345
1782814916703264300,1.89826416015625,2.084922360494733,2.2829724052459,0.11639253769135102
1782814916723348200,1.91834814453125,2.7443700195670124,1.9427970320612191,0.32996278939116747
1782814916743431200,1.93843115234375,3.017495471307635,1.6002090447768569,0.50841812603008
1782814916763514400,1.958514404296875,2.7965461970061063,1.38360159907192,0.5821759110823274
1782814916783597300,1.978597412109375,2.1601608490914104,1.3598825775712728,0.49356940686851736
1782814916803680300,1.99868017578125,1.399993054163456,1.2008362172141671,0.36787243147082627
1782814916823763200,2.01876318359375,0.5086036021322011,1.0461214563205838,0.23609220890300348
1782814916843846100,2.03884619140625,-0.38484687408208845,1.072205161125958,-0.050929319183155894
1782814916863929300,2.058929443359375,-0.9824725754916668,1.276240417766571,-0.15394059818331152
1782814916884012300,2.07901220703125,-1.0813093818187713,1.429205996905267,0.14978815467897802
1782814916904095200,2.09909521484375,-0.9484814585626125,1.4452777185231447,0.5516688734093681
1782814916924178200,2.11917822265625,-0.6382727690964937,1.3925789785146712,0.7988230312105268
1782814916944261000,2.13926123046875,0.0003828618377447128,1.2032187284365297,0.8546559045262634
1782814916964345000,2.159344970703125,0.6185211899220943,0.9378829076588153,0.9150448337111622
1782814916984428300,2.17942822265625,0.8804922104418277,0.6514193970479071,0.9520665505077689
1782814917004511200,2.19951123046875,0.8495312549889087,0.4414912829764187,0.8916302750498056
1782814917024595000,2.219594970703125,0.5459621496677398,0.2904495115071535,0.8044414556141942
1782814917044678000,2.239677978515625,0.192798700094223,0.17759367830827832,0.7384315447423606
1782814917064761000,2.259760986328125,0.09003273762464523,-0.055980245897173875,0.6751111652154475
1782814917084844000,2.279843994140625,0.16456687734425066,-0.33500834581032396,0.52347456965819
1782814917104927000,2.299927001953125,0.0487029483705759,-0.6267626563057304,0.37337891993261874
1782814917125010000,2.320010009765625,-0.20559446878135204,-0.7508638138793409,0.1628372222737409
1782814917145092900,2.3400927734375,-0.4667378063052892,-0.8449168930612504,0.013641060404852032
1782814917165176000,2.360176025390625,-0.7030179207295179,-0.9142281835660337,-0.10050495873503386
1782814917185259000,2.380259033203125,-1.1081652400404214,-0.9917997912853955,-0.16693298542108387
1782814917205342000,2.400342041015625,-1.5122113201111553,-1.0112610092110932,-0.1700750097738579
1782814917225425000,2.4204248046875,-1.5657634620785712,-0.9388616164978593,-0.20510233788285404
1782814917245507800,2.4405078125,-1.1449807667404412,-0.9709719611816108,-0.05179952614642679
1782814917265591000,2.460591064453125,-0.7765595422804356,-1.0144484801407903,0.10378962469520046
1782814917285675000,2.480675048828125,-0.6780851395249367,-0.9666013448819517,0.1402300892714411
1782814917305758000,2.500758056640625,-0.44927170771956443,-0.9163247905191033,0.22289419782422482
1782814917325841000,2.5208408203125,-0.25273674370646476,-0.902446560357511,0.32106581824086605
1782814917345924000,2.540924072265625,-0.14008593156039714,-0.9234405408084392,0.424438697095029
1782814917366007000,2.561007080078125,-0.09390519514381886,-0.9937775941643864,0.6944501450009644
1782814917386090000,2.581090087890625,0.1519482187896967,-1.0728666207093744,0.9437621749557554
1782814917406173000,2.6011728515625,-0.24296704484224318,-0.9873719649057835,1.0199681934103368
1782814917426256100,2.621256103515625,-0.9842384161204099,-0.7375404411215335,0.9656912442997098
1782814917446339000,2.641339111328125,-1.551690513062477,-0.2978197480142116,0.7306156102944165
1782814917466422000,2.661422119140625,-1.8768173701971769,-0.01582994875125587,0.5416196269514039
1782814917486505000,2.6815048828125,-1.8524007218211889,0.05648110809139907,0.3506116827314719
1782814917506588000,2.701587890625,-1.4651064545869827,0.12102730308622121,0.1113780248644296
1782814917526671000,2.721671142578125,-1.0468033011049032,0.24389979564771055,0.04895405532112345
1782814917546755000,2.741755126953125,-0.5574690475881099,0.41673181251212954,0.02998840236002579
1782814917566838000,2.761838134765625,-0.04603460594415664,0.36611046329960223,0.06368731314316392
1782814917586921000,2.7819208984375,0.2521808633893728,0.3168739925742149,-0.21486962559428066
1782814917607004200,2.802004150390625,0.13874386930167673,0.36147739667147394,-0.5943285595603287
1782814917627087000,2.822087158203125,-0.13341010705828665,0.5103653511077165,-0.8468313483804464
1782814917647170000,2.842170166015625,-0.19059388352632523,0.7370714353702962,-0.8294889492396265
1782814917667253000,2.8622529296875,0.02968377512395382,1.0691485500343143,-0.8431640580445527
1782814917687336000,2.8823359375,0.4866425302147865,1.248200025935471,-0.7597985962893813
1782814917707419100,2.902419189453125,1.0332838943183422,1.380757315556705,-0.6529368158735335
1782814917727502000,2.922502197265625,1.6336545105218887,1.452063725401461,-0.5152244815766811
1782814917747585000,2.9425849609375,2.0878636746436356,1.4365522680148481,-0.33344898753911256
1782814917767668000,2.96266796875,2.4613345837086436,1.290375033842027,-0.1424257544185035
1782814917787752200,2.982752197265625,2.691318812859058,1.0771782733634114,-0.002549830613285303
1782814917807835100,3.002835205078125,2.5118846212506294,0.8569047063663602,-0.030019765612669287
1782814917827918000,3.02291796875,2.2151339637726544,0.774201288716495,-0.2427329438254237
1782814917848001000,3.0430009765625,1.5540852992445229,0.7147890225440263,-0.45436833673883226
1782814917868084000,3.063083984375,0.498562685111165,0.6670180943265557,-0.45422655364796516
1782814917888167200,3.083167236328125,-0.9849456876069307,0.842492150132358,-0.42172308146078136
1782814917908250000,3.10325,-2.2703899870485067,1.004056776920706,-0.45330169388800856
1782814917928333000,3.1233330078125,-2.36592833635211,0.8597488437511026,-0.21624471333976833
1782814917948416000,3.143416015625,-1.4225374789267777,0.5521658266134559,0.11715265360996126
1782814917968499200,3.163499267578125,-0.42107086462974547,0.15599457157105207,0.10192110914327204
1782814917988582100,3.18358203125,0.18194880477786063,-0.23753961296603082,-0.1495929609004408
1782814918008665000,3.2036650390625,0.46427463106215,-0.6002307693414389,-0.3011737711498514
1782814918028749000,3.2237490234375,0.59476914293468,-0.7957983496271074,-0.40462377036083486
1782814918048832300,3.243832275390625,0.7701549359351396,-0.960201999233663,-0.4108546275744214
1782814918068915200,3.263915283203125,0.817128284034133,-1.085795587322116,-0.33747236130367964
1782814918088998100,3.283998046875,0.5902379292458295,-1.1503913936123251,-0.3174744426853955
1782814918109081000,3.3040810546875,0.16014672281444073,-1.179672871545702,-0.3870345933847129
1782814918129164300,3.324164306640625,-0.44507308698594567,-1.177297082325071,-0.4322100617488846
1782814918149247200,3.344247314453125,-0.7601859151065349,-1.0498971754670143,-0.513133902505599
1782814918169330200,3.364330078125,-0.9526718959897756,-0.9880079977869987,-0.5314876341134309
1782814918189413000,3.3844130859375,-1.1808119585782288,-0.9724728672638535,-0.751547996751219
1782814918209496000,3.40449609375,-1.3924714264869689,-0.9558860357306898,-1.0164471796773373
1782814918229580300,3.424580322265625,-1.1656985605984926,-0.9625490007512271,-1.171870819492638
1782814918249663200,3.444663330078125,-0.5798462990909814,-1.011965211957693,-1.2462731495261192
1782814918269746200,3.46474609375,0.028537527698278425,-0.9321516705304383,-1.1524369279652833
1782814918289829000,3.4848291015625,0.4879594580322504,-0.8293398230925202,-0.8447368603192269
1782814918309912300,3.504912353515625,0.7377098794043063,-0.6075919457592069,-0.5868684162801131
1782814918329995300,3.524995361328125,0.6887573401868343,-0.4615557274922728,-0.6099675523167476
1782814918350078200,3.545078125,0.5711106194496155,-0.3605027064204216,-0.880141935699433
1782814918370161200,3.5651611328125,0.16671148815751075,-0.3647806760005653,-0.32453853585273024
1782814918390244000,3.585244140625,0.003573182311654091,-0.21433847785964608,-0.20543737852349875
1782814918410327300,3.605327392578125,-0.09686755208075046,-0.26139745841547846,0.024030352472141383
1782814918430410200,3.62541015625,0.5640852508574724,-0.21721564073115585,-0.3742090871464461
1782814918450494000,3.645493896484375,0.18295476695001126,-0.34288200179487466,-0.9389602545667439
1782814918470577000,3.665576904296875,-1.6784499300599096,0.08570055363923311,-1.016530181785673
1782814918490660000,3.68566015625,-3.2038258521705862,0.9387829252384603,-0.6692126817613839
1782814918510743000,3.705742919921875,-3.5308822160631417,1.2354589100450277,-0.007547054378688335
1782814918530826000,3.725825927734375,-2.187668449220061,1.2836699832454324,0.152316394514963
1782814918550909000,3.745908935546875,-0.44336277593672274,0.6955014076195657,0.563744109269604
1782814918570991900,3.765991943359375,0.19329379013478754,0.2949631895393133,0.6050296940557658
1782814918591075000,3.786074951171875,-0.044292146191000935,0.491187626298517,0.19013890630044042
1782814918611158000,3.806157958984375,-0.9967764106541871,0.9071895171009003,0.05035425924155861
1782814918631241000,3.826240966796875,-1.3468465703874826,1.259765814436227,0.33558428253475575
1782814918651325000,3.846324951171875,-0.8006313227415084,1.4361492401719091,0.8630842717841267
1782814918671408000,3.866408203125,0.553841504740715,1.543566243317723,1.2146045572604984
1782814918691491000,3.886490966796875,1.8796242443114517,1.3919818894043563,1.4841788193255663
1782814918711574000,3.906573974609375,2.8870056356102225,1.295136256894469,1.5653874683730302
1782814918731657000,3.926656982421875,3.345099532210827,0.8554080380678176,1.5555452887944876
1782814918751740200,3.946740234375,3.587598375019431,0.3915805662512779,1.5236564048416912
1782814918771823000,3.966822998046875,3.2316362346380947,0.04617255311012268,1.2831199481472373
1782814918791906000,3.986906005859375,2.5391350317478176,-0.3192906983271241,0.5856015016168356
1782814918811989000,4.006989013671875,1.1468734486192464,-0.9747916656002402,0.13051924445498733
1782814918832072000,4.027072021484375,-0.8527128076344728,-1.1631959301277994,0.11709577232357114
1782814918852156200,4.04715625,-2.473172905540466,-0.6912551483519375,0.41371443745233116
1782814918872239000,4.067239013671875,-3.1781723554760215,0.06202157188802957,0.7584991310633719
1782814918892322000,4.087322021484375,-3.4120722967654467,0.5571968065179884,1.2824556390196085
1782814918912405000,4.107405029296875,-3.133842215362191,0.7689302164457738,1.69226919657588
1782814918932488200,4.12748828125,-2.340646011057496,0.8268291554458439,1.880489044447243
1782814918952571100,4.147571044921875,-0.9896171865493059,0.5920847261562943,1.6087937716402112
1782814918972653300,4.1676533203125,0.32238077329695225,0.199988319337368,1.1425457946784794
1782814918992736300,4.187736328125,1.341217040067911,-0.25728885405287144,0.5513185621343553
1782814919012819500,4.2078193359375,1.6764999650359154,-0.6813935334205627,0.006285363879799843
1782814919032902400,4.22790234375,1.3657640368252992,-0.8701346286870538,-0.41233438127078115
1782814919052986400,4.247986328125,0.7811620676398277,-0.633442718591541,-0.583410640509054
1782814919073069300,4.2680693359375,0.039565702190995214,-0.1883551646888256,-0.525888097073324
1782814919093152500,4.288152587890625,-0.7077449492514133,0.10350085261538625,-0.48141105930209155
1782814919113235500,4.3082353515625,-1.174231995666027,0.2869108159869909,-0.4899435810541734
1782814919133318400,4.328318359375,-1.2307102542132138,0.4659387648820877,-0.616648527918011
1782814919153401300,4.3484013671875,-0.5834060373991727,0.42052258309721946,-0.6375158132493496
1782814919173484300,4.368484375,0.38404198743999,0.33600919341593977,-0.3775793672971427
1782814919193567500,4.3885673828125,1.1077303557544946,0.23431027565598486,-0.07935894779385998
1782814919213650400,4.408650390625,1.2930816624522208,0.17380056963562965,0.09327340004630386
1782814919233733400,4.4287333984375,1.5550129354834556,0.01177402442395687,0.19559952806020153
1782814919253817300,4.4488173828125,1.8105062844216822,-0.4044853482708335,0.3341562224930152
1782814919273900500,4.468900634765625,1.6175094314068554,-0.8418751872777939,0.3197145862950012
1782814919293983500,4.4889833984375,1.2122989837318658,-0.8738070335894823,0.318471710094437
1782814919314066400,4.50906640625,0.785945210263133,-0.8844549765929579,0.4522876945398748
1782814919334149400,4.5291494140625,0.44386195763051506,-0.7819806905463338,0.46952407602295276
1782814919354232600,4.549232666015625,-0.08237783895730971,-0.6527151359468698,0.6422640306897461
1782814919374315500,4.5693154296875,-0.1939841104865074,-0.5625583335511386,0.6594276391975581
1782814919394398500,4.5893984375,-0.16381284410655497,-0.5562989808954298,0.8115384281378238
1782814919414481400,4.6094814453125,-0.2747948462575674,-0.5415219752632081,0.9077394791338592
1782814919434565600,4.629565673828125,-0.4403828833431005,-0.33294995197579264,0.7554549410618842
1782814919454648600,4.649648681640625,-1.0525520738899707,-0.23431641313582657,0.8203832672420889
1782814919474731500,4.6697314453125,-2.0200743330091235,-0.0833450765542686,0.7724706655316055
1782814919494814500,4.689814453125,-2.4275503875285387,0.19653496401309967,0.7044087905660271
1782814919514897400,4.7098974609375,-2.0070178675591945,0.3117944973528385,0.7665887678861617
1782814919534980600,4.729980712890625,-0.8798276090532541,0.30253377092406153,0.7936206402618438
1782814919555063600,4.7500634765625,-0.08917875114381313,0.17325915623530744,0.5659549171868712
1782814919575146500,4.770146484375,0.03580371930897236,0.09638590604364872,0.2389074124542065
1782814919595229400,4.7902294921875,-0.016531448084115982,0.27834873934686183,-0.11361661583776585
1782814919615312400,4.8103125,-0.1342003806531429,0.49446504053398965,-0.14484763867002912
1782814919635396600,4.830396728515625,-0.11633388457298278,0.8631634745001793,-0.11558522163014859
1782814919655479600,4.8504794921875,-0.02171031202673912,1.1267056898593901,-0.05833417947902344
1782814919675562500,4.8705625,0.08128887467682361,1.1502271429613231,-0.13996435100734234
1782814919695645400,4.8906455078125,0.22149346418082713,1.0560786405809224,-0.5200277536725625
1782814919715728600,4.910728759765625,0.4002513639628887,0.9465667109824717,-0.814455557693541
1782814919735811600,4.9308115234375,0.6050257485330105,0.879262668646872,-1.0448562586903571
1782814919755894500,4.95089453125,0.9223819716662168,0.8532390234656632,-1.044044869242236
1782814919775977500,4.9709775390625,1.2488292637497187,0.9111179425910114,-0.9761104200486094
1782814919796060400,4.991060302734375,1.3819459408193826,0.9403468135543167,-0.852057850857079
1782814919816144400,5.011144287109375,1.1874889521241188,0.9108522773921489,-0.6689268505573273
1782814919836227300,5.031227294921875,0.9244371506303548,0.8885070284627378,-0.43622868627309797
1782814919856310300,5.051310302734375,0.8574895205169916,0.7995026109725236,-0.25794286098219454
1782814919876393500,5.0713935546875,0.806323981425166,0.5974577974967659,-0.1108462469421327
1782814919896476400,5.091476318359375,0.7015981170594692,0.34000213550962505,0.02645275731347501
1782814919916559400,5.111559326171875,0.6466396154254674,0.06294029416814446,0.056151583876088255
1782814919936642300,5.131642333984375,0.5490174455851317,-0.22839038408771156,0.10531557388715446
1782814919956725200,5.151725341796875,0.2986947772830725,-0.4729699056278914,0.1969100078705698
1782814919976808400,5.171808349609375,-0.1468593712180853,-0.6364745605681091,0.23337452917583285
1782814919996891400,5.191891357421875,-0.5545090287387371,-0.8097166195381432,0.15887041926831005
1782814920016975400,5.211975341796875,-1.1003595347255468,-1.0146145574226975,0.23809271680414676
1782814920037058600,5.23205859375,-1.7570272076904774,-1.0684381367426365,0.312697145280987
1782814920057141500,5.2521416015625,-2.1033155107975006,-0.9043502020217478,0.3739824387837201
1782814920077224400,5.272224365234375,-1.9980998170882462,-0.7272270638346672,0.39223566915914415
1782814920097307400,5.292307373046875,-1.5457242981344461,-0.7382585993282497,0.5518826257579028
1782814920117390300,5.312390380859375,-1.2696627929419277,-0.7568306133292615,0.6055983607891947
1782814920137473500,5.3324736328125,-0.7398129891633987,-0.7218405484907329,0.6871555310133844
1782814920157556500,5.352556396484375,-0.23072891003787516,-0.6093109150389209,0.6299917744200676
1782814920177639400,5.372639404296875,0.13006956445872783,-0.5574158560961484,0.5403996201697737
1782814920197722400,5.392722412109375,0.3616156360983848,-0.5055644170993939,0.26737945543453095
1782814920217805300,5.412805419921875,0.5537976655989885,-0.5339384613316506,-0.015875760654360055
1782814920237888500,5.432888427734375,0.7747212209373712,-0.5022171159654856,-0.2227496747869998
1782814920257971500,5.452971435546875,0.6878951703995466,-0.429459119072929,-0.4059489910826087
1782814920278054400,5.473054443359375,0.4009101201325655,-0.4880783351715654,-0.5752848363943398
1782814920298138400,5.493138427734375,0.04878945761024952,-0.43975481457263227,-0.7159805704161525
1782814920318221600,5.5132216796875,-0.08154723335206508,-0.3257326410081237,-0.6761989604521542
1782814920338304500,5.533304443359375,0.1233130759358406,-0.39688232592120765,-0.4804579232957214
1782814920358387500,5.553387451171875,0.26427462128698825,-0.4504746537685394,-0.4862955434080213
1782814920378470400,5.573470458984375,-0.07298515671193599,-0.5986502952169627,-0.39640520992875095
1782814920398553300,5.59355322265625,-0.437265628105402,-0.5696630509898066,-0.5645999223813414
1782814920418636500,5.613636474609375,-0.7575736867815256,-0.606714797598496,-0.5410454437926411
1782814920438719500,5.633719482421875,-1.2390730088889599,-0.44132666699923573,-0.4512042101521045
1782814920458803500,5.653803466796875,-1.7940566694021225,-0.16987572434209286,-0.3904085998624563
1782814920478886400,5.673886474609375,-1.9699474893152713,-0.009115472739189863,-0.24143632814362645
1782814920498969600,5.693969482421875,-1.8356798886448145,0.06036087213419378,-0.029271687191724776
1782814920519052500,5.714052490234375,-1.5424240875452755,0.2188354970179498,0.0745932494957
1782814920539135500,5.734135498046875,-1.0814917526483536,0.3955746773887425,0.07753894755877554
1782814920559218400,5.754218505859375,-0.5545680654495955,0.5543175247546285,0.05076024622656405
1782814920579301600,5.774301513671875,-0.06410334659814834,0.7211807694077491,0.01109488305337727
1782814920599385600,5.794385498046875,0.2812473833978176,0.8396500585742295,-0.04966163733489811
1782814920619468500,5.814468505859375,0.44733694026470183,0.9058521310172974,-0.0773443017695099
1782814920639551500,5.834551513671875,0.5381938537538051,1.0319054455719887,-0.19881591455712913
1782814920659634700,5.854634765625,0.645883244100213,1.1865591239280997,-0.3460661847889423
1782814920679717600,5.874717529296875,0.9082295276731253,1.3274021574661135,-0.4140025336787104
1782814920699800600,5.894800537109375,1.1185270595788954,1.4255897061042486,-0.4615640569292009
1782814920719883500,5.914883544921875,0.9954629899680614,1.4323229598820209,-0.48615872875321653
1782814920739966500,5.934966552734375,0.9300549905121326,1.4340133971869944,-0.4252931950325146
1782814920760050400,5.955050537109375,0.7938590521275997,1.4452818101763725,-0.2514958402672782
1782814920780133400,5.97513330078125,0.6822855138242244,1.557026028871536,-0.31619086914826183
1782814920800216300,5.99521630859375,0.5754086089044809,1.5607865504488347,-0.34824619570914656
1782814920820299300,6.01529931640625,0.22537761213779448,1.6482710648953913,-0.46656069617271423
1782814920840382500,6.035382568359375,-0.2488093411296606,1.5888596755057571,-0.4520572467848658
1782814920860465400,6.05546533203125,-0.8354530452758073,1.4954888794995844,-0.24049464511303228
1782814920880548400,6.07554833984375,-1.1187509314626454,1.6590978715971112,-0.06792906063245609
1782814920900631600,6.095631591796875,-0.683759678030014,1.7007015093564986,0.17274799184277653
1782814920920715500,6.115715576171875,0.1738327183395624,1.4356787000507116,0.21459413312114775
1782814920940798500,6.135798583984375,0.9979565603494643,0.972745108333975,0.20666818069377912
1782814920960881400,6.15588134765625,1.553525911796093,0.5232062741108239,0.1910350696888752
1782814920980965000,6.175965087890625,1.7146674908667803,0.07997472333833575,0.20859788838103413
1782814921001048000,6.196048095703125,1.5024538962066172,-0.2441924949839711,0.13076246036002412
1782814921021131000,6.216131103515625,1.0671984388798474,-0.49805941176414487,0.15788960980372502
1782814921041214000,6.2362138671875,0.5068734173387289,-0.6185527541041373,0.23614614931363612
1782814921061297200,6.256297119140625,-0.03363163596689701,-0.6688974783323705,0.33227095673568546
1782814921081381000,6.276381103515625,-0.46631344341337677,-0.6722567256323992,0.4001149511668831
1782814921101464000,6.296464111328125,-0.7296288642793893,-0.6700102618798613,0.4515524756005034
1782814921121547300,6.31654736328125,-0.7412550046652555,-0.7793769377887249,0.576908601671271
1782814921141630200,6.336630126953125,-0.7117898407280445,-0.8478025315001606,0.6378679876878858
1782814921161713200,6.356713134765625,-0.6532815376579761,-0.9999110554181039,0.603443155516684
1782814921181796000,6.376796142578125,-0.5637602566868066,-1.1320524577148259,0.48558757780175654
1782814921201879000,6.396879150390625,-0.495265397131443,-1.3302112235374748,0.39626214819625016
1782814921221962200,6.416962158203125,-0.39026539199948307,-1.3593972782723605,0.27703813167233016
1782814921242046200,6.437046142578125,-0.4615776470631361,-1.352714877898991,0.055528593139536675
1782814921262129200,6.457129150390625,-0.6085217739552259,-1.353623224915564,-0.08333777916380204
1782814921282212000,6.477212158203125,-0.6598702683985233,-1.2981564814984798,-0.02798998138469178
1782814921302295300,6.49729541015625,-0.6230722773551941,-1.2024462827593088,0.24329828609060494
1782814921322378200,6.517378173828125,-0.7289268534898757,-0.994707349295169,0.46520774719379837
1782814921342461200,6.537461181640625,-0.8661655789256095,-0.8166744027867913,0.46571580631379034
1782814921362544000,6.557544189453125,-0.8127338484674692,-1.038366312149167,0.5355062221050262
1782814921382627000,6.577626953125,-0.3034901948660612,-0.9672058866463601,0.30096957208095115
1782814921402711000,6.5977109375,-0.47602761269807814,-1.000960856731981,0.1562332026325166
1782814921422794000,6.6177939453125,-0.7281979546934366,-0.9459754670910536,-0.13993312475201672
1782814921442877000,6.637876953125,-0.5629974556207656,-0.830874046922475,-0.3872707402281463
1782814921462960000,6.657960205078125,-0.5137772053778171,-0.6121360189296304,-0.49837658795453604
1782814921483043000,6.67804296875,-0.9059621672630309,-0.10755334287658333,-0.5455660264896228
1782814921503126300,6.698126220703125,-1.3161258534312248,0.4910381348252296,-0.3348048956600949
1782814921523209200,6.718209228515625,-1.4026701644182205,0.9568518120229244,0.006503244414180517
1782814921543292200,6.738292236328125,-0.8386649930596352,1.2390518199704588,0.4559801193170249
1782814921563376000,6.758376220703125,-0.010345452925562859,1.4137953695446253,0.7388584649175405
1782814921583459000,6.778458984375,0.6172557000309229,1.4339603518255055,0.7944332718189805
1782814921603542000,6.7985419921875,0.9162988523602486,1.3663804151579737,0.6125483260575681
1782814921623625000,6.818625,0.8016594967454671,1.3921620682768523,0.16887297704033552
1782814921643708000,6.8387080078125,0.7015846730560064,1.362825791416317,-0.2058031248296611
1782814921663791000,6.858791015625,0.6106412503272295,1.3520765799954533,-0.2636803086556494
1782814921683874000,6.8788740234375,0.5965823298364877,1.5475575049109755,-0.3128605191491544
1782814921703957000,6.89895703125,0.7936492087692022,1.6674502510093152,-0.1880448748969473
1782814921724041200,6.919041259765625,0.9703484224557876,1.6780134383387864,-0.036641270678234285
1782814921744124200,6.939124267578125,1.061163834890723,1.5928637965805827,-0.028933004705712664
1782814921764207000,6.95920703125,1.2778671421855687,1.3472072203934191,-0.020180175283434798
1782814921784290000,6.9792900390625,1.4380115269124507,1.0065892180077731,-0.059620072837406765
1782814921804373000,6.999373046875,1.213518296393752,0.5661883606165647,-0.1886766151955351
1782814921824456200,7.019456298828125,0.6767378165692091,0.1684974947914481,-0.5017208203485235
1782814921844539100,7.0395390625,0.07524374929368495,-0.04474529678598046,-0.6342468745812774
1782814921864622000,7.0596220703125,-0.667825026795268,-0.06682108112424612,-0.43989623233731834
1782814921884706000,7.0797060546875,-1.4783610729575156,0.07815086891204118,0.006440152582712471
1782814921904789200,7.099789306640625,-1.9400170459538697,0.26980624419003724,0.39789913828093554
1782814921924872200,7.1198720703125,-1.631257386252284,0.24766981570571658,0.7125191779159009
1782814921944955100,7.139955078125,-0.9284206673085689,0.029928689795732495,0.7832929421886802
1782814921965037800,7.160037841796875,-0.43111938043534753,-0.21184008517265318,0.5186702381163836
1782814921985121000,7.18012109375,-0.09881634806096554,-0.4120370788246393,0.28157595776505767
1782814922005204000,7.200203857421875,-0.012829670956730842,-0.49501653693690895,0.21793653888422995
1782814922025287000,7.220286865234375,-0.15188041425049303,-0.38089623676016926,0.2246197429751977
1782814922045371100,7.24037109375,-0.2155342635154724,-0.23851108834668994,0.17622125744391232
1782814922065454000,7.2604541015625,-0.20988427492976186,-0.08707885625511408,0.19614819318521767
1782814922085537000,7.280537109375,-0.24930735377967356,0.02422097967341542,0.17924780219085512
1782814922105620000,7.300619873046875,-0.35647359703481196,0.055105362758785484,0.14325950182890518
1782814922125703000,7.320702880859375,-0.27019641255140303,0.05197919356226921,0.11445629066545515
1782814922145786000,7.3407861328125,-0.12349778485298156,-0.014172756128758192,0.1274540847307071
1782814922165869000,7.360869140625,0.1414730020046234,-0.07072510282546281,0.1904299068699591
1782814922185952000,7.380951904296875,0.3511784132361412,-0.1531701618000865,0.25583880137503145
1782814922206036000,7.401035888671875,0.29301965425610543,-0.2788715941771865,0.15627126962058246
1782814922226119200,7.421119140625,0.1667658486932516,-0.21726021052524447,-0.04086288412837311
1782814922246202000,7.4412021484375,0.16400924346148968,-0.15277005656659604,-0.14864378868313505
1782814922266285000,7.46128515625,0.372782926800847,-0.15600845396593213,-0.026235059442184863
1782814922286368000,7.481367919921875,0.48588148271441456,-0.10156067833304405,0.09403172586662695
1782814922306451000,7.501450927734375,0.5860083288520574,-0.10430515473559498,-0.04085157728306949
1782814922326534100,7.5215341796875,0.7522446007132529,-0.2770294734418392,-0.26394555372940376
1782814922346617000,7.5416171875,0.6956231343030929,-0.4781706160761416,-0.4169583512770012
1782814922366700800,7.56170068359375,0.28181203154325485,-0.42844621570333835,-0.493375199470669
1782814922386783700,7.58178369140625,-0.1772749677479267,-0.37150516194999217,-0.5460639295417815
1782814922406867000,7.601866943359375,-0.41640930255949493,-0.34405250687897204,-0.6316979207508265
1782814922426950000,7.621949951171875,-0.6380214246839284,-0.49112902797907587,-0.7678916671782732
1782814922447032800,7.64203271484375,-0.5232844539135694,-0.7893297381348907,-0.70431482867226
1782814922467115800,7.66211572265625,0.07491875512301921,-0.8690178996168076,-0.8068699248701333
1782814922487198700,7.68219873046875,-0.2703694310307503,-0.8614927648089825,-0.868300983519107
1782814922507282000,7.702281982421875,-0.9964718747496605,-0.4601544823922217,-0.8437010875307023
1782814922527366000,7.722365966796875,-0.9940525386482476,0.08321940434798598,-0.6071930095694958
1782814922547448800,7.74244873046875,-0.362169178327918,0.19656170588955282,-0.1905420985401608
1782814922567531800,7.76253173828125,0.14877484945058822,0.014881488920003174,-0.16255206692311913
1782814922587615000,7.782614990234375,0.3667582596838474,-0.1048521210938692,-0.45277767001390457
1782814922607698000,7.802697998046875,0.464793101978302,-0.039932635807245966,-0.7366995333179831
1782814922627780900,7.82278076171875,0.310351897329092,0.09271905409917235,-0.7799465543702244
1782814922647863800,7.84286376953125,0.04908697925209999,0.28708193477019667,-0.5968914323182776
1782814922667947000,7.862947021484375,-0.08444003218412399,0.36374358803778883,-0.4115087441015988
1782814922688031000,7.883031005859375,-0.09594576106071472,0.3888628317251801,-0.4324944316482171
1782814922708114000,7.903114013671875,0.0784486828148365,0.24981486491039395,-0.4807833558578044
1782814922728196900,7.92319677734375,0.19503624988794327,0.17225597054213285,-0.4776406739179045
1782814922748280000,7.943280029296875,0.10943827984035015,0.27399039800688624,-0.4812791034854948
1782814922768363000,7.963363037109375,-0.1404009888589382,0.45468949498459693,-0.48910424415320153
1782814922788446000,7.983446044921875,-0.4069271884649992,0.5875578963816166,-0.4761571573618799
1782814922808529000,8.00352880859375,-0.43764206020236013,0.6868922769673168,-0.4683821759788319
1782814922828613000,8.023613037109374,-0.22974808230698107,0.6883963979199528,-0.4701221149813384
1782814922848696000,8.043696044921875,-0.040133857467770574,0.5419647505946457,-0.3576451615648344
1782814922868779000,8.063779052734375,0.19802491030991076,0.46573885839581486,-0.3235639917321503
1782814922888862000,8.083862060546876,0.4828133273154497,0.38697409536913036,-0.178728929415904
1782814922908945000,8.10394482421875,0.6884884601175785,0.47135874410420653,-0.04928059299490414
1782814922929028000,8.124028076171875,0.8647299931645392,0.4485306800939142,0.10561689492128788
1782814922949111000,8.144111083984376,0.7547241425693034,0.36991350884437557,0.15795598957082255
1782814922969193700,8.16419384765625,0.48486324558258054,0.3936231779947877,0.17794428184423594
1782814922989278000,8.18427783203125,0.21992753003835677,0.4501506825111806,0.264342115298938
1782814923009361000,8.20436083984375,0.15388766241967677,0.4576232103489339,0.2810319140162319
1782814923029443800,8.22444384765625,0.15307400794923304,0.38339404492527246,0.32738486519455906
1782814923049526800,8.24452685546875,-0.04500935454964637,0.3134691525667906,0.3488662638362497
1782814923069609700,8.264609619140625,-0.37697804040312766,0.3306101108513772,0.1392702677959576
1782814923089693000,8.28469287109375,-0.9474947856128215,0.3012941461265087,0.054669501225324345
1782814923109776000,8.30477587890625,-1.558930401188135,0.3377940310060978,0.030187158068828282
1782814923129858800,8.32485888671875,-1.940434394583106,0.47316667030900716,-0.12133293496929108
1782814923149942500,8.344942626953125,-1.857989920130372,0.579649607475102,0.03481317390166223
1782814923170025700,8.365025634765624,-1.3280857558161019,0.703700350035727,0.24020715167485177
1782814923190108700,8.385108642578125,-0.4810141689389944,0.6419403516933322,0.3662487027265131
1782814923210191600,8.405191650390625,0.32940029667019843,0.4595166228801012,0.39426436197515574
1782814923230274600,8.425274658203126,0.9993091440021992,0.31631898903995753,0.37951300224084406
1782814923250357500,8.445357421875,1.3099883735895157,0.18382979621887205,0.3902771189698949
1782814923270440700,8.465440673828125,1.3882050012141465,0.12537702272832393,0.3185753896646201
1782814923290523600,8.485523681640625,1.3758388561159371,0.003876549172401428,0.3553343273391947
1782814923310607600,8.505607666015624,1.2117471950680017,-0.09863105462193489,0.35262616435904054
1782814923330690600,8.525690673828125,0.7984943107128143,-0.15857669701874255,0.3158518099196255
1782814923350773800,8.545773681640625,0.43580666146874425,-0.21933292514607308,0.11808131276220082
1782814923370856700,8.565856689453126,-0.012130582776665687,-0.33624475573748347,0.01577102163825184
1782814923390939600,8.585939697265625,-0.3436918568730354,-0.407671577091515,-0.10862089904285967
1782814923411022600,8.606022705078125,-0.42602936381995676,-0.5312440346159041,-0.15471706244852393
1782814923431105500,8.62610546875,-0.365259545558691,-0.6373394337691366,-0.1648094173958525
1782814923451188700,8.646188720703124,-0.3728232588112354,-0.6232672154054045,-0.16936371969934552
1782814923471272700,8.666272705078125,-0.5434650721549987,-0.6113016139321029,-0.09096329647302627
1782814923491355600,8.686355712890625,-0.8229565517961979,-0.5360575723774731,-0.08541421097852289
1782814923511438800,8.70643896484375,-0.9063456136226653,-0.49663902357220646,-0.15645981446262447
1782814923531521800,8.726521728515625,-0.6787433111727237,-0.577595159163326,-0.2665041704373434
1782814923551604700,8.746604736328125,-0.4570931951254606,-0.6825142080135643,-0.3444009184578433
1782814923571687700,8.766687744140626,-0.29563597423434257,-0.7468192146636545,-0.3743647160995751
1782814923591770600,8.7867705078125,-0.2451613400161266,-0.6956831939272582,-0.4940184658102691
1782814923611853800,8.806853759765625,-0.26630817294120784,-0.5556393479429185,-0.7024466967128217
1782814923631937800,8.826937744140626,-0.3609212240934372,-0.5564718532443046,-0.6511866112053394
1782814923652020700,8.847020751953124,-0.08041910610496997,-0.6464547603778541,-0.5864596528161317
1782814923672103700,8.867103759765625,0.15815291864871978,-0.6750009097740054,-0.8780088691934943
1782814923692187000,8.887186767578125,-0.230156663107872,-0.6829558143012225,-1.088638190336898
1782814923712269800,8.907269775390626,-1.0738298397183417,-0.2329994853183627,-1.2668000969871878
1782814923732352800,8.927352783203125,-1.9166770868986844,0.3840967863671481,-1.1174499318666755
1782814923752435700,8.947435791015625,-2.276568383422494,0.9075589349351822,-0.916268530287221
1782814923772518700,8.9675185546875,-1.8673831868976354,1.208729016290605,-0.549589071460627
1782814923792603000,8.987602783203124,-0.8092103505164384,1.0940639417126774,-0.2624953914537094
1782814923812685800,9.007685791015625,0.13836100746393204,0.8655499312452971,-0.16461857099886984
1782814923832768800,9.027768798828125,0.8539590083032846,0.9100364309646188,-0.0769298026844859
1782814923852851700,9.047851806640624,1.10986502969563,0.8418515141412616,0.04566339801158756
1782814923872935000,9.067934814453125,0.9950187533318996,0.8378158288843929,-0.01658734298981726
1782814923893017900,9.088017822265625,0.5551777217805385,0.8185238300457597,-0.1941947940951213
1782814923913100800,9.108100830078126,0.3072854954957962,0.849989520150423,-0.2519103758849203
1782814923933183700,9.128183837890624,0.3305149799138307,0.8524361826501786,-0.09859086874201893
1782814923953267700,9.148267822265625,0.5490992786496878,0.9710790748178958,0.20502764694513753
1782814923973351000,9.168350830078126,0.7258008304238319,1.3368303494162856,-0.07713679649867117
1782814923993433900,9.188433837890624,0.5411234774649143,1.3127328499920665,-0.056722132039349525
1782814924013516800,9.208516845703125,0.447812156561017,1.157332444921881,-0.003990750136598944
1782814924033599700,9.228599853515625,0.08472644791007042,0.9461553537026047,0.04288945805253461
1782814924053683000,9.248682861328126,-0.2690384746879339,1.0078279660224914,-0.17705874944766983
1782814924073766000,9.268765869140625,-0.2485994977712631,1.1454476535998284,-0.5179480978542939
1782814924093848800,9.288848876953125,-0.29474750096201896,1.0959645146369934,-0.885820492792502
1782814924113931800,9.308931884765625,-0.5977981353670359,1.0132638734661041,-1.229938539188355
1782814924134014700,9.3290146484375,-1.049518989804387,1.047431223744899,-1.5614403381824493
1782814924154099000,9.349098876953125,-1.1548989341646432,1.2000154023505747,-1.778303804475069
1782814924174182000,9.369181884765625,-0.6811509568363427,1.328362673061341,-1.8929370226100086
1782814924194264800,9.389264892578124,-0.12729659261405468,1.1671842691116034,-1.9850204091541468
1782814924214347800,9.40934765625,0.07077917110025882,0.8807941159978508,-2.125589594186842
1782814924234431000,9.429430908203125,0.0816162069350481,0.7617343135923147,-2.145097719994187
1782814924254514000,9.449513916015626,-0.027816812208294867,0.8046699306078254,-2.075029181381315
1782814924274596900,9.469596923828124,-0.20114099650382994,1.0937117672741412,-1.9397801684580742
1782814924294679800,9.4896796875,-0.23319033171534537,1.3450883285433053,-1.6053787024997175
1782814924314764000,9.509763916015626,-0.06099485918879509,1.3759082680903374,-1.1449633772142231
1782814924334847000,9.529846923828124,0.17916297345161436,1.3405622294209896,-0.8089592983648181
1782814924354930000,9.549929931640625,0.06873100639879703,1.2794054576687515,-0.7991608117975294
1782814924375012900,9.570012939453125,-0.19294950674176214,1.3590756451025605,-0.9517150336563587
1782814924395095800,9.590095703125,-0.416243298342824,1.4870229567103086,-0.8778040673363954
1782814924415179000,9.610178955078124,-0.6495213083416224,1.6771822482116518,-0.7768022649951278
1782814924435263000,9.630262939453125,-0.6914683527112007,2.0368612171590326,-0.48464434213489294
1782814924455346000,9.650345947265626,-0.5104553674787282,2.2252201812401413,-0.14230749833369627
1782814924475428900,9.670428955078124,-0.22015432453155517,2.229954954677075,0.21497575284987686
1782814924495512000,9.690511962890625,0.044726445955038066,1.9718553687632083,0.39042920425906774
1782814924515595000,9.710594970703125,0.1545966874718666,1.552570072375983,0.36430662874802944
1782814924535679000,9.730678955078124,0.2347621110767126,1.2093056471347807,0.4120798585204407
1782814924555762200,9.75076220703125,0.3343745779514313,1.0988253108955919,0.5603241082256659
1782814924575845000,9.77084521484375,0.30933950541615485,1.0003040002584458,0.7619440108202398
1782814924595928000,9.790927978515626,0.1386842480689287,0.947114407993108,0.8339834841798991
1782814924616011000,9.811010986328125,-0.06635434039533138,0.8184519338533282,0.8471852763846516
1782814924636094000,9.831093994140625,-0.4677116197735071,0.8146015420354902,0.8776673622794449
1782814924656177200,9.85117724609375,-0.8051543531239033,0.903682093501836,0.8855325426965951
1782814924676260000,9.871260009765624,-0.7831798372030258,0.8264573995240032,0.8873620962113141
1782814924696343800,9.89134375,-0.6152046127200126,0.822838770635426,0.9136458536334335
1782814924716426800,9.9114267578125,-0.2918330748200416,0.7493127850450575,0.9937962257996201
1782814924736510000,9.931510009765624,0.13611644340753554,0.45069896404370663,1.00178598244451
1782814924756593000,9.951593017578125,0.46590018643736836,0.20197423245757817,0.9370347663968801
1782814924776675800,9.97167578125,0.4926759651601314,0.03239771025776863,0.8853368739940226
1782814924796758800,9.9917587890625,0.20028291836977005,0.07421762111634016,0.7396721193879843
1782814924816841700,10.011841796875,-0.16932488552629946,0.19335034262761472,0.508797298073396
1782814924836926000,10.031926025390625,-0.37024376371204853,0.27771730957552787,0.24941066802367567
1782814924857009000,10.0520087890625,-0.5979407587081194,0.2902139491856098,0.06221057338779792
1782814924877091800,10.072091796875,-0.7200345219820737,0.3465338023006916,0.02924140165131539
1782814924897174800,10.0921748046875,-0.7406506090313196,0.3402978305205703,0.03617189503423869
1782814924917258000,10.112258056640625,-0.6799766523599624,0.4031149367004633,0.07439566283067688
1782814924937341000,10.1323408203125,-0.43677462971806524,0.4089411586359143,0.09712128937980159
1782814924957423900,10.152423828125,-0.07637830628156661,0.4310246878892183,0.09582608020380139
1782814924977506800,10.1725068359375,0.09817454302608966,0.40811785955429075,-0.044064219186641274
1782814924997590800,10.1925908203125,0.10385200414061546,0.42907954517081376,-0.3384097882842645
1782814925017673700,10.212673828125,0.6620142946898937,0.325571239901334,-0.0540111377812922
1782814925037757000,10.2327568359375,0.5971873099923134,0.13533873703330754,0.12856211903784423
1782814925057839900,10.25283984375,0.349638198056817,0.10445435394793748,-0.27556762072835117
1782814925077922800,10.2729228515625,0.32498131118416784,-0.1524741423599422,-0.5266116621075198
1782814925098005800,10.293005859375,0.1057540383696556,-0.01610445484369993,-0.5736153688121587
