time,seconds_elapsed,z,y,x
1782814954018300000,0.0652998046875,0.08958131819963455,0.42589548230171204,-0.47942978143692017
1782814954038381800,0.0853818359375,0.07254936546087265,0.3871813118457794,-0.2436472475528717
1782814954058465000,0.105465087890625,-0.015305083245038986,0.1734241545200348,-0.036301057785749435
1782814954078548000,0.1255478515625,-0.07512430846691132,-0.09242115169763565,0.1469094455242157
1782814954098631000,0.145630859375,-0.020074404776096344,-0.4026285409927368,0.21756760776042938
1782814954118712800,0.165712890625,0.07154636085033417,-0.5665613412857056,0.21584224700927734
1782814954138795800,0.185795654296875,0.14959758520126343,-0.65509432554245,0.10390478372573853
1782814954158878700,0.205878662109375,0.16835109889507294,-0.5063750743865967,-0.08946254849433899
1782814954178962000,0.2259619140625,0.13223613798618317,-0.18588188290596008,-0.24396903812885284
1782814954199044000,0.246044189453125,0.12461387366056442,0.043584611266851425,-0.27768203616142273
1782814954219127000,0.266126953125,0.18387219309806824,0.08856572210788727,-0.21512486040592194
1782814954239210000,0.2862099609375,0.25868386030197144,0.04297613352537155,-0.1065102368593216
1782814954259293000,0.30629296875,0.28971171379089355,-0.05459567904472351,0.01972265914082527
1782814954279374800,0.326374755859375,0.28246697783470154,-0.12482199817895889,0.1881350874900818
1782814954299457800,0.346457763671875,0.2884886562824249,-0.17781338095664978,0.27241912484169006
1782814954319541000,0.366541015625,0.31442371010780334,-0.23656094074249268,0.21718700230121613
1782814954339624000,0.3866240234375,0.3202715516090393,-0.14386259019374847,0.10028110444545746
1782814954359705900,0.406705810546875,0.3095381557941437,0.07406876236200333,0.009512441232800484
1782814954379788800,0.426788818359375,0.30661290884017944,0.23966306447982788,-0.026479415595531464
1782814954399871700,0.446871826171875,0.32225164771080017,0.3024107813835144,-0.0030824996065348387
1782814954419954000,0.466953857421875,0.3280573785305023,0.2558567523956299,0.03162738308310509
1782814954440037000,0.487037109375,0.3019830584526062,0.037430375814437866,0.03935285285115242
1782814954460120000,0.5071201171875,0.26991981267929077,-0.0713217705488205,0.058271996676921844
1782814954480203000,0.527203125,0.2673041522502899,0.007537735626101494,0.09290818870067596
1782814954500285000,0.547284912109375,0.2807529866695404,0.04595878720283508,0.10871672630310059
1782814954520367900,0.567367919921875,0.268279105424881,-0.06754454970359802,0.10637503117322922
1782814954540450800,0.587450927734375,0.2026122659444809,-0.16679172217845917,0.10574869066476822
1782814954560534000,0.607533935546875,0.16287410259246826,-0.005577192176133394,0.16294468939304352
1782814954580616000,0.627615966796875,0.16579076647758484,0.27679651975631714,0.23018038272857666
1782814954600699000,0.647698974609375,0.21020790934562683,0.47824206948280334,0.25426772236824036
1782814954620781800,0.66778173828125,0.25280389189720154,0.5184983611106873,0.22799035906791687
1782814954640864800,0.68786474609375,0.2673593759536743,0.3721044361591339,0.1748964786529541
1782814954660947000,0.707947021484375,0.27603885531425476,0.15582606196403503,0.14853793382644653
1782814954681030000,0.72802978515625,0.28340914845466614,-0.044746123254299164,0.13322441279888153
1782814954701113000,0.748113037109375,0.2916727662086487,-0.1154666543006897,0.15545980632305145
1782814954721196000,0.768196044921875,0.2913358807563782,-0.0811263844370842,0.19977229833602905
1782814954741278000,0.78827783203125,0.2910926043987274,-0.057906124740839005,0.23071923851966858
1782814954761361000,0.80836083984375,0.3203693926334381,0.06285388022661209,0.2429182082414627
1782814954781443800,0.82844384765625,0.36247360706329346,0.27550166845321655,0.2721751034259796
1782814954801527000,0.848527099609375,0.40249985456466675,0.5139757394790649,0.35383346676826477
1782814954821609000,0.86860888671875,0.40613478422164917,0.6905823349952698,0.4388476014137268
1782814954841692000,0.88869189453125,0.35129570960998535,0.592632532119751,0.38386714458465576
1782814954861774800,0.90877490234375,0.28889065980911255,0.43199074268341064,0.15973809361457825
1782814954881857000,0.92885693359375,0.13954830169677734,0.2096286416053772,-0.18855395913124084
1782814954901940000,0.94893994140625,-0.028582673519849777,-0.2955321967601776,-0.5920264720916748
1782814954922023000,0.96902294921875,-0.16772304475307465,-0.7110722661018372,-0.8547967672348022
1782814954942106000,0.989106201171875,-0.26843002438545227,-0.9019297957420349,-0.9520664215087891
1782814954962188000,1.00918798828125,-0.2753627598285675,-0.770721971988678,-0.8400192260742188
1782814954982271000,1.02927099609375,-0.2632865607738495,-0.23926515877246857,-0.5150951743125916
1782814955002353700,1.049353759765625,-0.24875801801681519,0.1873137205839157,-0.2679588794708252
1782814955022435600,1.069435546875,-0.1702977567911148,0.5180336833000183,-0.1837787926197052
1782814955042518800,1.089518798828125,-0.09205498546361923,0.7307847142219543,-0.22221477329730988
1782814955062601700,1.109601806640625,-0.029242703691124916,0.7297488451004028,-0.2901601195335388
1782814955082684700,1.1296845703125,-0.011935385875403881,0.48586782813072205,-0.32318049669265747
1782814955102766800,1.149766845703125,-0.015936020761728287,0.09313138574361801,-0.31141725182533264
1782814955122849800,1.169849853515625,-0.10258293896913528,-0.1719471663236618,-0.20835626125335693
1782814955142933000,1.18993310546875,-0.21868647634983063,-0.31165051460266113,-0.1071261465549469
1782814955163016000,1.210015869140625,-0.2961663603782654,-0.30309948325157166,-0.08943917602300644
1782814955183097900,1.230097900390625,-0.3279903531074524,-0.2174849957227707,-0.14204059541225433
1782814955203180800,1.250180908203125,-0.3408421277999878,-0.058074455708265305,-0.21521282196044922
1782814955223263700,1.270263671875,-0.35264310240745544,0.07964052259922028,-0.2633318603038788
1782814955243345700,1.290345703125,-0.38109344244003296,0.14305372536182404,-0.2672197222709656
1782814955263428600,1.3104287109375,-0.40000638365745544,0.14369088411331177,-0.25966233015060425
1782814955283511800,1.33051171875,-0.3836810886859894,0.09739406406879425,-0.22348728775978088
1782814955303594800,1.3505947265625,-0.33647626638412476,0.08972050249576569,-0.11728361994028091
1782814955323677000,1.370677001953125,-0.2917103171348572,0.1250501573085785,0.02192370966076851
1782814955343760000,1.390759765625,-0.25853168964385986,0.12805743515491486,0.10258566588163376
1782814955363842800,1.4108427734375,-0.24780075252056122,0.06098552793264389,0.12062907218933105
1782814955383925800,1.43092578125,-0.26434653997421265,-0.085230253636837,0.1072809025645256
1782814955404007700,1.451007568359375,-0.2806524336338043,-0.13980190455913544,0.09673891961574554
1782814955424091000,1.4710908203125,-0.290165513753891,-0.1796891987323761,0.025341738015413284
1782814955444173800,1.491173828125,-0.32307568192481995,-0.264827698469162,-0.09873411059379578
1782814955464255700,1.511255859375,-0.3547194302082062,-0.3369535505771637,-0.1755634844303131
1782814955484338700,1.531338623046875,-0.3407595455646515,-0.40833741426467896,-0.2169305384159088
1782814955504421600,1.551421630859375,-0.27341943979263306,-0.41611143946647644,-0.21493932604789734
1782814955524504600,1.571504638671875,-0.1542610079050064,-0.1813843548297882,-0.056894801557064056
1782814955544587000,1.5915869140625,-0.020447349175810814,0.14995484054088593,0.18166375160217285
1782814955564670000,1.611669921875,0.12487252801656723,0.38679689168930054,0.328100323677063
1782814955584753000,1.6317529296875,0.218134805560112,0.3973706364631653,0.34516939520835876
1782814955604834800,1.651834716796875,0.2728634774684906,0.38020870089530945,0.35087692737579346
1782814955624917800,1.671917724609375,0.31161370873451233,0.31293684244155884,0.3730241656303406
1782814955645000700,1.692000732421875,0.31760770082473755,0.007082825060933828,0.2915840148925781
1782814955665082600,1.71208251953125,0.29565879702568054,-0.25750601291656494,0.19176962971687317
1782814955685165800,1.732165771484375,0.2555777430534363,-0.4025563895702362,0.10681802779436111
1782814955705248800,1.752248779296875,0.22038593888282776,-0.4195981025695801,-0.011916233226656914
1782814955725331700,1.772331787109375,0.18519775569438934,-0.2163209617137909,-0.09654215723276138
1782814955745414000,1.792413818359375,0.18580485880374908,-0.005249187350273132,-0.08198598772287369
1782814955765496800,1.812496826171875,0.1903490126132965,0.2581963837146759,0.020031150430440903
1782814955785579800,1.832579833984375,0.22960476577281952,0.5366501808166504,0.12633991241455078
1782814955805661700,1.85266162109375,0.2633095979690552,0.7270585298538208,0.13758698105812073
1782814955825745000,1.872744873046875,0.28623634576797485,0.7590103149414062,0.09552492201328278
1782814955845827800,1.892827880859375,0.26816526055336,0.5665581226348877,0.0074496883898973465
1782814955865910800,1.912910888671875,0.2082291692495346,0.3178710341453552,-0.0879487618803978
1782814955885992700,1.93299267578125,0.13348610699176788,0.1513316035270691,-0.2024160623550415
1782814955906075600,1.95307568359375,0.1082036942243576,0.07644771039485931,-0.29859572649002075
1782814955926158600,1.97315869140625,0.12423893064260483,0.037171922624111176,-0.35798710584640503
1782814955946240800,1.99324072265625,0.17665216326713562,0.043796107172966,-0.371731162071228
1782814955966324000,2.013323974609375,0.2986258566379547,0.07041451334953308,-0.3304998576641083
1782814955986407000,2.033406982421875,0.44719693064689636,0.1867249608039856,-0.2204538732767105
1782814956006489300,2.0534892578125,0.5935022830963135,0.261031836271286,-0.13047818839550018
1782814956026571300,2.0735712890625,0.7268394231796265,0.28219735622406006,-0.1074945256114006
1782814956046654200,2.093654296875,0.8155192732810974,0.26121199131011963,-0.13933934271335602
1782814956066737400,2.1137373046875,0.8723939657211304,0.20916789770126343,-0.16449952125549316
1782814956086819300,2.1338193359375,0.9241905212402344,0.08614910393953323,-0.14912499487400055
1782814956106902300,2.15390234375,0.986329197883606,-0.06452594697475433,-0.08399742841720581
1782814956126985200,2.173985107421875,1.0559331178665161,-0.19255636632442474,0.003368775360286236
1782814956147067400,2.1940673828125,1.1189879179000854,-0.23172792792320251,0.08238552510738373
1782814956167150300,2.214150390625,1.1904503107070923,-0.21178695559501648,0.11658889800310135
1782814956187233300,2.2342333984375,1.2785542011260986,-0.15413887798786163,0.1089615449309349
1782814956207316500,2.25431640625,1.360977053642273,-0.1380363255739212,0.024953853338956833
1782814956227398400,2.2743984375,1.4315842390060425,-0.11522769927978516,-0.09063069522380829
1782814956247481300,2.2944814453125,1.4844996929168701,-0.04949662834405899,-0.18250252306461334
1782814956267564300,2.314564208984375,1.5361106395721436,0.06239410489797592,-0.20718999207019806
1782814956287646200,2.334646240234375,1.5876544713974,0.15903203189373016,-0.19796666502952576
1782814956307729200,2.354729248046875,1.6811785697937012,0.1790401190519333,-0.1951187402009964
1782814956327812400,2.374812255859375,1.793147087097168,0.10024426132440567,-0.18203149735927582
1782814956347894500,2.39489453125,1.9059481620788574,0.03717007860541344,-0.15040680766105652
1782814956367977500,2.4149775390625,1.9849191904067993,0.06542380899190903,-0.12331549823284149
1782814956388060400,2.435060302734375,2.02956485748291,0.14036503434181213,-0.1273234784603119
1782814956408143400,2.455143310546875,2.062009334564209,0.2002960443496704,-0.1621939092874527
1782814956428225300,2.475225341796875,2.053988456726074,0.2736794352531433,-0.24851997196674347
1782814956448308200,2.49530810546875,2.006836414337158,0.13775819540023804,-0.44448792934417725
1782814956468391400,2.515391357421875,1.997939944267273,-0.028131237253546715,-0.5614290833473206
1782814956488473300,2.535473388671875,2.0906927585601807,0.01990366540849209,-0.4076997637748718
1782814956508556300,2.555556396484375,2.2362239360809326,0.29269447922706604,-0.056437231600284576
1782814956528639200,2.57563916015625,2.369060516357422,0.4798433482646942,0.2261999547481537
1782814956548721400,2.595721435546875,2.4306480884552,0.5278998017311096,0.32425716519355774
1782814956568804400,2.615804443359375,2.425619125366211,0.5914400219917297,0.3187490999698639
1782814956588887300,2.63588720703125,2.3682661056518555,0.6118114590644836,0.22242307662963867
1782814956608970500,2.655970458984375,2.277738332748413,0.5496024489402771,0.07478757202625275
1782814956629052400,2.676052490234375,2.1656558513641357,0.4103131890296936,-0.09043580293655396
1782814956649135400,2.69613525390625,2.0521488189697266,0.2512719929218292,-0.23800429701805115
1782814956669218300,2.71621826171875,1.963302493095398,0.18481233716011047,-0.31266188621520996
1782814956689300200,2.73630029296875,1.896429419517517,0.15076792240142822,-0.34258782863616943
1782814956709383200,2.756383056640625,1.8929975032806396,0.13761313259601593,-0.32409214973449707
1782814956729466400,2.77646630859375,1.9434571266174316,0.18497596681118011,-0.22414374351501465
1782814956749548500,2.796548583984375,2.0125694274902344,0.3077753782272339,-0.06371591240167618
1782814956769631500,2.816631591796875,2.0708413124084473,0.42018452286720276,0.039976123720407486
1782814956789714400,2.83671435546875,2.082746982574463,0.4176417291164398,0.035877786576747894
1782814956809796400,2.85679638671875,2.070728302001953,0.35472163558006287,-0.013065255247056484
1782814956829879300,2.87687939453125,2.0640974044799805,0.30931898951530457,-0.057414643466472626
1782814956849962200,2.896962158203125,2.049522876739502,0.2736304700374603,-0.11376000195741653
1782814956870045400,2.91704541015625,2.0222184658050537,0.2436976432800293,-0.17199867963790894
1782814956890127400,2.93712744140625,2.005082130432129,0.30312231183052063,-0.2053905576467514
1782814956910210300,2.957210205078125,1.9937574863433838,0.41357776522636414,-0.2217586487531662
1782814956930293200,2.977293212890625,1.9995248317718506,0.4693177342414856,-0.26499927043914795
1782814956950375400,2.99737548828125,2.0125153064727783,0.46335604786872864,-0.33523350954055786
1782814956970458400,3.017458251953125,2.0132598876953125,0.44648346304893494,-0.3666103482246399
1782814956990541300,3.037541259765625,1.9999583959579468,0.42275938391685486,-0.3425856828689575
1782814957010623200,3.057623291015625,1.9690417051315308,0.3894062936306,-0.30677902698516846
1782814957030706200,3.0777060546875,1.9518591165542603,0.3414219319820404,-0.3111349642276764
1782814957050789400,3.097789306640625,1.9572818279266357,0.32237061858177185,-0.3319351077079773
1782814957070871300,3.117871337890625,1.9694182872772217,0.3302522301673889,-0.33256348967552185
1782814957090954200,3.137954345703125,1.9891636371612549,0.3308044373989105,-0.28877735137939453
1782814957111037200,3.158037109375,2.0041091442108154,0.33481529355049133,-0.19784322381019592
1782814957131120000,3.1781201171875,2.01737904548645,0.36538782715797424,-0.09383422881364822
1782814957151202300,3.198202392578125,2.0152065753936768,0.41382119059562683,-0.012582790106534958
1782814957171285500,3.218285400390625,1.9962621927261353,0.45077404379844666,0.005717168562114239
1782814957191368400,3.238368408203125,1.9775067567825317,0.48911550641059875,-0.047613725066185
1782814957211450400,3.258450439453125,1.9558879137039185,0.5642680525779724,-0.12442025542259216
1782814957231533300,3.278533203125,1.9201452732086182,0.5953362584114075,-0.17514252662658691
1782814957251616300,3.2986162109375,1.9032890796661377,0.5867618322372437,-0.15400484204292297
1782814957271698200,3.3186982421875,1.8926372528076172,0.47027093172073364,-0.0786971002817154
1782814957291781000,3.338781005859375,1.8685587644577026,0.3386004567146301,-0.007466824725270271
1782814957311864300,3.3588642578125,1.8128525018692017,0.28014349937438965,0.0064472355879843235
1782814957331946500,3.378946533203125,1.7062562704086304,0.25147634744644165,-0.05474703386425972
1782814957352029400,3.399029541015625,1.5705633163452148,0.16932065784931183,-0.164866104722023
1782814957372112400,3.4191123046875,1.428563117980957,0.025788813829421997,-0.29204070568084717
1782814957392194300,3.4391943359375,1.3000309467315674,-0.09172003716230392,-0.35196688771247864
1782814957412277200,3.45927734375,1.1992342472076416,-0.16049376130104065,-0.3358374834060669
1782814957432360200,3.479360107421875,1.1204251050949097,-0.19218385219573975,-0.24741293489933014
1782814957452443400,3.499443359375,1.0212335586547852,-0.1460583359003067,-0.09355460107326508
1782814957472525300,3.519525390625,0.8852445483207703,-0.033479440957307816,0.0744573175907135
1782814957492608300,3.539608154296875,0.7578550577163696,0.11592180281877518,0.16876208782196045
1782814957512691200,3.559691162109375,0.6769253015518188,0.23253795504570007,0.16856998205184937
1782814957532773400,3.5797734375,0.619392454624176,0.3066166639328003,0.1461661159992218
1782814957552856300,3.599856201171875,0.5367634296417236,0.34621918201446533,0.13439907133579254
1782814957572939500,3.619939453125,0.4481969475746155,0.3209055960178375,0.08632165938615799
1782814957593021400,3.640021484375,0.3769713342189789,0.18569855391979218,-0.000635017640888691
1782814957613104400,3.6601044921875,0.3392685651779175,0.03348107635974884,-0.10674325376749039
1782814957633187300,3.680187255859375,0.3191875219345093,-0.055320948362350464,-0.211827352643013
1782814957653269200,3.700269287109375,0.32160601019859314,-0.09080007672309875,-0.28259602189064026
1782814957673352200,3.720352294921875,0.31687551736831665,-0.13553933799266815,-0.3034535348415375
1782814957693435100,3.74043505859375,0.28110355138778687,-0.16849632561206818,-0.2509101927280426
1782814957713517300,3.760517333984375,0.2527029514312744,-0.1473499834537506,-0.1761854737997055
1782814957733600300,3.780600341796875,0.262401282787323,-0.08885916322469711,-0.12389504909515381
1782814957753683500,3.800683349609375,0.28887712955474854,0.0026171510107815266,-0.13130497932434082
1782814957773765400,3.820765380859375,0.3097790479660034,0.05034017935395241,-0.15908002853393555
1782814957793848300,3.840848388671875,0.3078930974006653,0.036921948194503784,-0.14971016347408295
1782814957813931300,3.86093115234375,0.31657201051712036,-0.015273399651050568,-0.12647570669651031
1782814957834013200,3.88101318359375,0.3606654405593872,-0.07264161854982376,-0.09016404300928116
1782814957854096100,3.90109619140625,0.39403754472732544,-0.15707741677761078,-0.07424674928188324
1782814957874179300,3.921179443359375,0.38941991329193115,-0.2853105664253235,-0.10994159430265427
1782814957894261200,3.94126123046875,0.33620086312294006,-0.47831693291664124,-0.19492347538471222
1782814957914344200,3.96134423828125,0.2561846077442169,-0.6263061761856079,-0.2842376232147217
1782814957934427100,3.98142724609375,0.20684406161308289,-0.598373532295227,-0.31289660930633545
1782814957954509300,4.00150927734375,0.19829170405864716,-0.39437782764434814,-0.24963544309139252
1782814957974592300,4.02159228515625,0.21293948590755463,-0.11729886382818222,-0.13152995705604553
1782814957994675500,4.041675537109375,0.24641136825084686,0.09093890339136124,-0.05412113294005394
1782814958014759200,4.06175927734375,0.3028792142868042,0.2299201488494873,0.006225707940757275
1782814958034841000,4.081841064453125,0.37533947825431824,0.35392966866493225,0.06604796648025513
1782814958054924000,4.101924072265625,0.4153636693954468,0.3946361243724823,0.09061592072248459
1782814958075007000,4.122007080078125,0.4560353457927704,0.3592882752418518,0.06641986966133118
1782814958095089000,4.1420888671875,0.5049604773521423,0.279569536447525,0.04308431223034859
1782814958115172000,4.162172119140625,0.5352122187614441,0.15601591765880585,0.031647004187107086
1782814958135255000,4.182255126953125,0.5437056422233582,0.007875573821365833,0.047110069543123245
1782814958155337200,4.202337158203125,0.5309925675392151,-0.11651363223791122,0.07368133962154388
1782814958175420200,4.222420166015625,0.5152387022972107,-0.23953185975551605,0.07061795890331268
1782814958195503000,4.242503173828125,0.5069563388824463,-0.32464510202407837,0.04986260458827019
1782814958215585000,4.2625849609375,0.4877362549304962,-0.3805302679538727,0.05194360762834549
1782814958235668000,4.28266796875,0.4771941304206848,-0.3305783271789551,0.03312750160694122
1782814958255751200,4.302751220703125,0.4626142382621765,-0.21828125417232513,0.01048262882977724
1782814958275833000,4.3228330078125,0.3723074495792389,-0.21300020813941956,0.03517143055796623
1782814958295916000,4.342916015625,0.2313103973865509,-0.14618143439292908,0.10034769773483276
1782814958315999000,4.3629990234375,0.07092173397541046,0.02557343989610672,0.15255847573280334
1782814958336081200,4.3830810546875,-0.011870254762470722,0.2018744796514511,0.13828027248382568
1782814958356164000,4.4031640625,0.01852637156844139,0.47769975662231445,0.08647724986076355
1782814958376247000,4.4232470703125,0.14948073029518127,0.796916663646698,0.031136788427829742
1782814958396329000,4.443328857421875,0.2863890826702118,1.0287507772445679,0.009966550394892693
1782814958416412200,4.463412109375,0.3785090446472168,1.0266780853271484,0.025395404547452927
1782814958436495000,4.4834951171875,0.40845170617103577,0.790311336517334,0.06447619944810867
1782814958456577000,4.503576904296875,0.38014209270477295,0.40920746326446533,0.10687527060508728
1782814958476660000,4.523659912109375,0.33897000551223755,-0.07569406926631927,0.1576366275548935
1782814958496743000,4.543742919921875,0.31056344509124756,-0.3614268898963928,0.24944913387298584
1782814958516825000,4.5638251953125,0.2654727101325989,-0.421988844871521,0.2942531108856201
1782814958536908000,4.583907958984375,0.20231686532497406,-0.43144527077674866,0.24601933360099792
1782814958556991000,4.603990966796875,0.15552502870559692,-0.3984183073043823,0.1692570298910141
1782814958577073200,4.6240732421875,0.136838898062706,-0.34198859333992004,0.13363558053970337
1782814958597156000,4.644156005859375,0.1220833882689476,-0.2946808636188507,0.11972574889659882
1782814958617239000,4.664239013671875,0.09614229947328568,-0.24175390601158142,0.11699642986059189
1782814958637321000,4.684321044921875,0.08565359562635422,-0.15951652824878693,0.13139310479164124
1782814958657404000,4.70440380859375,0.11662337183952332,-0.02502194233238697,0.17346887290477753
1782814958677487000,4.724487060546875,0.1542438119649887,0.09348797053098679,0.18264752626419067
1782814958697569000,4.744569091796875,0.13495533168315887,0.11607450246810913,0.13429570198059082
1782814958717652000,4.76465185546875,0.051381174474954605,0.06523068249225616,0.005801585502922535
1782814958737735000,4.78473486328125,-0.050601594150066376,-0.014262102544307709,-0.19799727201461792
1782814958757817000,4.804817138671875,-0.10710408538579941,-0.13183638453483582,-0.41310983896255493
1782814958777900000,4.824900146484375,-0.10402006655931473,-0.17192842066287994,-0.5356396436691284
1782814958797983000,4.84498291015625,-0.060986343771219254,-0.16057689487934113,-0.5485425591468811
1782814958818065000,4.86506494140625,0.003999396227300167,-0.12836432456970215,-0.4662993550300598
1782814958838148000,4.885148193359375,0.09963227063417435,-0.09009578078985214,-0.32667288184165955
1782814958858231000,4.90523095703125,0.22016772627830505,-0.013520976528525352,-0.14672239124774933
1782814958878313000,4.92531298828125,0.3147590756416321,0.10596197843551636,-0.020587459206581116
1782814958898396000,4.94539599609375,0.3859803080558777,0.17698821425437927,-0.004262248054146767
1782814958918478800,4.965478759765625,0.4315392076969147,0.25969448685646057,-0.008580059744417667
1782814958938561000,4.98556103515625,0.4207046627998352,0.3358909785747528,0.012822434306144714
1782814958958644000,5.00564404296875,0.3782634139060974,0.3978581726551056,0.05874975398182869
1782814958978727200,5.02572705078125,0.3324207365512848,0.4117688834667206,0.07972235232591629
1782814958998809000,5.04580908203125,0.28716161847114563,0.3463921546936035,0.041448015719652176
1782814959018892000,5.06589208984375,0.25098732113838196,0.25410956144332886,-0.039373286068439484
1782814959038975000,5.08597509765625,0.24575012922286987,0.16649605333805084,-0.1128411740064621
1782814959059057000,5.106056884765625,0.2610431909561157,0.0577709935605526,-0.146623894572258
1782814959079139800,5.126139892578125,0.29182299971580505,0.0018781572580337524,-0.1265653818845749
1782814959099223000,5.14622314453125,0.34633052349090576,-0.012430954724550247,-0.0896870419383049
1782814959119305200,5.16630517578125,0.40389543771743774,-0.09606791287660599,-0.07352499663829803
1782814959139388200,5.18638818359375,0.4553123116493225,-0.21104243397712708,-0.07212211191654205
1782814959159471000,5.20647119140625,0.4997118413448334,-0.24550317227840424,-0.06920212507247925
1782814959179553000,5.226552978515625,0.5392360091209412,-0.16470611095428467,-0.06883653253316879
1782814959199636000,5.246635986328125,0.6191962361335754,0.0449494794011116,-0.047698140144348145
1782814959219719000,5.266718994140625,0.683368444442749,0.15650220215320587,0.0025113257579505444
1782814959239800800,5.28680078125,0.6723977327346802,0.1729511022567749,0.08568825572729111
1782814959259884000,5.306884033203125,0.6248300671577454,0.16318467259407043,0.1388489454984665
1782814959279967000,5.326967041015625,0.5688258409500122,0.16392098367214203,0.12814292311668396
1782814959300049200,5.347049072265625,0.5166853666305542,0.23156169056892395,0.0869378075003624
1782814959320132000,5.367132080078125,0.48322904109954834,0.2097998410463333,0.026203030720353127
1782814959340215000,5.387215087890625,0.41859880089759827,0.07656677067279816,-0.019562769681215286
1782814959360297000,5.407296875,0.32976511120796204,0.05005485936999321,0.021915383636951447
1782814959380380000,5.4273798828125,0.18523190915584564,0.03952924907207489,0.05178406462073326
1782814959400463000,5.447463134765625,0.04247242212295532,0.04118718206882477,0.04286935552954674
1782814959420545000,5.467544921875,-0.03443456441164017,-0.01793733797967434,0.021621279418468475
1782814959440628000,5.4876279296875,-0.04512704163789749,-0.0639185681939125,0.0988069400191307
1782814959460711000,5.5077109375,-0.01995815895497799,-0.006014163605868816,0.3217332661151886
1782814959480793000,5.52779296875,0.02184377796947956,0.055249620229005814,0.5432904362678528
1782814959500876000,5.5478759765625,0.049215514212846756,-0.013093026354908943,0.6354926228523254
1782814959520959200,5.567959228515625,0.04678499326109886,-0.208301842212677,0.6166954636573792
1782814959541041200,5.588041259765625,0.010162224993109703,-0.3760465979576111,0.5488600134849548
1782814959561124000,5.6081240234375,-0.04984618350863457,-0.3947456181049347,0.45624077320098877
1782814959581207000,5.62820703125,-0.10287556797266006,-0.23327331244945526,0.36707115173339844
1782814959601289000,5.6482890625,-0.10784848779439926,0.04364197701215744,0.24669858813285828
1782814959621372000,5.668371826171875,-0.07590068876743317,0.180789053440094,0.13529232144355774
1782814959641454800,5.688454833984375,-0.05569741129875183,0.08622904866933823,0.07396470755338669
1782814959661537000,5.708537109375,-0.07813480496406555,-0.02071550488471985,0.05247672647237778
1782814959681620200,5.7286201171875,-0.1280355453491211,-0.07310506701469421,0.037671495229005814
1782814959701703200,5.748703125,-0.20158687233924866,-0.09021218121051788,-0.0425424799323082
1782814959721785000,5.76878515625,-0.24550336599349976,-0.12607240676879883,-0.2011275291442871
1782814959741868000,5.788867919921875,-0.2815834581851959,-0.1561896651983261,-0.34606873989105225
1782814959761950000,5.808949951171875,-0.34254544973373413,-0.21032950282096863,-0.42569637298583984
1782814959782033000,5.829032958984375,-0.4126414656639099,-0.3063626289367676,-0.4103110134601593
1782814959802115800,5.84911572265625,-0.4636344909667969,-0.3712373971939087,-0.3306899666786194
1782814959822198000,5.869197998046875,-0.5015527009963989,-0.4316500425338745,-0.2827003300189972
1782814959842281200,5.88928125,-0.5272120237350464,-0.479848176240921,-0.2948760390281677
1782814959862364200,5.9093642578125,-0.5500555634498596,-0.4841821491718292,-0.3227120041847229
1782814959882446000,5.929446044921875,-0.5523216724395752,-0.4026579260826111,-0.31978175044059753
1782814959902529000,5.949529052734375,-0.5369545817375183,-0.2718174457550049,-0.29322296380996704
1782814959922612000,5.969612060546875,-0.5013151168823242,-0.14830726385116577,-0.288662314414978
1782814959942694000,5.98969384765625,-0.4324935972690582,-0.04458218067884445,-0.274808406829834
1782814959962777000,6.009777099609375,-0.37174665927886963,-0.08144298195838928,-0.2506559491157532
1782814959982860000,6.029860107421875,-0.3601927161216736,-0.18537625670433044,-0.23717710375785828
1782814960002941700,6.049941650390625,-0.3490501344203949,-0.244499072432518,-0.2579554319381714
1782814960023024600,6.070024658203125,-0.32145097851753235,-0.31872570514678955,-0.30149850249290466
1782814960043107800,6.09010791015625,-0.30858346819877625,-0.3589974641799927,-0.24427470564842224
1782814960063189800,6.110189697265625,-0.3294163644313812,-0.37959766387939453,-0.13567201793193817
1782814960083272700,6.130272705078125,-0.3453289568424225,-0.3083403706550598,-0.06286770850419998
1782814960103355600,6.150355712890625,-0.3647341728210449,-0.24434484541416168,-0.0728810653090477
1782814960123437600,6.1704375,-0.38108110427856445,-0.26067274808883667,-0.13239450752735138
1782814960143520500,6.1905205078125,-0.41024115681648254,-0.3023359179496765,-0.15488722920417786
1782814960163603500,6.210603515625,-0.45989343523979187,-0.2519046366214752,-0.14074385166168213
1782814960183685600,6.230685546875,-0.49202558398246765,-0.10874679684638977,-0.12762264907360077
1782814960203768800,6.250768798828125,-0.47593486309051514,0.04154665395617485,-0.10711857676506042
1782814960223851800,6.270851806640625,-0.4201687276363373,0.15155044198036194,-0.046273037791252136
1782814960243933700,6.29093359375,-0.3720557689666748,0.17300213873386383,0.044028472155332565
1782814960264016600,6.3110166015625,-0.33158186078071594,0.2184862643480301,0.11845546215772629
1782814960284099600,6.331099609375,-0.29552286863327026,0.20315849781036377,0.1556824892759323
1782814960304181500,6.351181396484375,-0.24767902493476868,0.18386870622634888,0.22731372714042664
1782814960324264700,6.3712646484375,-0.20530784130096436,0.15681831538677216,0.34185531735420227
1782814960344347600,6.39134765625,-0.1896006464958191,0.04076896607875824,0.39058834314346313
1782814960364429800,6.411429931640625,-0.19450806081295013,0.10273007303476334,0.3409925699234009
1782814960384512800,6.4315126953125,-0.20273233950138092,0.15923301875591278,0.19784486293792725
1782814960404595700,6.451595703125,-0.25492244958877563,0.00289996899664402,-0.013001601211726665
1782814960424677600,6.471677734375,-0.23620548844337463,-0.015503741800785065,-0.14446808397769928
1782814960444760600,6.491760498046875,-0.2235584259033203,-0.0798305943608284,-0.19965563714504242
1782814960464843800,6.51184375,-0.20523345470428467,-0.13686546683311462,-0.24713942408561707
1782814960484925700,6.53192578125,-0.17821279168128967,-0.09744061529636383,-0.26555415987968445
1782814960505008600,6.552008544921875,-0.14579717814922333,-0.026322394609451294,-0.20432771742343903
1782814960525091600,6.572091552734375,-0.09838883578777313,0.08110077679157257,-0.04676579311490059
1782814960545173800,6.592173828125,-0.017559150233864784,0.15114980936050415,0.14067861437797546
1782814960565256700,6.612256591796875,0.0832730233669281,0.19411170482635498,0.3004355728626251
1782814960585338600,6.632338623046875,0.15128926932811737,0.11559201031923294,0.3482379913330078
1782814960605421600,6.652421630859375,0.17797799408435822,-0.11754186451435089,0.3153052031993866
1782814960625504800,6.6725048828125,0.1509799212217331,-0.3236907720565796,0.28036606311798096
1782814960645586700,6.692586669921875,0.10093230754137039,-0.32105040550231934,0.2560405135154724
1782814960665669600,6.712669677734375,0.018992459401488304,-0.18625038862228394,0.19378530979156494
1782814960685752600,6.732752685546875,-0.0452272966504097,-0.04068532586097717,0.13571223616600037
1782814960705834800,6.752834716796875,-0.08174120634794235,0.005881272256374359,0.104359932243824
1782814960725917700,6.772917724609375,-0.093182273209095,0.025183098390698433,0.11783116310834885
1782814960746000600,6.793000732421875,-0.09000970423221588,0.05764884129166603,0.15201200544834137
1782814960766082800,6.813082763671875,-0.08382298797369003,0.13397645950317383,0.20136070251464844
1782814960786165800,6.833165771484375,-0.05866280570626259,0.27287420630455017,0.26382750272750854
1782814960806248700,6.853248779296875,0.012091216631233692,0.3495900630950928,0.2763921618461609
1782814960826330600,6.87333056640625,0.0701967179775238,0.24894243478775024,0.23605139553546906
1782814960846413600,6.89341357421875,0.0937264934182167,0.03716622665524483,0.17690682411193848
1782814960866496500,6.91349658203125,0.04959043115377426,-0.09334743767976761,0.10819655656814575
1782814960886578400,6.933578369140625,-0.02647540159523487,-0.1633494794368744,0.020159918814897537
1782814960906661600,6.95366162109375,-0.08787945657968521,-0.07884468883275986,-0.07929437607526779
1782814960926744600,6.97374462890625,-0.10440875589847565,0.10143569856882095,-0.17088578641414642
1782814960946826800,6.99382666015625,-0.09332122653722763,0.2678009271621704,-0.23548494279384613
1782814960966909700,7.01390966796875,-0.05659414455294609,0.249209925532341,-0.2295362800359726
1782814960986991600,7.03399169921875,-0.015586547553539276,0.044929105788469315,-0.15986044704914093
1782814961007074600,7.054074462890625,0.035563383251428604,-0.12742899358272552,-0.04953248053789139
1782814961027157800,7.07415771484375,0.09544229507446289,-0.14551988244056702,0.007365327328443527
1782814961047239700,7.09423974609375,0.1224493682384491,-0.10762035846710205,-0.00585791002959013
1782814961067322600,7.114322509765625,0.11047074943780899,-0.053099002689123154,-0.05958832427859306
1782814961087405600,7.134405517578125,0.10348986089229584,0.02559373341500759,-0.08659833669662476
1782814961107487700,7.15448779296875,0.13539427518844604,0.08991000056266785,-0.08540885895490646
1782814961127570700,7.17457080078125,0.1771460771560669,0.08087706565856934,-0.07042472064495087
1782814961147653600,7.194653564453125,0.17944718897342682,0.03296364098787308,-0.0579967126250267
1782814961167735800,7.21473583984375,0.16663561761379242,0.016567928716540337,-0.09121531993150711
1782814961187818800,7.23481884765625,0.1712423861026764,0.05547850579023361,-0.16377010941505432
1782814961207901700,7.254901611328125,0.22369123995304108,0.1052531749010086,-0.22291187942028046
1782814961227983600,7.274983642578125,0.2901515066623688,0.1437349170446396,-0.1916475147008896
1782814961248066600,7.295066650390625,0.3388892412185669,0.15447263419628143,-0.08093579858541489
1782814961268148700,7.315148681640625,0.3943616449832916,0.16591483354568481,0.024838246405124664
1782814961288231700,7.335231689453125,0.44434911012649536,0.15095819532871246,0.04939549043774605
1782814961308315000,7.35531494140625,0.4825597405433655,0.08199861645698547,0.04551932215690613
1782814961328396800,7.375396728515625,0.5213625431060791,-0.0027435137890279293,0.0854407474398613
1782814961348479700,7.395479736328125,0.5682961344718933,-0.05615885555744171,0.19957688450813293
1782814961368562700,7.415562744140625,0.6028246879577637,-0.040672190487384796,0.36803320050239563
1782814961388644600,7.43564453125,0.6278828978538513,0.0401231087744236,0.4984425902366638
1782814961408727600,7.4557275390625,0.6460135579109192,-0.07667623460292816,0.4917190968990326
1782814961428810500,7.475810546875,0.588322639465332,-0.37577417492866516,0.3876483142375946
1782814961448892700,7.495892578125,0.4837368130683899,-0.36735987663269043,0.36799171566963196
1782814961468975900,7.515975830078125,0.46784090995788574,-0.001230817288160324,0.5051087141036987
1782814961489058800,7.536058837890625,0.5427767038345337,0.47714802622795105,0.701205849647522
1782814961509140700,7.556140625,0.6325588822364807,0.6315448880195618,0.7685883641242981
1782814961529223700,7.5762236328125,0.6656302213668823,0.4914044141769409,0.7200680375099182
1782814961549305600,7.5963056640625,0.5947932004928589,0.13368216156959534,0.578825831413269
1782814961569388500,7.616388427734375,0.4859045445919037,-0.27383702993392944,0.36066311597824097
1782814961589471500,7.636471435546875,0.3628389835357666,-0.458407998085022,0.13382163643836975
1782814961609554000,7.656553955078125,0.27662160992622375,-0.3716924786567688,-0.017710307613015175
1782814961629636900,7.676636962890625,0.25009801983833313,-0.12015029788017273,-0.01959885098040104
1782814961649719800,7.6967197265625,0.26499632000923157,0.29234737157821655,0.09148260951042175
1782814961669801700,7.7168017578125,0.3111666440963745,0.5995255708694458,0.1329275369644165
1782814961689884700,7.736884765625,0.3534483015537262,0.6728135943412781,0.06274126470088959
1782814961709967600,7.756967529296875,0.3613601326942444,0.6071999073028564,-0.03796416521072388
1782814961730049500,7.777049560546875,0.3572731614112854,0.4391866624355316,-0.13971535861492157
1782814961750132700,7.7971328125,0.34560808539390564,0.26005819439888,-0.21195296943187714
1782814961770215000,7.81721484375,0.33046457171440125,0.07748093456029892,-0.3053177297115326
1782814961790297900,7.8372978515625,0.29847195744514465,-0.06787152588367462,-0.4369620680809021
1782814961810380800,7.857380859375,0.21420373022556305,-0.37698057293891907,-0.5696295499801636
1782814961830462700,7.877462646484375,0.1152055412530899,-0.5734096169471741,-0.6197871565818787
1782814961850545700,7.897545654296875,0.08416669070720673,-0.45310619473457336,-0.6238744258880615
1782814961870628600,7.917628662109375,0.10436947643756866,-0.08433748781681061,-0.5517807602882385
1782814961890710500,7.93771044921875,0.10205301642417908,0.3023280203342438,-0.45801496505737305
1782814961910793700,7.957793701171875,0.09592369198799133,0.3879581093788147,-0.41238754987716675
1782814961930876700,7.977876708984375,0.1103118434548378,0.38521522283554077,-0.3944210112094879
1782814961950958800,7.997958740234375,0.10384116321802139,0.28643298149108887,-0.37210506200790405
1782814961971041800,8.018041748046874,0.07370198518037796,0.10839451104402542,-0.3106714189052582
1782814961991123700,8.038123779296875,0.03284755349159241,-0.0606226846575737,-0.202689528465271
1782814962011207400,8.05820751953125,0.006712900009006262,-0.17874394357204437,-0.10649887472391129
1782814962031290400,8.078290283203126,-0.017628829926252365,-0.20749804377555847,-0.07690390944480896
1782814962051372300,8.098372314453124,-0.07222311943769455,-0.19224996864795685,-0.10604200512170792
1782814962071455200,8.118455322265625,-0.14091762900352478,-0.10993462800979614,-0.14616608619689941
1782814962091538200,8.1385380859375,-0.20200800895690918,0.024326005950570107,-0.15243613719940186
1782814962111620000,8.1586201171875,-0.25072401762008667,0.07727673649787903,-0.1549360305070877
1782814962131703300,8.178703369140624,-0.267764151096344,0.08110460638999939,-0.10549209266901016
1782814962151785500,8.198785400390625,-0.2735449969768524,0.022460248321294785,-0.012693459168076515
1782814962171868400,8.218868408203125,-0.26961010694503784,-0.06628048419952393,0.06844909489154816
1782814962191951400,8.238951416015626,-0.26443368196487427,-0.1288374811410904,0.10995528101921082
1782814962212033300,8.259033203125,-0.27704915404319763,-0.14225687086582184,0.14673499763011932
1782814962232116200,8.2791162109375,-0.2840188145637512,-0.1440475434064865,0.2181631624698639
1782814962252199200,8.29919921875,-0.2939321994781494,-0.09709679335355759,0.31128180027008057
1782814962272281000,8.319281005859375,-0.2982388138771057,0.008073169738054276,0.3390008807182312
1782814962292364300,8.3393642578125,-0.30553922057151794,-0.08066698163747787,0.24179662764072418
1782814962312447200,8.359447265625,-0.3372221291065216,-0.1730853170156479,0.1175651103258133
1782814962332529400,8.379529296875,-0.39574572443962097,-0.2614963948726654,-0.03554410859942436
1782814962352612400,8.3996123046875,-0.44027745723724365,-0.36997872591018677,-0.16829322278499603
1782814962372694300,8.4196943359375,-0.41349685192108154,-0.21728254854679108,-0.14201948046684265
1782814962392777200,8.439777099609374,-0.3393760919570923,0.09906838089227676,0.029639065265655518
1782814962412860400,8.4598603515625,-0.22887824475765228,0.4145313501358032,0.20586608350276947
1782814962432942300,8.4799423828125,-0.1251187026500702,0.4843997657299042,0.3011403977870941
1782814962453025300,8.500025390625,-0.06531431525945663,0.34268417954444885,0.31963297724723816
1782814962473108200,8.520108154296874,-0.034289032220840454,0.1440810263156891,0.27062129974365234
1782814962493190400,8.5401904296875,-0.01747259683907032,-0.09874337911605835,0.21481576561927795
1782814962513273300,8.5602734375,-0.01968374289572239,-0.27434536814689636,0.19937755167484283
1782814962533355300,8.580355224609375,-0.0381803885102272,-0.25304868817329407,0.20348642766475677
1782814962553438200,8.600438232421874,-0.05823170393705368,-0.10673100501298904,0.1830807626247406
1782814962573521400,8.620521484375,-0.06706253439188004,0.008886819705367088,0.14555315673351288
1782814962593603300,8.640603271484375,-0.07768850028514862,0.023017074912786484,0.14863339066505432
1782814962613686300,8.660686279296876,-0.10385435819625854,0.0067617460153996944,0.21313850581645966
1782814962633769200,8.680769287109374,-0.13278289139270782,0.03855787590146065,0.26757320761680603
1782814962653851400,8.700851318359375,-0.14245043694972992,0.14875735342502594,0.2635577619075775
1782814962673934300,8.720934326171875,-0.15279555320739746,0.278572142124176,0.17055915296077728
1782814962694017300,8.741017333984376,-0.1892118752002716,0.3483317792415619,0.004591497592628002
1782814962714099200,8.76109912109375,-0.22300398349761963,0.20129269361495972,-0.18219831585884094
1782814962734182400,8.781182373046875,-0.2332068383693695,-0.1069084033370018,-0.2898983061313629
1782814962754264300,8.801264404296875,-0.22422891855239868,-0.22923468053340912,-0.28218233585357666
1782814962774347300,8.82134716796875,-0.18086326122283936,-0.18219302594661713,-0.2574924826622009
1782814962794430200,8.84143017578125,-0.10488492995500565,-0.12114783376455307,-0.2790622413158417
1782814962814512000,8.86151220703125,-0.021635286509990692,-0.07002667337656021,-0.2868446111679077
1782814962834595300,8.88159521484375,0.05215103551745415,-0.018501820042729378,-0.22592979669570923
1782814962854677200,8.90167724609375,0.11554084718227386,-0.02013937570154667,-0.11875420808792114
1782814962874760400,8.921760498046876,0.13368450105190277,-0.05611897259950638,-0.01635926216840744
1782814962894843400,8.941843505859374,0.1176639050245285,-0.10915859043598175,0.032137639820575714
1782814962914925300,8.96192529296875,0.09890998154878616,-0.10104908794164658,0.02495291456580162
1782814962935008300,8.98200830078125,0.07279067486524582,-0.058003392070531845,-0.023543843999505043
1782814962955091200,9.00209130859375,0.041576847434043884,-0.018194330856204033,-0.1044883131980896
1782814962975173000,9.022173095703126,-0.0012844973243772984,-0.003891782835125923,-0.17361226677894592
1782814962995256000,9.042256103515625,-0.032933566719293594,0.029425576329231262,-0.18986256420612335
1782814963015337200,9.062337158203125,-0.042189206928014755,0.05238710716366768,-0.16862843930721283
1782814963035420200,9.082420166015625,-0.02456176094710827,0.038864776492118835,-0.14779604971408844
1782814963055503400,9.10250341796875,0.013754690997302532,0.06518640369176865,-0.14287614822387695
1782814963075585300,9.122585205078124,0.044551488012075424,0.08747313916683197,-0.1526196002960205
1782814963095668200,9.142668212890625,0.07206536084413528,0.00929092988371849,-0.15999898314476013
1782814963115751200,9.162751220703125,0.12439260631799698,-0.02959444932639599,-0.14591442048549652
1782814963135833300,9.182833251953125,0.18181158602237701,-0.06468617171049118,-0.15104986727237701
1782814963155916300,9.202916259765624,0.23347264528274536,-0.08416426181793213,-0.16761872172355652
1782814963175998200,9.222998291015625,0.28744447231292725,-0.03486320376396179,-0.18134450912475586
1782814963196081200,9.2430810546875,0.3524695336818695,0.06349779665470123,-0.17133541405200958
1782814963216164400,9.263164306640626,0.4332251250743866,0.15322473645210266,-0.1013600155711174
1782814963236246300,9.283246337890626,0.5428609848022461,0.16578082740306854,0.02363903447985649
1782814963256329200,9.3033291015625,0.6583014130592346,0.12411203235387802,0.13594669103622437
1782814963276412200,9.323412109375,0.7559941411018372,0.13654263317584991,0.19452022016048431
1782814963296494300,9.343494384765625,0.8434702157974243,0.03937993198633194,0.17819173634052277
1782814963316577300,9.363577392578126,0.9325680732727051,-0.15148502588272095,0.07382423430681229
1782814963336659200,9.3836591796875,1.0022886991500854,-0.2721506953239441,-0.06311263889074326
1782814963356742400,9.403742431640625,1.0564227104187012,-0.2522655725479126,-0.08934026211500168
1782814963376825300,9.423825439453125,1.1241724491119385,-0.07241564989089966,0.028876125812530518
1782814963396907300,9.4439072265625,1.2180957794189453,0.19540193676948547,0.1822681427001953
1782814963416990200,9.463990234375,1.3268073797225952,0.297806978225708,0.2367660403251648
1782814963437072400,9.484072265625,1.4079525470733643,0.3295738399028778,0.23526142537593842
1782814963457155300,9.5041552734375,1.4590426683425903,0.2894595265388489,0.23385196924209595
1782814963477238300,9.52423828125,1.4648081064224243,0.17631272971630096,0.28830426931381226
1782814963497320200,9.5443203125,1.4662888050079346,0.08284150063991547,0.3570874035358429
1782814963517403400,9.5644033203125,1.4690269231796265,0.11146881431341171,0.3426710069179535
1782814963537486300,9.584486328125,1.4455492496490479,0.23176732659339905,0.27067694067955017
1782814963557568300,9.604568359375,1.39612877368927,0.286945641040802,0.185350239276886
1782814963577651200,9.624651123046876,1.3351083993911743,0.2818889021873474,0.10329919308423996
1782814963597733400,9.6447333984375,1.2921077013015747,0.30140501260757446,0.02113312855362892
1782814963617816300,9.66481640625,1.2843539714813232,0.3618618845939636,-0.04504235461354256
1782814963637899500,9.6848994140625,1.3169745206832886,0.4156929850578308,-0.04019191861152649
1782814963657981400,9.7049814453125,1.3861061334609985,0.46128347516059875,0.028556907549500465
1782814963678064400,9.725064453125,1.4737144708633423,0.5152190327644348,0.08025500923395157
1782814963698147300,9.745147216796875,1.5518659353256226,0.5629971027374268,0.085027776658535
1782814963718229200,9.765229248046875,1.6221072673797607,0.5991968512535095,0.07243672013282776
1782814963738312200,9.785312255859376,1.6789549589157104,0.5715073347091675,0.09629298746585846
1782814963758394400,9.805394287109374,1.720655083656311,0.4836641550064087,0.16527877748012543
1782814963778477300,9.825477294921875,1.7311058044433594,0.3972061574459076,0.22579562664031982
1782814963798560300,9.845560302734375,1.7068579196929932,0.28412356972694397,0.21849901974201202
1782814963818642400,9.865642333984376,1.6769917011260986,0.2382545918226242,0.18014614284038544
1782814963838725400,9.885725341796874,1.640440583229065,0.29221874475479126,0.12371425330638885
1782814963858808300,9.905808349609375,1.5857717990875244,0.32881253957748413,0.08454970270395279
1782814963878890200,9.92589013671875,1.5016170740127563,0.3090950548648834,0.04672648012638092
1782814963898973200,9.94597314453125,1.4020097255706787,0.28873878717422485,0.028412003070116043
1782814963919055000,9.96605517578125,1.3204752206802368,0.32576966285705566,0.0541236437857151
1782814963939138000,9.986137939453124,1.250238299369812,0.42186444997787476,0.09807756543159485
1782814963959221200,10.00622119140625,1.17781662940979,0.4189305901527405,0.10537510365247726
1782814963979303400,10.026303466796875,1.1157689094543457,0.41350921988487244,0.08186054229736328
1782814963999386400,10.046386474609376,1.05852210521698,0.3871786296367645,0.036104507744312286
1782814964019470000,10.066469970703125,1.0275616645812988,0.36796674132347107,-0.01669168658554554
1782814964039552000,10.086552001953125,1.012226939201355,0.37738659977912903,-0.0465434230864048
1782814964059635000,10.106635009765625,0.9824725985527039,0.3769052028656006,-0.06307434290647507
1782814964079716900,10.126716796875,0.9314272403717041,0.3222046196460724,-0.08652876317501068
1782814964099800000,10.146800048828124,0.8852264881134033,0.1671442687511444,-0.11569859832525253
1782814964119883000,10.166883056640625,0.839500904083252,0.15075433254241943,-0.11087311804294586
1782814964139965200,10.186965087890625,0.8274205923080444,0.23197588324546814,-0.1364327371120453
1782814964160048000,10.207048095703126,0.8235518932342529,0.34733155369758606,-0.17539791762828827
1782814964180130000,10.227130126953124,0.8182831406593323,0.4099697470664978,-0.20967933535575867
1782814964200213000,10.247212890625,0.8067305088043213,0.335100919008255,-0.16770540177822113
1782814964220296200,10.267296142578125,0.7742575407028198,0.05857066810131073,-0.13474780321121216
1782814964240378000,10.287378173828126,0.7462236285209656,0.025485452264547348,-0.16428935527801514
1782814964260461000,10.3074609375,0.7509332895278931,0.14148326218128204,-0.22627140581607819
