time,seconds_elapsed,z,y,x
1782814965836999700,0.063999755859375,-0.43340310745835303,-0.04997106861025095,-0.27830833427123725
1782814965857082600,0.08408251953125,0.1731055731087923,0.13876403530687093,0.4666977665558457
1782814965877164500,0.10416455078125,0.9060755645096301,0.3141395991742611,0.45404615557976064
1782814965897247500,0.12424755859375,1.0142676436811684,0.1590671108841896,-0.10481865721568465
1782814965917330700,0.14433056640625,0.5550538031399249,0.370531933003664,-0.04825527766831219
1782814965937412900,0.164412841796875,0.004101590099930763,0.7055915706098079,-0.29346294104419646
1782814965957495800,0.184495849609375,0.23926292962729928,0.683237407721579,-0.46048517565131186
1782814965977577700,0.20457763671875,1.5009148500710725,0.4742795999869704,-0.12820698545724152
1782814965997660700,0.22466064453125,1.2351321623086928,0.26670564782619477,0.8681539762638508
1782814966017742000,0.2447421875,-0.7757803746014833,-0.6485783284030854,0.9276037979677318
1782814966037825000,0.264824951171875,-1.8095178579062223,-1.3782996932715177,0.8926923513233661
1782814966057908000,0.284907958984375,-1.3345318632155656,-1.1061007087260484,0.5742689373500645
1782814966077990100,0.304990234375,-0.23760113389492032,-0.23377836073637007,-0.6381053035750984
1782814966098073000,0.325072998046875,-0.3417214335829019,-0.3097353728659451,-0.47822950665652747
1782814966118155000,0.345155029296875,-0.4034814319252968,-0.32719226523190736,-0.01919526046589017
1782814966138238200,0.36523828125,-0.8396931670635939,0.04006225353628397,-0.04268851038664579
1782814966158321200,0.385321044921875,-0.5418406858235597,-0.06430325308442116,-0.4019006655398756
1782814966178403000,0.405403076171875,-0.07023615026473999,-0.2792354590535164,-0.5623815156795084
1782814966198486000,0.425486083984375,0.3696417061656713,-0.3601286124110222,-0.49327553848847744
1782814966218568200,0.445568115234375,0.5813455977380275,-0.4527871684946119,-0.33485432429239154
1782814966238651100,0.465651123046875,0.837165694412589,-0.6022200434625148,-0.3302914002910256
1782814966258733000,0.485733154296875,0.86942838011384,-0.898620426198095,-0.40769108550958333
1782814966278816300,0.505816162109375,0.5581260501921177,-1.031607485538721,-0.17977021862976253
1782814966298899200,0.525899169921875,0.3216238174498081,-0.768366737344116,0.04992065359726548
1782814966318981000,0.545981201171875,0.21654081020951269,-0.35858415944799776,0.021894801748171447
1782814966339064000,0.56606396484375,0.32413667705357074,-0.23908976501747964,0.0443870944654569
1782814966359146200,0.586146240234375,0.4399649501919746,-0.3057686611920595,0.010842954118922353
1782814966379229200,0.606229248046875,0.2880617395877838,-0.6436436484798789,0.1448123846935574
1782814966399312100,0.62631201171875,-0.0978156465858221,-0.7439432208359241,0.18575946737350896
1782814966419394000,0.64639404296875,-0.41579029387831684,-0.7024545877583325,0.15281819742410443
1782814966439477200,0.666477294921875,-0.44340076985955235,-0.6715712275862693,0.09023043388752267
1782814966459559200,0.68655908203125,-0.8362123392105102,-1.0385971982955933,0.02585285519156605
1782814966479642000,0.70664208984375,-0.8690916955053806,-1.1871966911792755,-0.36717363555170596
1782814966499724000,0.72672412109375,-1.0512602805137634,-1.0306148212395607,-0.6616065906718372
1782814966519807000,0.746806884765625,-0.9001800767302512,-0.7343379187531769,-0.8014709884360433
1782814966539890200,0.76689013671875,-0.6440776559829712,-0.6631750090323388,-0.5552152042467147
1782814966559972000,0.78697216796875,-0.27364100004732606,-0.5430418783068657,-0.42673385882750153
1782814966580055000,0.807054931640625,-0.46478082701861856,-0.48884252447709436,-0.08254145028749481
1782814966600137200,0.82713720703125,-0.5944377190232276,-0.2162168389521539,-0.03385404654592276
1782814966620220200,0.84722021484375,-0.7829413522720337,-0.04928045599758625,-0.02479442304666154
1782814966640302000,0.867302001953125,-0.9507067333966494,0.0953515945598483,-0.1489990409947466
1782814966660385000,0.887385009765625,-1.1374684914141893,0.21879940279126167,-0.16079883004762233
1782814966680468000,0.907468017578125,-1.3565262528806925,0.4165228459365666,-0.1990732685853727
1782814966700550100,0.927550048828125,-1.512262758037448,0.5861947913348674,-0.32752588110044595
1782814966720633000,0.947633056640625,-1.2114642864733933,0.6176290633879602,-0.6287398746628314
1782814966740715000,0.967715087890625,-0.4647270510047674,0.49496392996683714,-0.8285630665663629
1782814966760798200,0.987798095703125,0.31994740867018695,0.43348084886968136,-0.8519561440482735
1782814966780880100,1.007880126953125,0.8131400911808013,0.49589302751049397,-0.7265469726160169
1782814966800963000,1.027963134765625,0.9990835185527801,0.7172939911022782,-0.4899303927790373
1782814966821046000,1.0480458984375,1.03748426861763,0.9616526364333927,-0.206104957320448
1782814966841128200,1.068128173828125,1.109191660478711,1.1754358184978366,-0.03617483590999618
1782814966861211100,1.088211181640625,1.1390677433043717,1.259990416972339,0.02834892805730924
1782814966881293000,1.10829296875,1.0227502253443002,1.456452315749228,0.15680698393248022
1782814966901376000,1.1283759765625,0.7868453739732504,1.588494349324703,0.33542985915802415
1782814966921458000,1.1484580078125,0.6950415350228548,1.6333976131513714,0.5115879517052322
1782814966941541000,1.168541015625,0.675279434454441,1.4875973955973982,0.4886786391522735
1782814966961624000,1.1886240234375,0.6559709228724241,0.827245773422718,0.1509802505403757
1782814966981706200,1.208706298828125,0.5428875645279884,0.29837358250468965,-0.15919117565527557
1782814967001789200,1.2287890625,0.06041559799611568,-0.02168196271508932,-0.3858880536980927
1782814967021871400,1.248871337890625,-0.6115180331617593,-0.022050649897009132,-0.4490014394108206
1782814967041954300,1.268954345703125,-1.2118810505807398,0.29066797656342386,-0.36895949605517087
1782814967062036200,1.2890361328125,-1.3707248741030693,0.5222611022152006,-0.279722950309515
1782814967082119200,1.309119140625,-1.0404664992988109,0.47904199208319187,-0.22309848822467027
1782814967102201300,1.329201416015625,-0.5567798962801694,0.17712050783857702,0.07239223232008517
1782814967122284300,1.3492841796875,-0.14560557176470756,0.1768105651065707,0.10665405594930052
1782814967142367500,1.369367431640625,0.0745581051170826,0.08194879989027977,-0.07539221785366534
1782814967162449400,1.389449462890625,0.342409415847063,-0.11054448751658201,-0.2594125682085752
1782814967182532400,1.409532470703125,0.5547141959220171,-0.2342795882567763,-0.20119082699492571
1782814967202614300,1.4296142578125,0.8660662102043628,-0.48930210481286046,-0.09492387066707014
1782814967222697200,1.449697265625,1.1165876159489154,-0.8387656769551336,-0.02388181084692478
1782814967242779100,1.469779052734375,1.1512433342665433,-0.8828463723525405,-0.07639803389534354
1782814967262862000,1.489862060546875,0.9751151984661817,-0.8938727202143519,-0.12208616448938846
1782814967282944300,1.5099443359375,0.5549713855534791,-0.7161796001195907,-0.05895604683756828
1782814967303027500,1.53002734375,0.0058329439371824264,-0.47212446777969597,0.00303337634652853
1782814967323110400,1.5501103515625,-0.3798866213262081,-0.4195772650711238,0.061122065765038126
1782814967343192300,1.5701923828125,-0.4539876303255558,-0.5206078551154584,-0.0674380439788103
1782814967363275300,1.590275146484375,-0.32381752810180187,-0.8161696681350469,-0.10895546475946903
1782814967383357200,1.610357177734375,-0.37914486304819583,-0.9097637515030801,-0.10460413768216967
1782814967403440000,1.630440185546875,-0.4974263745576143,-0.8397137714602053,-0.11790296052061021
1782814967423522300,1.650522216796875,-0.5309627334564924,-0.7843518035918474,-0.07050130400694907
1782814967443605200,1.670605224609375,-0.4368219759911299,-0.7985810391481966,-0.03486592700220644
1782814967463687200,1.690687255859375,-0.24118191499114036,-0.806618872718513,0.04329728993475437
1782814967483770400,1.710770263671875,-0.0019487959802150724,-0.7598476230628788,0.27001097298189997
1782814967503853300,1.730853271484375,0.14149462931454182,-0.6944575976550579,0.3581440875303
1782814967523935200,1.750935302734375,0.17476210814416407,-0.7733357579283415,0.4597794385347515
1782814967544018200,1.77101806640625,0.018923311656713484,-0.6632455900505184,0.4481513984527439
1782814967564100400,1.791100341796875,-0.06391220794022083,-0.5875307526463642,0.46958756971321997
1782814967584183300,1.811183349609375,-0.055587447187304496,-0.609491166976653,0.5312891158666462
1782814967604265200,1.83126513671875,-0.12360124522745608,-0.6802696439571678,0.491401122918725
1782814967624348200,1.85134814453125,-0.27018238402605055,-0.6739277275845408,0.3242288123164326
1782814967644430300,1.871430419921875,-0.6628524990797042,-0.7151717382512986,0.393744247091189
1782814967664513300,1.89151318359375,-1.2439333084017037,-0.3052291109552607,0.6788502786785364
1782814967684595500,1.911595458984375,-2.018654529339075,0.39007688369005916,1.0158888151422143
1782814967704678400,1.931678466796875,-2.3437556675106284,0.9519094602499156,1.0882223760776222
1782814967724761300,1.95176123046875,-1.9849018973410129,1.2016004795849322,1.217627631408721
1782814967744843300,1.97184326171875,-0.9367004198759794,1.119801609559357,1.1572837834745644
1782814967764926200,1.99192626953125,0.07817103491723537,0.9170479171618818,0.9712786159779876
1782814967785008000,2.012008056640625,0.8069611102849245,0.7827428340252488,0.5927906824685633
1782814967805091300,2.03209130859375,1.160171906131506,0.7428904969125986,0.19168087504543363
1782814967825173500,2.052173583984375,1.1075707812786102,0.653306087577343,-0.05329115294367075
1782814967845256400,2.07225634765625,0.8981050240218639,0.7241800973542034,-0.30512736761383713
1782814967865338400,2.09233837890625,0.7732032175898551,0.7635800145242363,-0.44935299279484897
1782814967885421300,2.11242138671875,0.6594657792508601,0.7241279287755489,-0.5899098298026249
1782814967905503200,2.132503173828125,0.36781975143551826,0.8094225319623947,-0.7146054826706647
1782814967925586200,2.152586181640625,-0.07194821487963199,0.9594486966483294,-0.7710930935680865
1782814967945669000,2.172669189453125,-0.40057109743654723,1.0619763203173875,-0.900365735495463
1782814967965751300,2.192751220703125,-0.4963572840213775,1.0139322742469608,-1.0317570500772446
1782814967985834200,2.212834228515625,-0.3189332631915808,0.9680559276044368,-0.9899752062067388
1782814968005916400,2.23291650390625,0.0453045381039381,0.931179756758362,-0.7784362228725105
1782814968026000100,2.253000244140625,0.31801439478099347,0.8336436577662825,-0.5853550891077146
1782814968046082000,2.27308203125,0.3305944748908281,0.677885671430081,-0.6514362020522355
1782814968066165000,2.2931650390625,0.10871931791603565,0.44404520524293184,-0.7733389727987349
1782814968086247000,2.313246826171875,-0.28535014254152774,0.4043915325075388,-0.8126116833925247
1782814968106329900,2.333329833984375,-0.6306675547897815,0.34609263440445065,-0.7370510501693934
1782814968126412000,2.353412109375,-0.6466092202872038,0.294780088057369,-0.7419573077157139
1782814968146495000,2.373494873046875,-0.2538479198187589,0.09122326258346437,-0.715994598941505
1782814968166578200,2.393578125,0.3862298528730869,-0.10969956112504005,-0.6966263199962676
1782814968186660000,2.41366015625,0.8310276300489902,-0.3608180559799075,-0.7259900693856179
1782814968206743000,2.433742919921875,0.9356044413328171,-0.4862606912903487,-0.89092271130234
1782814968226825000,2.453824951171875,0.8014964151382445,-0.6245002643316984,-0.9334437561675906
1782814968246908000,2.473907958984375,0.4964642515271902,-0.6112988374531269,-0.8997817250624298
1782814968266989800,2.49398974609375,0.22161913638710976,-0.49708384473025796,-0.8223506948575376
1782814968287073000,2.514072998046875,0.10917758307754993,-0.4071573439590633,-0.5815974536072462
1782814968307155000,2.534155029296875,-0.042103111714124675,-0.42234161521792407,-0.41369222562052305
1782814968327238100,2.554238037109375,0.020931144347786902,-0.43804523417577146,-0.33429285448472945
1782814968347320000,2.574320068359375,0.22422902662456035,-0.5399430355086923,-0.19129337356518952
1782814968367403000,2.594403076171875,0.3066653177708387,-0.6440683036327361,-0.17646178820151834
1782814968387486000,2.61448583984375,0.0786404059946537,-0.6720108611125498,-0.11763060985263436
1782814968407568000,2.63456787109375,-0.08794073378145695,-0.609343173340708,-0.12058606212474406
1782814968427650800,2.65465087890625,-0.17421908730864524,-0.6037118894554674,-0.13636442681923508
1782814968447733000,2.67473291015625,-0.04044833024442196,-0.6613380028635263,-0.12470635692514478
1782814968467816000,2.69481591796875,0.1475520296573639,-0.7798650135666132,-0.06159348266907036
1782814968487897900,2.71489794921875,0.23528292008042334,-0.7977111975111066,-0.13707845684010533
1782814968507981000,2.73498095703125,0.013254618370532989,-0.8245566074039786,-0.22846642673229797
1782814968528063000,2.75506298828125,-0.363498965626955,-0.8695253376822918,-0.3456008322995156
1782814968548146000,2.77514599609375,-0.4476590118259191,-0.7743289336841553,-0.49398043535482133
1782814968568228000,2.79522802734375,-0.6087573362767696,-0.7084122540537268,-0.3609524960145354
1782814968588311000,2.81531103515625,-0.7658961094468831,-0.5826715125795453,-0.14998638979797252
1782814968608394000,2.83539404296875,-0.6644803925424814,-0.3399241749025881,-0.17423859572671352
1782814968628476000,2.855475830078125,-0.44862931816279883,-0.2268002653520554,-0.1784140730467625
1782814968648559000,2.87555908203125,-0.2193640509366989,-0.21444697973541915,-0.16948502625776454
1782814968668641000,2.89564111328125,-0.023795886129140853,-0.2611749017059803,-0.2547099982745014
1782814968688724000,2.915723876953125,0.11806816101968287,-0.23976561845242975,-0.2642438242899254
1782814968708806100,2.93580615234375,0.005396890607476234,-0.1037085040166974,-0.20222278212485834
1782814968728889000,2.95588916015625,-0.38466450325250623,0.09865326645374298,-0.11967481989818625
1782814968748971000,2.975970947265625,-0.8609645031511783,0.331313582945615,-0.1874134268593043
1782814968769054000,2.996053955078125,-1.077163952577114,0.46464024950414895,-0.36236261854078616
1782814968789136000,3.016135986328125,-0.7261632339954376,0.5176292046308517,-0.5252655812608078
1782814968809218800,3.03621875,-0.16278642366826535,0.46696840019077057,-0.49414121540710326
1782814968829301000,3.056301025390625,0.018680735072493553,0.3796151109084487,-0.5073727816956117
1782814968849384200,3.07638427734375,-0.20845921056270597,0.4348348938271403,-0.610829283712618
1782814968869467100,3.096467041015625,-0.4032359327316284,0.6290872998610139,-0.7030149250548332
1782814968889549000,3.116549072265625,-0.3506804005861282,0.8361220305785536,-0.8019216548129916
1782814968909632000,3.136632080078125,0.058249944394826884,0.9573898644223808,-0.7295538993470371
1782814968929714000,3.1567138671875,0.6251286253631114,1.0945705760605633,-0.40589474014472215
1782814968949796900,3.176796875,0.9357587551116943,1.1914689616709946,0.008698790830234065
1782814968969878800,3.196878662109375,1.017414709535241,1.223363690842688,0.2837545804457739
1782814968989962000,3.2169619140625,1.016676458388567,1.0333972915649414,0.4040582454325631
1782814969010044000,3.2370439453125,0.9954407781362533,0.8068760623499751,0.5315956245325505
1782814969030126800,3.257126953125,0.9156313283622264,0.6459440343767404,0.6387177363850176
1782814969050208800,3.277208740234375,0.9295826968252658,0.48354339515566824,0.7419697288058698
1782814969070291700,3.297291748046875,0.7620236519277095,0.27815102481767534,0.5994390344418585
1782814969090374700,3.317374755859375,0.364379255592823,0.11829290968626736,0.2954761805627495
1782814969110456800,3.337456787109375,-0.28247254127860066,0.10030366400927304,0.19118162028640506
1782814969130539800,3.357539794921875,-1.1469593733370302,0.1708575019210577,0.10324441190259531
1782814969150622000,3.3776220703125,-1.5207880097985267,0.25435806129798294,0.1689530930718407
1782814969170705000,3.397704833984375,-1.377935536134243,0.2865272234968841,0.3405673316443339
1782814969190786800,3.417786865234375,-0.8363456102013588,0.2908255052126944,0.5183842607818544
1782814969210869800,3.437869873046875,-0.15719371822774408,0.13836407620385288,0.5408380481196567
1782814969230951700,3.45795166015625,0.29726737482845783,-0.084961279579252,0.5097781988695264
1782814969251034600,3.47803466796875,0.5522141957998276,-0.26459172441214324,0.47406847798693924
1782814969271116800,3.49811669921875,0.6663222210168838,-0.32386677407100795,0.5218267293859273
1782814969291199700,3.51819970703125,0.6920721638232469,-0.31530878908410664,0.4228997605573386
1782814969311281700,3.53828173828125,0.6356652169466018,-0.4750223811782896,0.25582606975762173
1782814969331364900,3.55836474609375,0.32210604800879955,-0.6107067167788743,0.08376918371785431
1782814969351446800,3.57844677734375,-0.0019195698857307434,-0.6185016084387898,0.00783700463543646
1782814969371529700,3.59852978515625,-0.06252981367111206,-0.6471408429458737,0.030881967365997843
1782814969391612700,3.61861279296875,0.055364744347333905,-0.738025813485682,0.1079875513090752
1782814969411694800,3.63869482421875,0.08080196794271469,-0.8225087349634617,0.19591701477784662
1782814969431777800,3.65877783203125,-0.03752630531787872,-0.8679781082402914,0.19180671164849772
1782814969451859700,3.678859619140625,-0.2523655723065138,-0.8297745612479746,0.09476369340298697
1782814969471943000,3.69894287109375,-0.4652139577388763,-0.8562775874439627,0.0403315171980299
1782814969492024800,3.71902490234375,-0.5339882187575101,-0.8536758805129676,0.031150621389679143
1782814969512107800,3.739107666015625,-0.36957448614835736,-0.8466199706520885,0.06804705185578204
1782814969532190000,3.75918994140625,-0.19137772738039494,-0.8564981713920831,0.12854812704510987
1782814969552273000,3.77927294921875,-0.014516016608476639,-0.8107042423360049,0.14794457263890654
1782814969572354800,3.799354736328125,0.16366846719980238,-0.8494074094135313,0.17518172179572283
1782814969592437800,3.819437744140625,0.2834434321373701,-0.890663475844264,0.1518919768241234
1782814969612519700,3.839519775390625,0.22870412621200084,-0.8499858668886124,0.052860533840907734
1782814969632602600,3.8596025390625,0.1886550244182348,-0.8088662132538854,-0.003909873769979458
1782814969652685800,3.879685791015625,0.29843934121727944,-0.7144147824041545,0.024093974026571957
1782814969672768000,3.89976806640625,-0.15282850875556467,-0.6086648356877267,0.12451799474619328
1782814969692851000,3.919850830078125,-0.6417062506765127,-0.3435571245774627,0.10806666269358246
1782814969712932900,3.939932861328125,-1.0538175637811422,-0.05803031029477715,0.07217537469901145
1782814969733015800,3.960015869140625,-1.10121118311882,0.11401873949840664,0.0133584029719932
1782814969753097700,3.98009765625,-0.8659364463448525,0.24382015454024075,0.05634475922747515
1782814969773180700,4.0001806640625,-0.6343897901833057,0.3484891741521656,0.1558396732702851
1782814969793262800,4.020262939453125,-0.4290858287811279,0.49860067903399463,0.22701279385788364
1782814969813345800,4.040345703125,-0.3118582102388143,0.6601984774395823,0.238553393118456
1782814969833427700,4.060427734375,-0.03958323784768581,0.7693832209102809,0.17907967908233402
1782814969853511000,4.080510986328125,0.2513537649154663,0.8045818139329552,0.11696429143100977
1782814969873592800,4.1005927734375,0.3837953192025423,0.85454104597494,-0.050063724462920796
1782814969893675800,4.12067578125,0.3846142343699932,0.8780667368605732,-0.2650706487691961
1782814969913757700,4.1407578125,0.28748014030754565,0.7957347828716039,-0.492541707788594
1782814969933840600,4.160840576171875,0.10677402906715869,0.7130633677951991,-0.635670477643609
1782814969953923600,4.180923583984375,-0.033359833288192746,0.7951309717595577,-0.7427922972351312
1782814969974005800,4.201005859375,0.1067956563770771,0.7619999787911772,-0.7135034397128969
1782814969994089000,4.2210888671875,0.194393275809288,0.6210185596957802,-0.7267808544371277
1782814970014169900,4.241169921875,0.23072189577519892,0.4905228787794709,-0.7975487004257739
1782814970034252800,4.261252685546875,0.5142927536845207,0.43087724224254487,-0.8193583811737597
1782814970054335000,4.2813349609375,0.7884802816987038,0.2877351379819214,-0.7418005827840417
1782814970074418000,4.30141796875,0.6618184798568487,0.20897271304279563,-0.8665704333994537
1782814970094499800,4.321499755859375,0.14258067098557947,0.16044935902282595,-0.9171093650255352
1782814970114582800,4.341582763671875,-0.6557955663055182,0.3033569238752126,-0.7393062086850404
1782814970134664700,4.361664794921875,-1.3253174601465463,0.4551860463298857,-0.42709520295318215
1782814970154748000,4.381747802734375,-1.8721482093423605,0.6580274170108139,-0.3505884479863569
1782814970174830000,4.401830078125,-1.450797358727455,0.6190313314013183,-0.31398017082884905
1782814970194913000,4.4219130859375,-0.37268998782038687,0.2075735137693584,-0.24797278070766476
1782814970214995000,4.441994873046875,0.4602303241074085,-0.11141001830473542,-0.3568976311331615
1782814970235078000,4.462077880859375,0.9357511563271284,-0.30195392520949244,-0.4064437888622284
1782814970255159800,4.482159912109375,0.9909516500234603,-0.3554743568643927,-0.3313887305410579
1782814970275242800,4.50224267578125,0.7482955708265304,-0.32342779813185335,-0.3408030766289681
1782814970295325000,4.522324951171875,0.5583540137290954,-0.30069559571146964,-0.4249702466884628
1782814970315408000,4.542407958984375,0.509823499315977,-0.35324309068098664,-0.5080891132714227
1782814970335490800,4.56249072265625,0.599737578997016,-0.4380686150513589,-0.548903573414497
1782814970355573000,4.582572998046875,0.7727344310343265,-0.4886585462123155,-0.5078122690914199
1782814970375656000,4.602656005859375,0.7408803261339664,-0.5199707993209362,-0.4134108879284933
1782814970395737900,4.62273779296875,0.5092693725645542,-0.48304786672368644,-0.40180403676498677
1782814970415820800,4.64282080078125,0.20945406681895254,-0.45021687961518764,-0.36578119481261817
1782814970435902700,4.66290283203125,-0.0784527744680643,-0.3593658113449812,-0.34412630276754497
1782814970455985700,4.682985595703125,-0.1836532706081867,-0.4321981155827641,-0.28119901421144605
1782814970476067800,4.70306787109375,-0.28620237545669075,-0.4383937553524971,-0.3081217636568472
1782814970496151000,4.723151123046875,-0.2512514735847711,-0.5228028078764677,-0.2615737648304552
1782814970516233000,4.74323291015625,-0.015761048233509063,-0.5828090944193304,-0.26812417285460977
1782814970536316000,4.76331591796875,0.13080956917107103,-0.6769310010537505,-0.2381612519957125
1782814970556397800,4.783397705078125,-0.04349602737724781,-0.6830916425753385,-0.3533746446387842
1782814970576480800,4.803480712890625,-0.28888649997413157,-0.7301222007542848,-0.45179607509803027
1782814970596563000,4.82356298828125,-0.3475935404866934,-0.7508553383119404,-0.5735568435579538
1782814970616646000,4.84364599609375,-0.2594301038652658,-0.8634919758021831,-0.5849836985120549
1782814970636727800,4.863727783203125,-0.13989713099002837,-0.9123027684614062,-0.6431218165628612
1782814970656810800,4.883810791015625,-0.6474731436401605,-0.791904849319905,-0.6652858637064695
1782814970676894000,4.90389404296875,-0.952096726450324,-0.5224924267530441,-0.6426095561917871
1782814970696976000,4.923975830078125,-0.7334083828181028,-0.3025802404142916,-0.5290750565463677
1782814970717058800,4.944058837890625,-0.2998568067997694,-0.2319556753538549,-0.45052002728022633
1782814970737141000,4.96414111328125,-0.2686263867557049,-0.16989873989149928,-0.5601650086738169
1782814970757224000,4.984223876953125,-0.6066197397261858,0.2052547154329717,-0.5997558087734505
1782814970777305900,5.004305908203125,-0.8160960183769465,0.5785935225509107,-0.3781111360862851
1782814970797388800,5.024388916015625,-0.763154701784253,0.8089983152009547,-0.37693624708801504
1782814970817470700,5.044470703125,-0.37563714718818664,0.8388941256403922,-0.4926434511300176
1782814970837554000,5.064553955078125,-0.09547872807085514,0.7792194091394543,-0.6466116314399987
1782814970857636000,5.084635986328125,-0.08178104210793971,0.8718898017913103,-0.8231378997124731
1782814970877719000,5.104718994140625,-0.4421078074395656,1.006140743587911,-0.955422071480751
1782814970897801000,5.124801025390625,-0.7463871068567037,1.183549566848576,-1.1125171516396104
1782814970917884000,5.1448837890625,-0.6575538081496953,1.196118979433924,-1.1329184268943964
1782814970937965800,5.1649658203125,-0.09564648585319518,1.147432689937204,-0.9991884402319788
1782814970958048800,5.185048828125,0.5243903693288564,1.0905591484621167,-0.7337952632438391
1782814970978131000,5.205130859375,0.9842822552621364,1.0107403463378548,-0.6538496929347515
1782814970998214000,5.2252138671875,1.2732073336809873,0.878541807026416,-0.6523886804714799
1782814971018296600,5.245296630859375,1.217975860324502,0.7354442725598812,-0.5988697831865399
1782814971038379500,5.265379638671875,0.8100684286504983,0.7385666423641145,-0.6459808592557906
1782814971058461400,5.28546142578125,0.6074544369846582,0.7248350541315972,-0.7450717134092003
1782814971078544400,5.30554443359375,0.4873842884927988,0.6192749308988451,-0.8096753376796841
1782814971098626300,5.325626220703125,0.059247723260521884,0.6373429409004747,-0.8593043148539959
1782814971118709200,5.345709228515625,-0.35804654543995856,0.7000503030955791,-0.8947312367398291
1782814971138791400,5.36579150390625,-0.7316109780073166,0.8050351106584072,-0.796551652212441
1782814971158874400,5.385874267578125,-1.1029109727740287,0.9654675185464322,-0.6459811515167355
1782814971178956300,5.405956298828125,-1.1977508184194565,1.0562770857624708,-0.4241068347921595
1782814971199039500,5.42603955078125,-0.9646025722801684,1.0706086857147514,-0.25016313035879284
1782814971219122400,5.446122314453125,-0.6005512334674596,0.9845661867700517,-0.15965941422153263
1782814971239204400,5.466204345703125,-0.26181319960951804,0.8571950676150619,-0.1627186191290617
1782814971259287300,5.486287353515625,-0.10547814403772353,0.8085463336497545,-0.17695724356826395
1782814971279369500,5.506369384765625,-0.15152151781022546,0.87181556751132,-0.09219042711518705
1782814971299452400,5.526452392578125,-0.2113508403509855,0.9486989007055759,-0.022223887572064994
1782814971319534300,5.546534423828125,-0.20834113714098929,1.0443471401244402,0.09364486370719968
1782814971339617300,5.5666171875,-0.17877192830741404,1.1062371945872902,0.17266842380054295
1782814971359699200,5.58669921875,0.0653384413510561,1.0491929727204143,0.14626111306399106
1782814971379782400,5.606782470703125,0.3102338239073753,0.8943386572256684,0.03653656362816691
1782814971399864300,5.6268642578125,0.440083608135581,0.7251362290352582,-0.13643917255587876
1782814971419947300,5.646947265625,0.5113257205724716,0.6743355777330696,-0.3488925673212856
1782814971440030500,5.667030517578125,0.528231262665987,0.72484849813506,-0.4533410760503262
1782814971460112400,5.6871123046875,0.4456850814044475,0.7706517795413732,-0.5459660951904952
1782814971480195300,5.7071953125,0.31451953840255736,0.718571755953133,-0.6059812226269394
1782814971500277200,5.72727734375,0.19987375304698943,0.7120151739165187,-0.5678107741866261
1782814971520360400,5.7473603515625,0.06911445275843144,0.8041760096110403,-0.4965393625900149
1782814971540442400,5.7674423828125,-0.12131108846366405,0.8714001185782253,-0.4084326976571232
1782814971560525300,5.787525390625,-0.3337450478762388,0.9270245367750525,-0.36083515324518084
1782814971580607500,5.807607421875,-0.57520519528687,0.7322577514782548,-0.4932297996506095
1782814971600690400,5.8276904296875,-0.7867892598718405,0.5543517923504114,-0.7411487678118049
1782814971620772400,5.8477724609375,-0.8536451200485229,0.5441964551694691,-0.7190322130717337
1782814971640855300,5.867855224609375,-0.8172785061597824,0.5801053153533489,-0.34174189184904097
1782814971660937200,5.887937255859375,-0.7456359962284564,0.653839463801682,0.020811865349672734
1782814971681020200,5.908020263671875,-0.6995318321794272,0.6773878779757767,0.1464645997468382
1782814971701103400,5.928103271484375,-0.7727320929467678,0.7136752891484648,0.2640415797160938
1782814971721185500,5.948185546875,-0.5085036488890647,0.7990026986263692,0.2850240158597007
1782814971741268500,5.9682685546875,-0.6675824502110481,0.7810423867829144,0.45699872177504003
1782814971761350400,5.988350341796875,-0.7031862630337476,0.9150115890286862,0.5981305091265589
1782814971781433300,6.008433349609375,-0.1309200438082218,0.879166660926491,0.771791597226262
1782814971801515300,6.028515380859375,0.34292671771943567,0.6900417539741843,0.9463470038171857
1782814971821598200,6.04859814453125,0.4472036692738533,0.5245739822674542,0.9043036594662814
1782814971841680400,6.068680419921875,0.3950193085283041,0.3383377824939787,0.7048876601241528
1782814971861763600,6.088763671875,0.00639876112639904,0.3638319239083677,0.5235477810248732
1782814971881845500,6.108845458984375,-0.4720779982894659,0.6471016069140285,0.5303041964825242
1782814971901928400,6.128928466796875,-0.966281903669238,0.8468585286483168,0.5825030241448432
1782814971922010400,6.14901025390625,-1.258153556933999,0.9555120878517627,0.665363678183034
1782814971942093300,6.16909326171875,-1.0405582692354918,0.8801567679423838,0.63785074429214
1782814971962175500,6.189175537109375,-0.420146735522151,0.5474639325328171,0.5415072891507298
1782814971982258400,6.209258544921875,0.14875263761878013,0.3361665759347379,0.3472070253871381
1782814972002340400,6.22934033203125,0.4826385552704334,0.2691550868049264,0.16974212455768137
1782814972022423300,6.24942333984375,0.7293564770787954,0.28638321191631255,0.010080079987645148
1782814972042505200,6.269505126953125,0.7916349463373422,0.2295746985014528,-0.24734277570843696
1782814972062588200,6.289588134765625,0.5792383963257074,0.1862497168421745,-0.6047128101263195
1782814972082670300,6.30967041015625,0.13916063340902327,0.25492066361680626,-0.7989346018262207
1782814972102753300,6.329753173828125,-0.19299802205860614,0.4294016167320311,-0.8721252910476177
1782814972122836200,6.349836181640625,-0.3393886067211628,0.5157588807143271,-0.9592376111809163
1782814972142918400,6.36991845703125,-0.38959143826067444,0.4966670806229114,-0.992283410083875
1782814972163001300,6.39000146484375,-0.31581542343199254,0.556787348934263,-0.9489404543764889
1782814972183083300,6.410083251953125,-0.24051263742744922,0.6717736182905734,-0.8408103345252573
1782814972203166200,6.430166259765625,-0.13539689696133136,0.735378367716819,-0.7128782204866408
1782814972223248100,6.450248046875,-0.1569634166032076,0.6823951116785406,-0.6635090632922948
1782814972243331000,6.4703310546875,-0.15409750577807427,0.6301397315233945,-0.7697527848750353
1782814972263413200,6.490413330078125,-0.07956161249279975,0.5347361145153642,-0.757702427727729
1782814972283496400,6.510496337890625,-0.016092472144961355,0.5417122371383011,-0.6639487698838115
1782814972303578400,6.530578369140625,0.07812310412228107,0.48018064072430133,-0.5994906550312414
1782814972323661300,6.550661376953125,0.2308189264088869,0.4016564084552228,-0.5864295134061948
1782814972343743200,6.5707431640625,0.28633915357887746,0.1226832535997033,-0.5206297381537035
1782814972363826200,6.590826171875,-0.06507073032557964,-0.016109569410234687,-0.537568963321112
1782814972383908400,6.610908447265625,-0.48176118791401384,-0.14322437571659682,-0.1653109737098217
1782814972403991300,6.6309912109375,-0.10710077680349349,0.32249095567315816,-0.16661705133970825
1782814972424073200,6.6510732421875,0.23664660964906215,0.75351827391088,-0.822552135713771
1782814972444156200,6.67115625,0.18847557619810104,0.4075014812216162,-0.6564692277833819
1782814972464238000,6.691238037109375,0.2655634920537472,0.1990750038847327,-0.2624534154755063
1782814972484321300,6.7113212890625,0.4010083198100328,0.03419292311146855,-0.053607963807880875
1782814972504403500,6.731403564453125,0.46457799792289733,-0.03328764483481646,0.0901638349247165
1782814972524486400,6.751486328125,0.29578911896944043,-0.0982496540889144,-0.01167202535420656
1782814972544568300,6.771568359375,-0.052666591304540634,-0.016089841796457765,-0.05242469057375565
1782814972564651300,6.7916513671875,-0.09672902039289474,0.0626893881469965,-0.06439267123381141
1782814972584733200,6.811733154296875,0.1721943034827709,0.039355566571652886,0.05629274591244757
1782814972604816100,6.831816162109375,0.5183668712556362,-0.15974515627622604,0.1460601197323296
1782814972624898300,6.851898193359375,0.6348831266582012,-0.3187539611019194,0.09799239139221608
1782814972644981500,6.8719814453125,0.4222440000623464,-0.4212919600345194,-0.01661063253385946
1782814972665063400,6.8920634765625,0.024705986711382865,-0.45540378073379395,-0.0516051360854879
1782814972685146400,6.912146484375,-0.3174421478509903,-0.31821181704923507,-0.030971495113242417
1782814972705229300,6.932229248046875,-0.3982598978847265,-0.17701207902804017,-0.08996995632043107
1782814972725311200,6.952311279296875,-0.2791471962481737,-0.16641235908046365,-0.13052426768997683
1782814972745394200,6.972394287109375,-0.24963410151600837,-0.333022871081531,-0.05308200370501726
1782814972765476400,6.992476318359375,-0.46838966516554353,-0.40731837973967194,0.12755182775044813
1782814972785559300,7.012559326171875,-0.6815501852869987,-0.31278540808632965,-0.013469137904047966
1782814972805641200,7.03264111328125,-0.697144644781947,-0.30474837823361156,-0.21576502179773524
1782814972825724400,7.052724365234375,-0.5146405442088842,-0.37012598255127666,-0.32311069500669837
1782814972845806300,7.072806396484375,-0.21610651044547557,-0.4681698849350214,-0.3154938633274287
1782814972865889300,7.09288916015625,-0.14345394668877123,-0.3922777547352016,-0.24043299631997941
1782814972885971200,7.11297119140625,-0.15836276200711727,-0.14106091407239435,-0.11831466486034914
1782814972906054100,7.13305419921875,-0.058820437759160994,0.05616144768297672,-0.12248278085784986
1782814972926136300,7.15313623046875,0.1704477520763874,0.13745105301216243,0.01226960765486583
1782814972946219300,7.17321923828125,0.4592471582889557,0.16491656756475567,0.26999734631534666
1782814972966301200,7.19330126953125,0.6471510720789432,0.11244520657137036,0.4017599784275517
1782814972986384400,7.21338427734375,0.6617524288833141,0.000028057050704956055,0.3188153724329546
1782814973006466300,7.23346630859375,0.5481517686665058,-0.09510156532153487,0.1448093433531001
1782814973026550000,7.253550048828125,0.09820376912057399,-0.10082914918810129,0.0723725595052354
1782814973046632000,7.2736318359375,-0.31978783419430257,0.017801468019932508,-0.05049927546912804
1782814973066715100,7.293715087890625,-0.35316754122674465,0.16752002806141972,-0.03691332451868802
1782814973086797300,7.31379736328125,-0.0737514649093151,0.28304756468757986,0.11651011792272328
1782814973106880300,7.33388037109375,0.19187690907418728,0.309083777089417,0.34265988347679377
1782814973126962200,7.353962158203125,0.3266173879534006,0.22121610854417084,0.3240997425766662
1782814973147045000,7.374045166015625,0.35731940020918845,0.2291920558594167,0.42899763904102145
1782814973167127000,7.394126953125,0.13604746982455254,0.4772853576742112,0.6644542351879179
1782814973187210000,7.4142099609375,-0.11407821460068225,0.8288209137849509,0.7422204886965453
1782814973207292200,7.434292236328125,-0.5150403571814298,0.7148464518196881,0.7383644708555192
1782814973227375400,7.454375244140625,-0.9070628219813108,0.5504558078251779,0.326563465809077
1782814973247457300,7.474457275390625,-1.1548498343259095,0.40869361361563206,0.11060838306564837
1782814973267540200,7.494540283203125,-1.196785188257694,0.3947428296744823,0.10423320374423638
1782814973287622100,7.5146220703125,-0.898724032703042,0.4195655746333301,0.1297935422626324
1782814973307705000,7.534705078125,-0.5130255102276802,0.43350919818133116,0.23170244951145721
1782814973327787300,7.554787353515625,-0.2412450433552265,0.40703839375451206,0.18496603370718656
1782814973347870200,7.5748701171875,-0.001367196699976921,0.3513134377926588,0.14593800032315776
1782814973367952100,7.5949521484375,0.20064473741948605,0.31943463684245943,0.051863901186105794
1782814973388035000,7.61503515625,0.47651159682273864,0.25014994208365676,0.013346408856811466
1782814973408117000,7.635116943359375,0.8082505655735731,0.19321751002818344,0.07882713333894498
1782814973428200200,7.6552001953125,1.0760638823807238,0.1462606746725738,0.17269476381819696
1782814973448282400,7.675282470703125,1.1383674860805273,-0.023921996726840734,0.15980017439909278
1782814973468365300,7.695365234375,0.9701666361480951,-0.17102599035575985,0.10086639419225975
1782814973488447200,7.715447265625,0.6414262646913528,-0.2698299173265695,0.08801489499621093
1782814973508530200,7.7355302734375,0.5045417595207691,-0.2309369998306036,0.06209920370150357
1782814973528612000,7.755612060546875,0.514545851662755,-0.24035773912668226,0.24370083900950848
1782814973548695000,7.775695068359375,0.42766310250163075,-0.3393278164446354,0.32928631490170956
1782814973568777000,7.79577685546875,0.008922726646065712,-0.33339564991667864,0.29237806841693814
1782814973588860200,7.815860107421875,-0.31174189038276673,-0.31575287958979603,0.17848649896215646
1782814973608942300,7.8359423828125,-0.4987152453243732,-0.3743478380300104,0.20747962494082747
1782814973629025300,7.856025390625,-0.6789058082580566,-0.34940994225889443,0.22366719149071723
1782814973649107200,7.876107177734375,-0.7928186031639576,-0.27987375695705413,0.30175613761506975
1782814973669190100,7.896190185546875,-0.5314993245512247,-0.27133272310495377,0.27725203015133737
1782814973689272000,7.91627197265625,0.008953706306219101,-0.4608528399199247,0.27302111458331346
1782814973709355000,7.93635498046875,0.36015082424283024,-0.6519638791881501,0.25480383230410514
1782814973729437200,7.956437255859375,0.28261224201023577,-0.7401241009391843,0.2558916275408119
1782814973749520100,7.97652001953125,0.12353051807880401,-0.6823240922689437,0.09046667206250131
1782814973769602000,7.99660205078125,0.21851824776232243,-0.7709475476175546,0.09382175464406609
1782814973789685200,8.016685302734375,0.3582055353939533,-0.864600959957391,0.14833839426208287
1782814973809767200,8.03676708984375,0.22017536731958387,-0.874225259001553,0.16534286668542772
1782814973829850000,8.05685009765625,-0.13746142827570437,-0.7807152006551623,0.1882042667097412
1782814973849932300,8.076932373046875,-0.36558921590447424,-0.6917655820921063,0.1533029396005906
1782814973870015200,8.09701513671875,-0.39985681168735027,-0.7126034951984882,0.20450740419700741
1782814973890097200,8.11709716796875,-0.2700128726780414,-0.7612640657320618,0.35149080365356056
1782814973910180000,8.13718017578125,0.16891221307218074,-0.7316517484091222,0.504250594554469
1782814973930262000,8.157261962890624,0.04355681765377521,-0.6002386603869497,0.7057103746838868
1782814973950345000,8.177344970703125,-0.45159284414350986,-0.36788521788716316,0.6025677974542603
1782814973970427400,8.197427490234375,-0.36375031003952024,-0.32599721022844314,0.42764392287712544
1782814973990510300,8.21751025390625,0.08044190245866775,-0.47490226192995905,0.5617988934859633
1782814974010591500,8.237591552734376,0.18309739029109476,-0.4145546146035194,0.7497821561224758
1782814974030674400,8.25767431640625,0.08334872981607913,-0.21367183064445852,0.6642993368871509
1782814974050756400,8.27775634765625,-0.189247729614377,-0.022254940297454593,0.4849972106931731
1782814974070839300,8.29783935546875,-0.44956163057684895,0.10138722146227955,0.24818092529932034
1782814974090921500,8.31792138671875,-0.30841186917722224,0.15416457966491579,0.21531685790512708
1782814974111004400,8.33800439453125,-0.0007148702710866927,0.24918591935709117,0.30719325063508
1782814974131086300,8.35808642578125,0.18119477154016495,0.42665787098184227,0.30955881072264163
1782814974151169300,8.378169189453125,0.1318400812625885,0.5310561108283698,0.2708802848960273
1782814974171251200,8.398251220703125,0.019712416207790375,0.6245043559849262,0.08528669387502595
1782814974191334400,8.41833447265625,-0.0028442835152149197,0.6007819734834134,-0.10449185468042269
1782814974211416600,8.43841650390625,0.06317571035921574,0.5819735203780233,-0.25791725161690265
1782814974231499500,8.45849951171875,0.1267109016805887,0.539755111721158,-0.35844409339018163
1782814974251581400,8.47858154296875,0.12595628392100333,0.5772467841170728,-0.44826377278603613
1782814974271664400,8.498664306640626,-0.006150923845171928,0.8056495892949402,-0.6183577429886907
1782814974291746300,8.518746337890626,-0.17691724035143852,0.9317888285674154,-0.7976926389411091
1782814974311829200,8.538829345703125,-0.17214345007836818,0.8497356915198266,-1.134675353564322
1782814974331911400,8.558911376953125,-0.03298457023501396,0.6415417077645659,-1.250105128904432
1782814974351994600,8.57899462890625,0.22733576046824455,0.5670385477051139,-1.137416761226952
1782814974372076500,8.59907666015625,0.5507803636044264,0.3500162375889718,-1.1371069646254182
1782814974392159500,8.619159423828124,0.7815408378243446,0.06899301833584905,-1.119217233800143
1782814974412241400,8.639241455078125,0.6915221287250518,-0.16654752976745366,-1.1086965704381466
1782814974432324400,8.659324462890625,0.14228081125617026,-0.05213818351626396,-0.9781003517568111
1782814974452406500,8.679406494140625,-0.41420916216671466,0.24236659473106265,-0.7659330073911697
1782814974472489500,8.699489501953124,-0.6822551186859608,0.26936376111954446,-0.4605490346677601
1782814974492571400,8.7195712890625,-0.46119653879106043,0.10554331822842358,-0.2565708785092458
1782814974512654300,8.739654296875,-0.06494330455362797,-0.216287566100806,-0.18125897761648518
1782814974532736300,8.759736328125,0.27397885369956493,-0.47236894406005736,-0.1488574679664336
1782814974552819500,8.7798193359375,0.5031926829993725,-0.5819440020225942,-0.11533833419699221
1782814974572901400,8.7999013671875,0.6874556099385023,-0.6647839055337011,-0.1065449147527106
1782814974592984300,8.819984375,0.7260211951762437,-0.8458923139646649,-0.1629668034701608
1782814974613066500,8.84006640625,0.36855157284140583,-0.8677866042561828,-0.18331749931517988
1782814974633149400,8.8601494140625,-0.1754232024013996,-0.6806276636146008,-0.16308577194102108
1782814974653231400,8.8802314453125,-0.38615912572443484,-0.6141482355348765,-0.07290372550617903
1782814974673314300,8.900314208984375,-0.2958031474947929,-0.6121814655065536,0.029793683505523947
1782814974693396200,8.920396240234375,-0.14532733934521674,-0.7173734860792755,0.02059312629876658
1782814974713479400,8.9404794921875,0.10211246699690818,-0.7382381410621106,0.12975501861684025
1782814974733561600,8.9605615234375,0.2952724016189575,-0.6715444857098162,0.2788556659556925
1782814974753644500,8.98064453125,0.36894027989804745,-0.6380771003939211,0.2853626732295379
1782814974773726500,9.0007265625,0.23527941294908522,-0.7269120065361261,0.21687183226216583
1782814974793809400,9.020809326171875,-0.010006430229544639,-0.7976289260551332,0.17618487095627933
1782814974813891300,9.040891357421875,-0.382936072024703,-0.8028153887823224,0.12034494684524834
1782814974833974300,9.060974365234374,-0.5076642754554749,-0.6137552906945347,-0.044847953442856664
1782814974854056400,9.081056396484374,-0.9962672920882701,-0.506378911820054,0.024429617455415425
1782814974874139400,9.101139404296875,-1.57723528868556,-0.2807365112662315,-0.10844937840085477
1782814974894221300,9.12122119140625,-1.655420352128148,-0.12252514042854308,-0.10394017561441286
1782814974914304500,9.141304443359376,-1.3582120140105485,-0.07389364985898136,0.0722618291397579
1782814974934387500,9.161387451171874,-1.065865728971362,0.16563523722812531,0.2801741281431168
1782814974954469400,9.181469482421875,-1.16600192745924,0.2586987208507955,-0.0021054478466510772
1782814974974552300,9.20155224609375,-1.3418413094460964,0.4570433646343648,-0.44273178455680606
1782814974994634500,9.221634521484376,-0.8942781592100858,0.5976354921512306,-0.5897080966854468
1782814975014717000,9.241717041015624,0.09342238006293774,0.683358696013689,-0.3129655869588256
1782814975034798800,9.261798828125,0.7241039633780717,0.7398468914330005,-0.051268853335827584
1782814975054881800,9.2818818359375,0.8693500541806221,0.9317840062618256,-0.04287130134133622
1782814975074963700,9.301963623046875,0.6537146683782339,1.10108083473742,-0.2507447661716491
1782814975095063800,9.322063720703126,0.5194815544992685,1.12620723881796,-0.4875714085627347
1782814975115128800,9.34212890625,0.6551701278835534,1.0977202722631394,-0.5824240406244993
1782814975135210800,9.362210693359375,0.830740629801154,0.9711359195716679,-0.5192023356990888
1782814975155294000,9.3822939453125,0.9471832354456186,1.0465209770321846,-0.2304713185476139
1782814975175376000,9.4023759765625,0.9557131633818149,1.16242538414672,0.09914028278570622
1782814975195458800,9.422458740234376,0.7508908480167389,1.2257197524495422,0.27460498624127355
1782814975215541000,9.442541015625,0.4162012127667665,1.0278022480368614,0.30562538026385005
1782814975235624000,9.4626240234375,0.2299731232345104,0.786174635104835,0.2874288485117256
1782814975255705900,9.482705810546875,0.12809797212481497,0.5905106087073684,0.3756293657405302
1782814975275788800,9.502788818359376,-0.005681552767753601,0.5340208058528602,0.3475223384140059
1782814975295870700,9.52287060546875,-0.40718613166213036,0.43966143720075485,0.20945892565716057
1782814975315954000,9.542953857421875,-1.022273255482316,0.4021516446262598,0.13659887489592656
1782814975336035800,9.563035888671875,-1.5481985792934894,0.47834655716493724,0.05723755248188972
1782814975356119000,9.583119140625,-1.5889023456037044,0.5187609851397573,0.024432777526881545
1782814975376201000,9.603200927734376,-0.7499988676130771,0.4395421947352588,0.18564159488119183
1782814975396284000,9.623283935546874,0.23571020558178424,0.23062705709859727,0.4982058344975114
1782814975416365800,9.64336572265625,0.9438041144013404,-0.03873553497716784,0.6243839444756507
1782814975436448800,9.66344873046875,1.2541384760737417,-0.2573781397715211,0.587593734879978
1782814975456531700,9.68353173828125,1.181471883791685,-0.38785584663972256,0.49758543757684526
1782814975476613600,9.703613525390624,0.8652478795588016,-0.5204113826952874,0.29196497583771125
1782814975496696800,9.72369677734375,0.46700727089643473,-0.594976063683629,0.04640896481503732
1782814975516779800,9.74377978515625,0.09859364522099494,-0.5382220569349825,-0.06358842847910709
1782814975536862000,9.763862060546876,-0.16308745244145392,-0.510884991067648,-0.10280548162921331
1782814975556945000,9.78394482421875,-0.23006255508363246,-0.525439293859899,-0.07154795438251457
1782814975577026800,9.80402685546875,-0.22733926759958265,-0.5451606240265071,-0.0009106731168663828
1782814975597109800,9.82410986328125,-0.31313363700211044,-0.5775339304953814,0.06910961218653246
1782814975617191700,9.844191650390625,-0.5340267972022295,-0.5239234824694693,0.0452856142077595
1782814975637275000,9.86427490234375,-0.5339964020639658,-0.5116406317405402,0.04910328649950679
1782814975657357000,9.884357177734374,-0.30790158156752584,-0.5194036669574678,0.13398485647263006
1782814975677440000,9.90443994140625,-0.07627367686331271,-0.6389831093229353,0.06287149411509745
1782814975697522000,9.92452197265625,0.06003975042104721,-0.7551540584191679,-0.05527368223012891
1782814975717604900,9.94460498046875,0.01769581568837166,-0.8029127116769552,-0.11159584146672859
1782814975737686800,9.964686767578126,0.05549041655361652,-0.7687892005398869,-0.1814523264978081
1782814975757769700,9.984769775390625,0.260159002661705,-0.8110377120740712,-0.08067019478920846
1782814975777852000,10.004851806640625,0.3661918579727411,-0.8148375427484512,-0.05546723660742864
1782814975797934800,10.024934814453125,0.3921872999727726,-0.830904880452156,0.049306238892814144
1782814975818016800,10.045016845703126,0.3641191433519125,-0.8577164611406624,0.18807161677340045
1782814975838100000,10.065099853515624,0.4303361211031675,-0.9404571420609951,0.25411776800239455
1782814975858182000,10.085181884765625,0.14063362857103348,-0.9378316158629953,0.29437298682751134
1782814975878264800,10.105264892578125,-0.5021849672615528,-0.7613043977424502,0.20791808942332862
1782814975898347000,10.125346923828126,-1.101082588303089,-0.4584251743815839,0.12115113952844403
1782814975918430000,10.145429931640624,-1.7630770092487333,-0.09965367566794156,0.18733617863832042
1782814975938512000,10.165511962890625,-2.05831375503242,0.30622999509349463,0.20702137804562223
1782814975958594800,10.1855947265625,-1.6110335133910179,0.5258258089594543,0.3749667736459523
1782814975978677800,10.205677734375,-0.7867384064674376,0.5580863027036189,0.5295175396168604
1782814975998760000,10.225760009765626,-0.15961773050427436,0.6321028482899069,0.421765568895638
1782814976018843400,10.245843505859375,0.8700076413065194,0.4364465668074786,0.625883316187933
1782814976038925300,10.26592529296875,1.058649806243181,0.47881782793849703,0.400472568965517
1782814976059008500,10.286008544921875,0.8389291969537734,0.4921107324928045,-0.021205597924592437
1782814976079090700,10.306090576171876,0.9287199425160885,0.41961745095103975,-0.17178966820463537
