time,seconds_elapsed,z,y,x
1782815022241344000,0.061343994140625,-0.5474859982341528,-0.6534688769236207,-0.24052701301267368
1782815022261426000,0.081426025390625,-0.3019476415991783,-0.6186328336030245,0.008946235385816544
1782815022281508000,0.101508056640625,-0.08996610212922096,-0.6185777424149215,0.00910538973659277
1782815022301590000,0.121590087890625,0.2220914300739765,-0.7314397130936384,-0.0038613927024649455
1782815022321673000,0.1416728515625,0.13060849364101887,-0.6964721523478626,0.06911830694964155
1782815022341755000,0.1617548828125,-0.15961948406994342,-0.43979280849546193,0.20468053227420896
1782815022361836800,0.1818369140625,-0.024639351215958595,-0.2634589209899306,0.279757272704225
1782815022381919000,0.2019189453125,0.3864484640598297,-0.24810411546975372,0.364373008515127
1782815022402001000,0.2220009765625,0.3544242632895708,-0.29586335324943064,0.2698020429389551
1782815022422082800,0.242082763671875,0.20543840143680572,-0.5305082676872611,0.4062476087030023
1782815022442165800,0.262165771484375,0.3009013474166393,-0.4953692958973348,0.48172330358903853
1782815022462248000,0.282248046875,0.6191156486839056,-0.38115269573926924,0.3629109366059303
1782815022482329900,0.302329833984375,0.628555677202344,-0.4517784298434853,0.25629763279212636
1782815022502411800,0.322411865234375,0.5181014983177185,-0.27284546575546265,0.07855301997214555
1782815022522494000,0.342493896484375,0.5428828883528709,-0.10140826425030827,0.2108444251988083
1782815022542575900,0.362575927734375,0.2778220851242542,-0.13829714844748378,0.3199690359801054
1782815022562659000,0.3826591796875,0.24686697489023207,-0.44249622223526236,0.38294527824446556
1782815022582741000,0.402740966796875,0.23235972611010072,-0.4611288803823292,0.4076625900674611
1782815022602823000,0.422822998046875,-0.008871873241662978,-0.15797113234102725,0.4881816859481856
1782815022622905000,0.442905029296875,-0.3214788560211658,0.12718304923698306,0.4690398727025836
1782815022642987000,0.462987060546875,-0.2659153742313385,0.1359115684852004,0.3755141783956438
1782815022663069000,0.48306884765625,-0.09698211837112904,0.03873144332394004,0.3226424564404413
1782815022683152000,0.50315185546875,-0.049455812564492226,0.0988876597315073,0.30476364886797963
1782815022703234000,0.523234130859375,0.07739128271639346,0.1348962539628148,0.22813374244552104
1782815022723316000,0.54331591796875,-0.05836977138221264,0.16275427496433256,-0.013281341980677097
1782815022743398000,0.56339794921875,-0.2860094832330942,0.2702284151248634,-0.1741532189982012
1782815022763480000,0.58347998046875,-0.11283961271643637,0.43359059285447,-0.19694031167728826
1782815022783562000,0.60356201171875,0.3161076843768358,0.34351328543573617,-0.12848012157650665
1782815022803645000,0.62364501953125,0.07462474061250686,0.17238690344542265,-0.12352441713158041
1782815022823726800,0.643726806640625,-0.36710078951120373,0.22471271848827598,-0.030219452903233468
1782815022843808800,0.663808837890625,-0.4252560413599014,0.4460867940731346,0.05567830380853265
1782815022863891000,0.683890869140625,-0.2381651975184679,0.5012041395306587,0.20438659082893282
1782815022883972900,0.703972900390625,-0.6192272923648358,0.32943741381019354,0.46332226224076
1782815022904054800,0.7240546875,-1.1959282791674137,0.41828488717302675,0.28775888418368994
1782815022924137700,0.7441376953125,-1.0879957277148962,0.32820626458004115,-0.23771115187434477
1782815022944220000,0.764219970703125,-0.48983518877625465,0.14960764701291918,-0.6853248815201223
1782815022964301800,0.7843017578125,-0.0819645819813013,0.1999687378540635,-0.5933004220889881
1782815022984383700,0.8043837890625,0.2939630725860595,0.4108125054657459,-0.4269518124271184
1782815023004466000,0.8244658203125,0.7034083813518285,0.367935779030621,-0.47765883062910286
1782815023024547800,0.8445478515625,0.9531769229024648,0.07017565224915742,-0.8342802021041512
1782815023044631000,0.864631103515625,0.41480069831907745,-0.41102980147823687,-1.2732397746458648
1782815023064713500,0.88471337890625,-0.027872341787815093,-0.5122679698586463,-1.3073974803134798
1782815023084795400,0.90479541015625,-0.11194470970332622,-0.3266154882572591,-1.286310707012564
1782815023104877600,0.924877685546875,-0.06064882223010063,-0.045169367416948075,-0.8739644161082804
1782815023124959500,0.94495947265625,-0.04255260904729366,0.16295535049438475,-0.45888921169675884
1782815023145041400,0.96504150390625,0.12055530166029929,0.050659927657246584,-0.11222235760092734
1782815023165124400,0.985124267578125,0.41232291002869603,-0.1704861843906343,0.14997151188924907
1782815023185206500,1.00520654296875,0.6828840642392635,-0.3039918607778847,0.21214169846773145
1782815023205288400,1.025288330078125,0.7735854949057102,-0.30379166203066704,0.09686693102624266
1782815023225370400,1.045370361328125,0.5522855074703693,-0.46879079331234097,-0.14452804219368845
1782815023245452300,1.065452392578125,0.5233247859239578,-0.5096406900949776,-0.3014820699140429
1782815023265534500,1.085534423828125,0.7674971149027348,-0.46743923257291314,-0.2571064832232892
1782815023285616400,1.105616455078125,0.6674737291395664,-0.4644293832324445,-0.20016360283903775
1782815023305699300,1.12569921875,0.3055237465202808,-0.4830456747666001,-0.241498214398697
1782815023325781200,1.14578125,0.007050503033399581,-0.4562662427820265,-0.23704773779585955
1782815023345863400,1.165863525390625,-0.10908464409708976,-0.3923685017585754,-0.2023511760111898
1782815023365945300,1.1859453125,-0.22197569473981857,-0.44210320432968436,-0.19685193927409125
1782815023386027300,1.20602734375,-0.5049480022341013,-0.5648352655071764,-0.22040895687974987
1782815023406109400,1.226109375,-0.25846038205027577,-0.6851411955162883,-0.1245100306354463
1782815023426192400,1.2461923828125,0.24548282705545424,-0.8237256364725529,-0.026485855865478514
1782815023446274300,1.2662744140625,0.5424000732719898,-0.951844797515869,0.016702055410668253
1782815023466356200,1.286356201171875,0.058200260034203526,-1.0407400555431843,0.11779091498088091
1782815023486438400,1.3064384765625,-0.44235681376457214,-0.9289133461963385,0.02244348513949662
1782815023506520300,1.326520263671875,-0.5785001451790333,-0.7605527025923132,-0.16848090898282825
1782815023526602200,1.346602294921875,-0.41034254986643787,-0.7158185117222369,-0.14833284130413085
1782815023546685400,1.366685546875,-0.8745417776048183,-0.737019412922114,-0.04210267332270741
1782815023566767400,1.386767333984375,-1.0967512811005116,-0.5403574615284801,-0.06614866175539791
1782815023586849500,1.406849609375,-0.6900444573879242,-0.18519801583215592,-0.19269100193604827
1782815023606931500,1.426931396484375,-0.2313496722847223,-0.15746464412361383,0.06240984055325389
1782815023627013400,1.447013427734375,-0.2178127298414707,-0.028944281868264077,0.21454897880516946
1782815023647095600,1.467095458984375,-0.38055414532423015,-0.0013421353239566087,0.03308430428244173
1782815023667177500,1.487177490234375,-0.5889215859502553,-0.036769495601207014,-0.20852438475340604
1782815023687260400,1.507260498046875,-0.9969733945310115,0.13879852209836244,-0.3094992990877479
1782815023707342300,1.52734228515625,-1.131974570173025,0.4333581723380834,-0.36073220432735975
1782815023727424300,1.54742431640625,-0.9558096094936132,0.58864729905352,-0.5220868416268378
1782815023747506400,1.56750634765625,-0.46797523914575573,0.5896791263192892,-0.618700272816047
1782815023767588400,1.58758837890625,-0.06196516552567482,0.5551121091984212,-0.6202475753232837
1782815023787670300,1.607670166015625,0.29909108312427996,0.4540723129343241,-0.4356787242401391
1782815023807753200,1.627753173828125,0.453817534455657,0.48416466885916887,-0.27548041736893353
1782815023827835400,1.64783544921875,0.6123848791241645,0.38823724717274305,-0.23960962417311965
1782815023847917300,1.667917236328125,0.7450123113721608,0.33728155143931504,-0.12121698043942451
1782815023867999200,1.687999267578125,0.5431207887619733,0.3964304905004799,-0.03442629347592592
1782815023888081400,1.708081298828125,0.3132248224169016,0.7670188298664986,-0.31871706315763293
1782815023908163300,1.728163330078125,0.21963293100595474,0.6341163800694049,-0.4144239739611745
1782815023928245200,1.748245361328125,0.6431283924341201,0.3990774978779256,-0.546028419836983
1782815023948328400,1.768328369140625,0.6813263134032488,0.2884951625689864,-0.4029215330202132
1782815023968410400,1.788410400390625,0.4786901099056005,0.2856928184993565,-0.2534274293843657
1782815023988492500,1.808492431640625,0.05693710823059082,0.31113179566040633,-0.280157907660678
1782815024008574500,1.828574462890625,-0.3005021189659834,0.3410344742320478,-0.4874838764097541
1782815024028656400,1.848656494140625,-0.25068857900500296,0.051985331042110915,-0.6308086437609046
1782815024048738600,1.868738525390625,0.00963818143904209,-0.15903364700600503,-0.6380787078291177
1782815024068820700,1.88882080078125,0.22139234189391135,-0.17312442393973468,-0.4744030071709305
1782815024088902700,1.908902587890625,0.2943500260770321,-0.1137315931200981,-0.20437318335808813
1782815024108984800,1.92898486328125,0.2636982827037573,-0.011346446661651135,0.02828516037240624
1782815024129066800,1.949066650390625,0.036731940069794654,0.1107483395256102,0.11124503700137138
1782815024149148700,1.969148681640625,-0.36847792308330535,0.11657456146106124,0.08624978501982987
1782815024169230600,1.989230712890625,-0.5880524019002914,0.2494642979070544,0.10439867823794484
1782815024189312800,2.009312744140625,-0.568485531643033,0.40317777280360456,0.22509024656377732
1782815024209395700,2.029395751953125,-0.10943477270901203,0.42358591619059444,0.4281763857860118
1782815024229477600,2.0494775390625,0.3887742766588926,0.3091758392870426,0.5974792056109756
1782815024249559600,2.0695595703125,0.593068184235692,0.15385149512775242,0.7188229542352259
1782815024269641700,2.089641845703125,0.6059715049505233,0.13834968235231934,0.7143949086599052
1782815024289723600,2.1097236328125,0.6745768391430378,0.0599060410387814,0.6588252163249999
1782815024309805600,2.1298056640625,0.6506067654907703,-0.03036583910398185,0.6070367230292409
1782815024329888500,2.149888427734375,0.5224158543854952,-0.13170754092410206,0.6456703320018947
1782815024349970700,2.169970703125,0.4885001407802105,-0.25490955770090223,0.5648618612531572
1782815024370052600,2.190052490234375,0.37664544744789596,-0.4685630489710718,0.3521627480983734
1782815024390134500,2.210134521484375,0.030723055043816564,-0.5962480563808232,0.10591017877943813
1782815024410216400,2.230216552734375,-0.5952116260051727,-0.6787421421289443,-0.07680924504473804
1782815024430298600,2.250298583984375,-1.0451216316282748,-0.6567873538218438,-0.041947701956704254
1782815024450380500,2.270380615234375,-1.0317758278429507,-0.6458379436537623,0.04290047263689339
1782815024470463700,2.290463623046875,-0.7469143456012011,-0.6628019379362463,0.06986819373518229
1782815024490545700,2.310545654296875,-0.3032715836793184,-0.7963801681030541,-0.02635229261368513
1782815024510627800,2.3306279296875,0.05737082347273826,-1.0117435320310295,-0.17581088654473423
1782815024530709800,2.350709716796875,0.11330606118440627,-1.1223480791717768,-0.25067425821870565
1782815024550791700,2.370791748046875,-0.0902735606431961,-1.0447424230523408,-0.13852262776643037
1782815024570873900,2.390873779296875,-0.40847500242888923,-0.9076774467483162,-0.08451865037828683
1782815024590955800,2.410955810546875,-0.15990531527400015,-0.9812256441704929,-0.13420454537160695
1782815024611038700,2.431038818359375,0.36397944262027737,-1.0478205883886664,-0.0603718319196254
1782815024631120600,2.45112060546875,0.19301146606206893,-0.9383521326057612,0.1323308604542166
1782815024651202600,2.47120263671875,-0.5341337647080421,-0.4333556881200522,0.3609367869887501
1782815024671284700,2.49128466796875,-1.4848475123673677,0.1812755816914141,0.477675160709396
1782815024691366700,2.51136669921875,-2.021612210100889,0.5977419482003897,0.41565125073380765
1782815024711448600,2.531448486328125,-1.2357295436799525,0.7297496411148459,0.2618541161417961
1782815024731530800,2.55153076171875,-0.0585936432659626,0.5384844341982156,0.43685375936888154
1782815024751613700,2.57161376953125,0.6402466995179653,0.47891230128891765,0.4268902914982289
1782815024771695600,2.591695556640625,0.7977706726133823,0.5223966382283717,0.38828634701147674
1782815024791777500,2.611777587890625,0.39803719504475593,0.7336936295002698,0.31996772080585356
1782815024811859700,2.631859619140625,-0.19461890125870704,0.9213605927292257,0.20184256890192626
1782815024831941600,2.651941650390625,-0.6558224543124437,1.0593182070240377,-0.24655169839598237
1782815024852023600,2.6720234375,-0.5111293212175368,0.928916999458149,-0.5074908185847103
1782815024872106500,2.6921064453125,0.1332908645927906,0.7439610487535595,-0.595983194899559
1782815024892188700,2.712188720703125,0.7390075179994106,0.7831707771137356,-0.47355764238797127
1782815024912270600,2.7322705078125,1.0738894609510898,0.875600785138458,-0.2270133966460824
1782815024932352500,2.7523525390625,1.1664970174998044,0.9440155651949346,-0.04779379763640463
1782815024952434400,2.772434326171875,0.8139706967860459,0.9680294779889285,-0.005905570781975985
1782815024972516600,2.7925166015625,0.27006138799488544,0.9769435829371214,-0.1639865201730281
1782815024992598500,2.8125986328125,-0.09849778363108634,0.9466377303920686,-0.18825433466285466
1782815025012681700,2.832681640625,-0.46408758405745026,1.0274980043932795,0.017968056758493185
1782815025032763600,2.852763671875,-0.664350628682971,1.097342671122402,0.23531894124187527
1782815025052845800,2.872845703125,-0.3741191438406706,0.9267560950972139,0.19962876530997453
1782815025072928300,2.89292822265625,0.05837386303544044,0.5828105557240545,0.10371098823472857
1782815025093010200,2.91301025390625,0.31364275556802745,0.2789163101017475,0.05787826153822243
1782815025113092000,2.933092041015625,0.420547717538476,0.03599675766304135,0.024731194217875598
1782815025133175000,2.953175048828125,0.05658639509677887,-0.09077215781509876,-0.09771722771264613
1782815025153257200,2.97325732421875,-0.246766437125206,-0.05443769263029098,-0.25485121510978787
1782815025173339100,2.993339111328125,-0.6680903997331857,-0.07306085229665041,-0.3836072127519175
1782815025193421000,3.013421142578125,-0.7943588183432817,-0.037438042512536046,-0.534679233228974
1782815025213503200,3.033503173828125,-0.7453285377144813,-0.07094765953496097,-0.615701017934829
1782815025233585200,3.053585205078125,-0.6583557721823453,-0.12934855670779943,-0.4740638383444398
1782815025253667000,3.0736669921875,-0.9380763844043016,-0.13957228294983506,-0.25447228052848947
1782815025273750000,3.09375,-0.9868728562772273,0.06844356775954365,-0.3742475925259292
1782815025293832000,3.11383203125,-0.28426351634860036,0.15492431199103593,-0.23864463333217426
1782815025313914000,3.1339140625,0.2972515927374363,-0.253829215118289,0.05402783318776637
1782815025333996000,3.15399609375,0.6105448042154312,-0.3386076854765415,0.17500104973288252
1782815025354078000,3.174077880859375,0.8907067304641008,-0.44760918133482336,0.21172535448549315
1782815025374160100,3.19416015625,1.094424883979559,-0.6753729579567909,0.2861060389427468
1782815025394242000,3.214241943359375,1.219299802404642,-0.6646753305926919,0.3185255591735244
1782815025414325200,3.2343251953125,1.2318810515582561,-0.3612082243412733,0.015155556621029973
1782815025434407200,3.2544072265625,1.1276070226132868,-0.21371435461193322,-0.32545397019721567
1782815025454489300,3.2744892578125,0.4316834440588951,0.028803485158085822,-0.7007944725263864
1782815025474571300,3.2945712890625,-0.455352488937974,0.3381397757038474,-0.21935024160705505
1782815025494653200,3.314653076171875,-0.7643424502640962,0.5603457720682025,-0.4055922135341912
1782815025514735000,3.334735107421875,-0.7375935595482588,0.14518018595948814,-0.7794668810945004
1782815025534818000,3.354818115234375,-0.09569207856059074,-0.28127617110088465,-0.7450278742674737
1782815025554900200,3.374900146484375,0.5668868642747402,-0.4027522408679127,-0.9412593983545899
1782815025574982100,3.394982177734375,0.6979512849897146,-0.6922077729016543,-0.94456019346565
1782815025595064000,3.41506396484375,-0.41552550546228884,-0.7252350132346153,-0.6584193389378488
1782815025615146200,3.435146240234375,-1.0133552050113677,-0.11671601575836539,-0.9425972958948463
1782815025635228200,3.455228271484375,-0.8013198895275593,0.10598360934183002,-1.01720917702578
1782815025655310000,3.47531005859375,-0.06501870787739754,-0.009698825585097074,-1.028393345797807
1782815025675393000,3.49539306640625,0.38060558325052257,-0.37503655094653365,-0.870403947147727
1782815025695475200,3.51547509765625,0.6671791301071643,-0.613488164190948,-0.784345081590116
1782815025715557000,3.53555712890625,0.41494039905071256,-0.663511255249381,-0.8497234165601432
1782815025735639000,3.55563916015625,-0.15057634591460228,-0.6070134152188896,-1.065682408293709
1782815025755721200,3.57572119140625,-0.2923696659147739,-0.5123446883566677,-1.16735151543729
1782815025775803100,3.59580322265625,-0.28059681053459645,-0.4731736845716834,-1.1227213694635778
1782815025795885000,3.615885009765625,-0.11989186931550502,-0.49484965593740343,-1.0341331315588205
1782815025815968000,3.635968017578125,0.1881236940205097,-0.474772644200921,-1.157912948223576
1782815025836050000,3.6560498046875,0.4894739542484283,-0.37419951560050246,-0.9785784906625747
1782815025856132000,3.676132080078125,0.1842342853665352,0.2879372364252806,-0.6504329432938247
1782815025876214000,3.696214111328125,-0.3601636837244034,0.62277212536484,-0.4379680772863328
1782815025896296000,3.7162958984375,-0.4944155023038387,0.27309461821094155,-0.3682981826022267
1782815025916378000,3.736378173828125,-0.7948889796972274,-0.13206534138582646,-0.6048945233687758
1782815025936460000,3.7564599609375,-0.6143821904212236,-0.33908845473080873,-0.5866679618045687
1782815025956543200,3.776543212890625,-0.34897067405879495,0.048836584687605496,-0.29724735495373605
1782815025976625200,3.796625244140625,-0.19536825832128524,0.657185267098248,-0.027843261823803186
1782815025996707300,3.816707275390625,-0.287880537801981,0.8536448277875781,0.03672974811270833
1782815026016789200,3.836789306640625,-0.28770167410373687,0.4773419101670384,-0.07579656087085604
1782815026036871200,3.85687109375,-0.36726153303086756,-0.11073255743458867,-0.16736819850057363
1782815026056953000,3.876953125,-0.632667788696289,-0.30833851168006654,-0.6209494399823248
1782815026077035000,3.897034912109375,-0.3806657890051603,-0.09968713954612612,-1.241743689402938
1782815026097118000,3.917117919921875,0.16962182264626025,-0.35605551775321365,-0.3157350516721606
1782815026117200000,3.937199951171875,0.9192758223444223,-0.37207434014007446,-0.07700929766148329
1782815026137281800,3.95728173828125,1.1918921555191277,-0.3312788038931787,-0.03836524036005139
1782815026157364000,3.977364013671875,1.0363087950974703,-0.17008030700348317,-0.007414806301146745
1782815026177446000,3.99744580078125,0.9640221420437097,-0.23261845011152327,0.17092019189372656
1782815026197527800,4.01752783203125,0.643798254519701,0.10293708125278353,-0.056476212720572946
1782815026217610000,4.03760986328125,0.19090952534675598,0.37627858689688143,-0.04312529436871409
1782815026237693000,4.05769287109375,-0.4240396513074636,0.797569231757149,0.09215133721381426
1782815026257774800,4.07777490234375,-0.6550795269906521,1.2442473427869378,0.37161578271761536
1782815026277856800,4.097856689453125,-0.3927542862057686,1.2249349587474017,0.6498575545586646
1782815026297939000,4.11793896484375,-0.022016016975045204,0.791841428694874,0.8148730524532496
1782815026318020900,4.138020751953125,0.3419961588710546,0.3809005476091057,0.9940580916061997
1782815026338102800,4.158102783203125,0.5520277333170175,0.18173983820229767,0.8973983370572328
1782815026358184700,4.178184814453125,0.7383207047790289,-0.05173990491367876,0.7295099140748381
1782815026378268000,4.198267822265625,0.4987433023750782,-0.09460610995478927,0.38684228568300605
1782815026398350000,4.21835009765625,-0.1368202077627182,-0.1785548514906317,0.335462373188138
1782815026418432000,4.238431884765625,-0.9645815294921397,-0.01950279204510152,0.2862899806749076
1782815026438514000,4.258513916015625,-1.2239093420267104,0.3791427441563457,0.04570128233656287
1782815026458596000,4.27859619140625,-1.0910182904064654,0.5836172689970582,-0.3218357066348195
1782815026478678000,4.298677978515625,-0.39699733060300346,0.21208141964785754,-0.2123585560888052
1782815026498760000,4.318760009765625,0.5653086551725864,-0.25895970987454053,0.11869096909314393
1782815026518841900,4.338841796875,1.322180915686488,-0.5583937612175941,0.3218284731764346
1782815026538925000,4.358925048828125,1.2138146489918231,-0.765364048396796,0.47382557260915636
1782815026559007000,4.379007080078125,0.7926771488666534,-0.6955977076008916,0.3887614171773195
1782815026579089000,4.3990888671875,0.20963994477987288,-0.6205478003788739,0.37832507109791036
1782815026599170800,4.4191708984375,-0.41086569695770736,-0.6344302683241665,0.3799764185015112
1782815026619253000,4.4392529296875,-0.20592998434603213,-0.746567431859672,0.45947263760790225
1782815026639335000,4.4593349609375,0.08846388087272644,-0.9106321318354457,0.5006057352460921
1782815026659416800,4.479416748046875,-0.12323708809018134,-1.04185525024347,0.10531681599617004
1782815026679499800,4.499499755859375,-0.10813830315768717,-1.141034659463167,-0.19304288411363957
1782815026699582000,4.51958203125,0.17833996663093565,-1.2350419998072086,-0.19684549126699566
1782815026719663900,4.539663818359375,0.10402502261996269,-1.2652566669374703,-0.20638708046376705
1782815026739745800,4.559745849609375,-0.4765069206476211,-1.0539245312869547,-0.28585202764905987
1782815026759828000,4.579827880859375,-0.8739134165734053,-0.7600631655097008,-0.2255565489012748
1782815026779910000,4.599909912109375,-0.8704974706500768,-0.6786527102798223,-0.014386033553257583
1782815026799991800,4.61999169921875,-0.5359890371859073,-0.5786016327921301,0.08131137876957654
1782815026820074800,4.64007470703125,-0.16356500682532787,-0.5663412861559539,0.15918993354626
1782815026840156700,4.66015673828125,0.15949264281988143,-0.6585399696428328,0.060323754994198675
1782815026860238800,4.68023876953125,0.1909738227546215,-0.6978725937303155,-0.019994959476217627
1782815026880320800,4.70032080078125,-0.34600364094674585,-0.6082675069332123,0.12275091200843452
1782815026900402700,4.720402587890625,-0.8108768224239349,-0.3854696821555495,0.12603395226709543
1782815026920484900,4.74048486328125,-1.207865385198593,-0.10053791115656495,-0.03234459183104336
1782815026940566800,4.76056689453125,-1.1383709932118653,0.12576105360984802,0.020344978490285576
1782815026960650000,4.78064990234375,-0.6813765822857618,0.21170820242129265,0.2830334265643731
1782815026980732000,4.80073193359375,-0.1375567053437233,0.2664750539407134,0.4001786640528589
1782815027000814000,4.82081396484375,0.3285486482769251,0.33213176746070383,0.36970677075851704
1782815027020896000,4.84089599609375,0.3757043672055006,0.3912755919553339,0.3355765741523355
1782815027040978000,4.86097802734375,0.360280003580451,0.6459989794343709,0.5144559814222157
1782815027061059300,4.881059326171875,0.2855862893849611,0.8744742653265595,0.624161533896625
1782815027081141200,4.901141357421875,0.3554430849432945,0.9241834681302309,0.5639392665155232
1782815027101223200,4.92122314453125,0.36731589356660843,0.9269814282856881,0.4481825242433697
1782815027121306000,4.94130615234375,0.4074719628661871,0.9091653472185134,0.34753939914666115
1782815027141388300,4.96138818359375,0.2977116114646196,0.935116803946346,0.27419477973887696
1782815027161470200,4.98147021484375,0.08580430627465248,1.0567448494046925,0.08209131363350898
1782815027181552000,5.00155224609375,0.19639877041280268,1.0994573251888156,-0.08127526627657934
1782815027201634000,5.021634033203125,0.5381348170429467,1.0189783055901527,0.027553747675183694
1782815027221716200,5.04171630859375,0.6309703371286391,0.944766383562237,0.18562791341571136
1782815027241798100,5.061798095703125,0.7948480631649494,1.08078491955325,0.04816497816951014
1782815027261881300,5.08188134765625,1.0947726745039223,1.019927276878059,0.033012335024774075
1782815027281963300,5.10196337890625,1.3734317949742079,0.7969691469721496,-0.09316340033318847
1782815027302045400,5.12204541015625,1.2607038259387016,0.32843189002946016,-0.19717012011148036
1782815027322127400,5.14212744140625,0.5400970570266247,0.11159545787423848,-0.2731684871647507
1782815027342209300,5.162209228515625,-0.2904237925440073,0.23725422015339134,-0.3458460392322391
1782815027362291500,5.18229150390625,-0.9756880299180746,0.3637612698249519,-0.19679872951582073
1782815027382373400,5.202373291015625,-1.4095020562648772,0.41389841571711,-0.08606936868531628
1782815027402455300,5.222455322265625,-1.6426204917877911,0.4982420748546719,0.029277130551822482
1782815027422538200,5.242538330078125,-1.147795239639282,0.5050331232342868,0.0697278719490394
1782815027442620200,5.2626201171875,-0.3580927226692438,0.2052991390965879,0.12585523469932378
1782815027462702300,5.282702392578125,0.20541326699554918,-0.10137297374121844,-0.03260061241872608
1782815027482784300,5.3027841796875,0.4234907852530479,-0.2886199579924345,-0.24391586999967693
1782815027502866200,5.3228662109375,0.4548410322844982,-0.47815753739885986,-0.4051095080511644
1782815027522948400,5.3429482421875,0.2428355274170637,-0.626896000361815,-0.5439922743668779
1782815027543030300,5.3630302734375,-0.1434475169479847,-0.7010945514515042,-0.6385764282181858
1782815027563112200,5.3831123046875,-0.5270440987080335,-0.8463942721374332,-0.6245071324639022
1782815027583194400,5.4031943359375,-0.7935872494488954,-0.9032684711996466,-0.5718318829288705
1782815027603277300,5.42327734375,-0.763348763051629,-0.8905845653891563,-0.5034578367415815
1782815027623359200,5.443359130859375,-0.49159693775177,-0.9288977833010256,-0.3960989569911733
1782815027643441200,5.463441162109375,0.003067570877075195,-0.965078592294082,-0.27693594993948933
1782815027663523000,5.483523193359375,0.2003115599423647,-0.9947639017879962,-0.2779941537555307
1782815027683605200,5.503605224609375,0.3612251754760742,-0.9157138920791447,-0.22675072712190447
1782815027703687200,5.523687255859375,0.47052375458478923,-0.8391817834753542,-0.07565561803020536
1782815027723769000,5.54376904296875,0.43985915172994133,-0.7911238550100476,0.024219664499163625
1782815027743852300,5.563852294921875,0.30994916174709797,-0.8719467196103184,0.075474927701056
1782815027763934500,5.5839345703125,0.10430442408323287,-0.9240868028227239,0.02166395213436335
1782815027784016400,5.604016357421875,-0.21393325805962085,-0.8920943854302167,-0.010505977249518036
1782815027804098300,5.624098388671875,-0.5697650500595569,-0.7959799898043275,-0.10932944917101413
1782815027824181200,5.64418115234375,-0.7650964835017919,-0.7405900379505008,-0.08387220570091157
1782815027844263400,5.664263427734375,-0.8012538385540247,-0.7214741263311356,-0.13731062162816524
1782815027864345300,5.684345458984375,-0.5689823752492665,-0.7367215259540826,-0.2298846412334591
1782815027884427300,5.70442724609375,-0.39352994675338265,-0.6515773640885949,-0.19040289099887012
1782815027904509200,5.72450927734375,-0.5826514196395873,-0.5291797224972397,-0.1692833114068955
1782815027924591400,5.74459130859375,-0.6101923375159501,-0.3808681797094643,-0.383894687923789
1782815027944673300,5.76467333984375,-0.41587329598665235,-0.29928127193413673,-0.3839557704612612
1782815027964755200,5.784755126953125,-0.27892800053954125,-0.06047339259795844,-0.2638684516388923
1782815027984838100,5.804838134765625,-0.2719727745741606,0.29701581122018395,-0.24758732505403458
1782815028004920300,5.82492041015625,-0.18910861340463161,0.5055756326131522,-0.3119438426956534
1782815028025002200,5.845002197265625,0.037975802651047705,0.5085423734642565,-0.43483708578422664
1782815028045084200,5.865084228515625,0.3298521320909262,0.4928323247656226,-0.6916106107261032
1782815028065166300,5.885166259765625,0.5666553936064243,0.47470790840163823,-0.9171315037921071
1782815028085248300,5.905248291015625,0.44419221249818797,0.5193501832045614,-1.0238254533603788
1782815028105330200,5.925330078125,0.10186053806245327,0.7419213596194982,-0.9855239258863031
1782815028125413000,5.9454130859375,-0.4659487017542123,0.8286210072986782,-0.8692295696061104
1782815028145495300,5.965495361328125,-0.9749439335525035,0.822464822756499,-0.9923705769106745
1782815028165577200,5.9855771484375,-1.1676853505015372,0.748274966429919,-1.068374862248078
1782815028185659100,6.0056591796875,-0.7437818927943706,0.7695264287732541,-1.0697488540150224
1782815028205741000,6.025740966796875,0.14962825140953062,0.6355947820588946,-0.7726521595783531
1782815028225823200,6.0458232421875,0.7242267129749059,0.4798829729519784,-0.5213841732501984
1782815028245905200,6.0659052734375,1.0118974074184894,0.4836693596228957,-0.5070421980343759
1782815028265988000,6.085988037109375,1.1267156267315148,0.4824531157009303,-0.556368685130775
1782815028286070000,6.106070068359375,0.9751461781263351,0.5016795019574463,-0.6309039208289235
1782815028306152200,6.126152099609375,0.7725035448879003,0.5252328115023672,-0.6517272939532995
1782815028326234000,6.146234130859375,0.6090244627803564,0.5202177598193287,-0.6757188487850129
1782815028346316000,6.16631591796875,0.5318909542173147,0.5264966939583421,-0.718261228699237
1782815028366398200,6.186398193359375,0.2420247955560684,0.5565490101337432,-0.7911249509885907
1782815028386480000,6.206480224609375,-0.34002690462470053,0.5411806144796312,-1.0508275151196866
1782815028406563000,6.22656298828125,-0.7416203308463096,0.7225476738467812,-1.27737059084028
1782815028426645000,6.24664501953125,-0.6640086833775043,0.9690550216443836,-1.181752892690152
1782815028446727000,6.266726806640625,-0.49598611262142656,1.1818667283281683,-0.7286826694704592
1782815028466809000,6.28680908203125,-0.6558733077168464,1.3567020478390157,-0.44168812072277064
1782815028486891000,6.30689111328125,-0.9623772974461317,1.4262787112817168,-0.40735074763931334
1782815028506973000,6.326972900390625,-0.9229968886941671,1.358031981268525,-0.4455149124693125
1782815028527055000,6.34705517578125,-0.6200175659596919,1.2015211307384073,-0.3823663823779672
1782815028547138300,6.36713818359375,-0.171052732232213,1.091104068993777,-0.23658450419828295
1782815028567220200,6.38722021484375,0.19406652807295321,1.0087142473377286,-0.02904131250195205
1782815028587302100,6.40730224609375,0.26460370711088177,0.9914261356674134,0.1736448676172644
1782815028607384300,6.42738427734375,0.2566828509837389,0.9333167687870562,0.22110592616796493
1782815028627466200,6.44746630859375,0.23089491425454614,0.7213833062425256,0.22930596456266938
1782815028647548200,6.467548095703125,0.25089316166639325,0.5397497048936784,0.2232476874370128
1782815028667630000,6.487630126953125,0.357473129466176,0.38887934446856376,0.22467465150021015
1782815028687713000,6.507713134765625,0.4686772499352693,0.20363558979853985,0.25533238622285426
1782815028707795200,6.527795166015625,0.3787129013717174,0.06864128228873013,0.206752698905766
1782815028727877000,6.547877197265625,-0.044920507222414016,-0.01867342854887247,0.18809651375263928
1782815028747959000,6.567958984375,-0.4060585889369249,-0.04132788955792784,0.121520055039227
1782815028768041200,6.588041259765625,-0.4521861338615417,-0.12211363701820373,0.07196085516549647
1782815028788123100,6.608123046875,-0.3665338032782078,-0.2324276767797768,0.061122723352164024
1782815028808205000,6.628205078125,-0.26265315756499763,-0.23451149731650947,0.042477826778031885
1782815028828287200,6.648287353515625,-0.35710429615378375,-0.24577640317454932,0.12108542648162691
1782815028848370200,6.6683701171875,-0.6853688667923211,-0.1165986729890108,0.25829156482201066
1782815028868452000,6.6884521484375,-1.452078630709648,0.07846461103633046,0.3058240081084892
1782815028888534000,6.708533935546875,-2.2442986834585663,0.39813539472222326,0.3175267939271405
1782815028908616200,6.7286162109375,-2.4649831693440674,0.7561587054170668,0.34531627973709256
1782815028928698000,6.748697998046875,-1.9004133498400448,0.9232117004886269,0.44301301265098153
1782815028948780000,6.768780029296875,-0.8868740204334259,0.9215471282772719,0.49065750147718934
1782815028968862000,6.788862060546875,-0.09399404247105121,0.7997181534193456,0.41749337146915494
1782815028988945200,6.808945068359375,0.3632300855576992,0.8381896306328475,0.3114222665069625
1782815029009027300,6.82902734375,0.705595077741146,1.007511739680171,0.3206692201387137
1782815029029109200,6.849109130859375,0.9063941289395093,1.205429682484269,0.40262181942127645
1782815029049191200,6.869191162109375,0.8308826686203479,1.4484608786039053,0.5035492413520812
1782815029069274000,6.889274169921875,0.6220096165597438,1.6806746203720568,0.5255656967185437
1782815029089356300,6.909356201171875,0.5847644662708044,1.803353343927115,0.48825697967410087
1782815029109438200,6.929438232421875,0.6419950044900179,1.7935881751075387,0.27180655116178093
1782815029129521400,6.949521484375,0.7912076608359814,1.5742529118739068,0.0806683316256851
1782815029149603300,6.969603271484375,0.7067419096887111,1.1653903714321554,-0.09044497168734669
1782815029169685200,6.989685302734375,0.6077104575723409,0.8050992619358003,-0.40713673956245183
1782815029189767400,7.009767333984375,0.6722779145509005,0.44899815147519107,-0.7695270132951438
1782815029209849300,7.029849365234375,0.3093389208942652,0.266310657159239,-0.8395667642049491
1782815029229931300,7.04993115234375,-0.6307125629752874,0.3955217050924897,-0.812305101661384
1782815029250013400,7.070013427734375,-1.7159832496404648,0.577736905721575,-0.8447687167622149
1782815029270095400,7.090095458984375,-2.3282781123936176,0.7993677325464784,-0.9936468804568052
1782815029290178300,7.11017822265625,-1.9613918424159287,0.9046611676670611,-1.0635555523328482
1782815029310260200,7.13026025390625,-0.6985515889704227,0.6258356776539236,-1.0939750943854452
1782815029330342400,7.15034228515625,0.4961585465788841,0.14027049434706568,-1.3140250817596912
1782815029350424300,7.17042431640625,1.146370759794116,-0.22315496765226125,-1.5020380088821053
1782815029370506200,7.19050634765625,1.2235200504481791,-0.29449308780953287,-1.4995679655067622
1782815029390588200,7.210588134765625,0.8343576512545346,-0.02560571203008294,-1.3350902277506886
1782815029410670300,7.23067041015625,0.4660118301182985,0.19930325968265533,-1.2575811638735235
1782815029430752300,7.250752197265625,0.28860359137952324,0.07096577971354126,-1.2027196928732096
1782815029450835200,7.270835205078125,0.1568921049326658,-0.057191521383076906,-1.3178047464288771
1782815029470917000,7.290917236328125,-0.30260289063751694,-0.10302899731993674,-1.0667219074092804
1782815029490999300,7.310999267578125,-0.9006599692016839,0.12246259658634662,-0.6821861451029777
1782815029511081200,7.331081298828125,-1.0017015920966863,0.3453242803804576,-0.4273892539963126
1782815029531163100,7.3511630859375,-0.5480594142079352,0.42810237070173024,-0.22066592731550336
1782815029551245300,7.371245361328125,0.060220952206850045,0.21553689386397598,-0.22077859390974044
1782815029571327200,7.3913271484375,0.5538245536059141,-0.026467297295480963,0.02371741406545043
1782815029591410200,7.41141015625,0.8717407487094402,-0.06294643164798618,0.2941667784646153
1782815029611492000,7.4314921875,0.9230611861020326,-0.08960106820911168,0.4136144842091948
1782815029631574300,7.45157421875,0.6559206539899111,-0.07365881818979979,0.36995179502815007
1782815029651656200,7.47165625,0.1675368330657482,-0.0205881761290133,0.0605399550281465
1782815029671738000,7.491738037109375,-0.23164953201413152,-0.11238529307767749,0.03795088740549982
1782815029691820000,7.511820068359375,-0.529954433196783,-0.1772135929495096,-0.167978293222934
1782815029711902200,7.531902099609375,-0.6691840401887893,-0.21102833039835095,-0.4418030523393303
1782815029731984400,7.551984375,-0.5769225205987691,-0.3281291076906025,-0.4660258221110329
1782815029752067300,7.5720673828125,-0.35705753440260884,-0.3194447198450565,-0.17787267791274933
1782815029772149200,7.592149169921875,-0.2071902135401964,-0.14338395019248126,0.011242511363141238
1782815029792231400,7.6122314453125,-0.11647358530461788,-0.08314151680618524,-0.13564846056960522
1782815029812313300,7.632313232421875,-0.26433073538839813,-0.23726444928646087,-0.41073516591321674
1782815029832395300,7.652395263671875,-0.439956766885519,-0.2725022052757442,-0.5788900578120723
1782815029852477400,7.6724775390625,-0.48952773026227947,-0.14933409076854587,-0.5204498150095344
1782815029872559400,7.692559326171875,-0.4399783941954374,-0.05682502615824341,-0.393747717689909
1782815029892641300,7.712641357421875,-0.2987134819835424,0.02249444814175367,-0.37195290571749207
1782815029912724200,7.73272412109375,-0.07359247495532036,-0.03435600471869111,-0.5007290328321978
1782815029932806100,7.75280615234375,0.19540683676600454,-0.18689006057232618,-0.5261211386442184
1782815029952888300,7.772888427734375,0.5017641115009784,-0.2678368438132107,-0.4707654178535565
1782815029972970200,7.79297021484375,0.60096098331213,-0.2720255276747048,-0.36469427635874596
1782815029993052200,7.81305224609375,0.4903817167431116,-0.18421397323086858,-0.3691066494408995
1782815030013134300,7.83313427734375,0.4375982210606336,-0.08248875198587775,-0.2675888604015112
1782815030033216300,7.85321630859375,0.19749065730273724,-0.10264277448132633,0.010328757519088684
1782815030053298200,7.873298095703125,-0.059760933479666704,0.07692877977117896,0.08201832146253436
1782815030073380900,7.893380859375,-0.324096929565072,0.2561285781018436,0.122234340788424
1782815030093463000,7.913463134765625,-0.32206103982329365,0.3783591194979846,0.11430573974624275
1782815030113545000,7.933544921875,-0.3562918107271194,0.5148752297475934,0.20646452961415052
1782815030133627000,7.953626953125,-0.48104924025237555,0.74579732427001,0.24793840351402757
1782815030153709000,7.973708984375,-0.5590490102559328,0.764724289188534,0.059560880862921474
1782815030173791000,7.993791015625,-0.15045008918642996,0.85092285547778,0.04451236481294036
1782815030193873000,8.013872802734374,0.24204408477842806,0.7502598566368222,-0.08441909899394959
1782815030213954800,8.033954833984374,0.23609423646330832,0.5757647288657725,-0.23364735476784407
1782815030234037800,8.054037841796875,-0.032227614387869835,0.8607501297481358,-0.14173800961636007
1782815030254120000,8.074119873046875,-0.5070066883295774,1.167040622857213,0.027595570673048495
1782815030274201900,8.094201904296876,-0.7918091338604688,1.1475320586584508,-0.06841671628523617
1782815030294283800,8.11428369140625,-0.7598802101582288,0.9489363627232611,-0.249951095043309
1782815030314366000,8.134365966796874,-0.20804361549913883,0.8921011074319481,-0.30711715319156646
1782815030334447900,8.15444775390625,0.31349662509560583,0.7499806013040244,-0.1728302267661318
1782815030354529800,8.17452978515625,0.6129349142223596,0.556320900466293,-0.04697181372903287
1782815030374612000,8.194612060546875,0.6197212133616209,0.5334454901829362,0.09728789638467132
1782815030394695000,8.21469482421875,0.48841012440919873,0.6351227075677365,0.22305771782286463
1782815030414776800,8.23477685546875,0.12735738289058207,0.733964701526612,0.3029487449331209
1782815030434858800,8.254858642578125,-0.34201427904963494,0.7977607357412576,0.3578731616344303
1782815030454940700,8.274940673828125,-0.5499824912250042,0.858021654632315,0.34940628899708387
1782815030475022800,8.29502294921875,-0.515603251761198,0.7966768860273062,0.30765465760175137
1782815030495104800,8.315104736328125,-0.21382044533491135,0.6579436842501163,0.22576880341246722
1782815030515186700,8.335186767578126,-0.08488602238595486,0.6238767986711115,0.19038509961385278
1782815030535268900,8.355268798828124,0.15878887846469877,0.6497661499481647,0.31698669570107013
1782815030555352000,8.37535205078125,0.7931395056813955,0.5516935329265892,0.6001806465893984
1782815030575434000,8.39543408203125,0.8385095102369785,0.22212021777704358,1.082130635073781
1782815030595516000,8.415515869140625,0.4979962834000587,0.011684884835779666,0.7775771218251436
1782815030615598000,8.43559814453125,0.4410930774390697,-0.05518617291003465,0.5931826043955981
1782815030635680000,8.455679931640624,0.23799100999534128,-0.20865882478803394,0.6405811191041022
1782815030655762000,8.475761962890624,-0.1190823064982891,-0.07064210071712732,0.4997689190957695
1782815030675843800,8.49584375,-0.21000117930769918,0.3351008463993668,0.3582857975559309
1782815030695926000,8.515926025390625,-0.19815584321320057,0.1333449328675866,0.44775180467590686
1782815030716009000,8.536009033203126,0.11144552800953388,-0.19670228340402243,0.5896623213149607
1782815030736091000,8.5560908203125,0.43647827711999415,-0.6842221809752285,0.37748010817375033
1782815030756172800,8.5761728515625,-0.025039748710393904,-1.0394761000219732,0.2760824018500745
1782815030776255000,8.5962548828125,-0.13279635907411574,-0.7600769017741084,-0.17169431807138025
1782815030796337000,8.6163369140625,-0.43626843376159663,-0.8047135505538433,0.20268172313980756
1782815030816418800,8.636418701171875,-0.5624532657414675,-0.6697535106398165,0.35518903711698946
1782815030836501000,8.6565009765625,-0.8410381519317627,-0.7010353686101735,0.5231456299647689
1782815030856583000,8.6765830078125,-0.831061532318592,-0.6284552855677902,0.4520659415479749
1782815030876664800,8.696664794921874,-0.6815501852869987,-0.6505118537489324,0.37766054277457295
1782815030896747800,8.716747802734375,-0.4475432764917612,-0.7956522191546856,0.3983823186879977
1782815030916830000,8.736829833984375,-0.07102174768447876,-0.8874065929401665,0.49662462972067295
1782815030936912000,8.756911865234375,0.3861836756438017,-0.9155540253423153,0.7709277469385415
1782815030956993800,8.776993896484376,0.11112988618910312,-0.8933113600045443,0.8093751856893301
1782815030977075700,8.79707568359375,-0.5266489619106054,-0.7400562233347445,0.7079574960235506
1782815030997158000,8.817157958984374,-0.798131322619319,-0.7244740387994796,0.4858976666642353
1782815031017239800,8.83723974609375,-0.9676754038542509,-0.8207657637536525,0.4342813515976071
1782815031037321700,8.85732177734375,-0.5509598118245601,-0.6536840540442616,0.15686556398561224
1782815031057405000,8.877405029296876,-0.4034767557501793,-0.45651955995596943,0.19772601869488135
1782815031077486600,8.897486572265626,-0.41055180870294566,-0.2259629377450794,0.25046699040988457
1782815031097568500,8.917568603515624,-0.4528478126406669,-0.07134849542081356,-0.08067509016003459
1782815031117650400,8.937650390625,-0.3262824569106102,-0.025734745237231252,-0.32006000219918784
1782815031137732600,8.957732666015625,0.08009002028107642,-0.08041969062685966,-0.44553398249596354
1782815031157814500,8.977814453125,0.39840544383525844,-0.09196852799281477,-0.285076805492863
1782815031177896400,8.997896484375,0.32083822003006934,0.20824191455021498,-0.020068718832172452
1782815031197978600,9.017978515625,0.06356617098152637,0.47130818296074867,-0.10993943429552018
1782815031218061600,9.0380615234375,-0.005770400094985962,0.6503402235090732,-0.1879069094646722
1782815031238143500,9.0581435546875,0.17429624419808387,0.581896801880002,-0.11688651348706335
1782815031258225400,9.078225341796875,0.5074842427134514,0.4568588018476963,-0.11276066572871059
1782815031278307300,9.098307373046875,0.7178507482022046,0.3759456286154687,0.01644475618135184
1782815031298389500,9.118389404296876,0.6404091966032982,0.3643482759326696,0.07268175331857055
1782815031318471400,9.138471435546874,0.2472884151726961,0.46144408381134266,0.007877418844215571
1782815031338553300,9.15855322265625,-0.02177870108783245,0.6530239096350967,-0.02451294835731387
1782815031358635500,9.178635498046875,-0.2884755810856819,0.6687351273775101,-0.19679697595015166
1782815031378717400,9.198717529296875,-0.24180033915042876,0.6024820553995669,-0.36379572008382527
1782815031398800600,9.218800537109376,0.18996201536357402,0.5684473915897309,-0.3361100234419107
1782815031418882600,9.238882568359376,0.5063718975573778,0.5693478475607932,-0.21612864921204744
1782815031438964500,9.258964599609374,0.49221010121405123,0.7071900918476283,-0.06989237832836806
1782815031459046700,9.279046630859375,0.40854631409943104,0.8005075502313673,-0.11141856693737208
1782815031479128600,9.299128662109375,0.2775736633211374,0.7573919004738331,-0.23950693098362533
1782815031500465400,9.32046533203125,0.07754559649527072,0.7650112894363701,-0.45888464511949567
1782815031520547600,9.340547607421875,-0.11369710632860659,0.7770360737510025,-0.3373419033244252
1782815031540629500,9.36062939453125,-0.3362982394903898,1.0293122142083941,-0.21569478783942758
1782815031560711700,9.380711669921874,-0.23219956711232662,1.038121981999278,-0.05609225490428507
1782815031580793600,9.400793701171875,-0.05623685100674629,0.8545322781465947,0.09010762949176132
1782815031600875500,9.42087548828125,0.030332594421505925,0.5988768705144524,0.024550576953962445
1782815031620958500,9.44095849609375,-0.08161562241315841,0.4222458997584879,0.02129215967990458
1782815031641040600,9.46104052734375,-0.18764087893962858,0.44654944314882156,0.22238332569263874
1782815031661122600,9.48112255859375,-0.2916951276540756,0.6071222824208438,0.538247848963365
1782815031681204500,9.50120458984375,-0.2590647776842117,0.5753622855447232,0.8014952460944652
1782815031701286700,9.52128662109375,-0.26647300811409946,0.37923108002692457,0.7358446700543165
1782815031721368600,9.54136865234375,-0.19361060099899768,0.11559621794819831,0.5488333211898804
1782815031741450500,9.561450439453125,0.011013561445474624,-0.015940204192698,0.42273967462480067
1782815031761532700,9.58153271484375,0.18527707241773606,-0.07582754053100943,0.32960115300454196
1782815031781615600,9.60161572265625,0.37587270950973034,-0.15642112642005085,0.21358174120821058
1782815031801697500,9.621697509765625,0.38677638083994387,-0.2818044327586889,-0.04514087197482586
1782815031821779500,9.641779541015625,0.3743284026771784,-0.4002081093430519,-0.15647534082531928
1782815031841861400,9.661861328125,0.30297698464691636,-0.3143677088417113,0.022331293469294904
1782815031861943600,9.681943603515625,0.2259779161185026,-0.3328767406091094,0.04996383515186607
1782815031882026500,9.702026611328124,0.09450199199318886,-0.3753872640803456,-0.10058065431974827
1782815031902108400,9.7221083984375,-0.04468962107598781,-0.490338535188511,-0.09315693405978381
1782815031922190300,9.7421904296875,-0.3218143715858459,-0.48938481466025113,-0.16312018566727637
1782815031942272500,9.7622724609375,-0.3000333324104547,-0.5826821801040322,-0.21050116471908986
1782815031962354400,9.7823544921875,0.022715105155110358,-0.7597795262627303,-0.22057693385779856
1782815031982436400,9.802436279296876,0.32493688752055166,-0.8832491079345345,-0.1095406442362815
1782815032002518500,9.8225185546875,0.20093992097377775,-0.8102897432509809,-0.09354417981170117
1782815032022600400,9.842600341796874,-0.08131634720563888,-0.7973666218571365,-0.1799826192714274
1782815032042683600,9.86268359375,-0.2160053881585598,-0.7512219796672462,-0.2743033364135772
1782815032062765600,9.882765625,-0.1450280641376972,-0.7667597405388951,-0.3933593394268304
1782815032082848300,9.90284814453125,-0.1846253305107355,-0.7592631742384285,-0.46595367019027467
1782815032102930400,9.922930419921874,-0.2854202851682901,-0.5643374720528721,-0.5061128082297742
1782815032123012400,9.943012451171874,-0.05044482360184192,-0.536586418557167,-0.5233820690691471
1782815032143094300,9.96309423828125,0.06741349405944347,-0.5500467886328697,-0.5031383955288679
1782815032163176200,9.98317626953125,-0.31534897496402264,-0.35111338517591356,-0.4027613740224391
1782815032183258400,10.00325830078125,-0.5766472107887268,-0.0801107708081603,-0.4699703584857285
1782815032203341300,10.02334130859375,-0.6305781229406595,0.13917466193437575,-0.46963316242061554
1782815032223423200,10.04342333984375,-0.06491057132780552,0.034775691435486075,-0.2928809033725411
1782815032243505200,10.063505126953125,0.40431262205243107,-0.15452216093093155,-0.2548451141625643
1782815032263587300,10.08358740234375,0.38774844074249265,-0.202285051972419,-0.3753458360914141
1782815032283669200,10.103669189453125,0.033764322435855865,-0.06033069619163871,-0.5187074283216149
