time,seconds_elapsed,z,y,x
1782815259048339500,0.06633935546875,-0.6113210916519165,-0.4330976605415344,-0.7052287459373474
1782815259068421400,0.08642138671875,-0.5542173981666565,-0.681929349899292,-0.5022959113121033
1782815259088503300,0.10650341796875,-0.38192108273506165,-0.9789857268333435,-0.3809145987033844
1782815259108585500,0.12658544921875,-0.19648249447345734,-1.0189008712768555,-0.205826997756958
1782815259128667400,0.14666748046875,-0.1493070274591446,-0.6917553544044495,0.05215977877378464
1782815259148749300,0.166749267578125,-0.20697802305221558,-0.10347815603017807,0.25219541788101196
1782815259168831200,0.186831298828125,-0.22597543895244598,0.42893797159194946,0.288806676864624
1782815259188914200,0.2069140625,-0.12708066403865814,0.6875199675559998,0.21873009204864502
1782815259208996400,0.226996337890625,0.003092183731496334,0.7103145122528076,0.1787964552640915
1782815259229078300,0.247078369140625,0.07500187307596207,0.5346168875694275,0.20019209384918213
1782815259249160200,0.26716015625,0.10436386615037918,0.3320399224758148,0.2736133337020874
1782815259269242400,0.287242431640625,0.08463473618030548,0.12854616343975067,0.33564484119415283
1782815259289324300,0.30732421875,0.04782912880182266,0.016110045835375786,0.3541560173034668
1782815259309406500,0.327406494140625,0.03431813791394234,0.005061579868197441,0.3357928395271301
1782815259329488600,0.347488525390625,0.03574018552899361,-0.016684161499142647,0.27814990282058716
1782815259349570600,0.367570556640625,0.044038042426109314,0.023347841575741768,0.2352530062198639
1782815259369653500,0.387653564453125,0.07525874674320221,0.0776912048459053,0.23023580014705658
1782815259389735400,0.4077353515625,0.1112542599439621,0.0744396299123764,0.20344606041908264
1782815259409817300,0.4278173828125,0.119479700922966,0.01398356631398201,0.13666844367980957
1782815259429899500,0.4478994140625,0.11927468329668045,-0.059040993452072144,0.04273257777094841
1782815259449981400,0.4679814453125,0.1541161835193634,-0.09429723024368286,-0.029453834518790245
1782815259470063400,0.4880634765625,0.23117908835411072,-0.07316215336322784,-0.033410586416721344
1782815259490145500,0.5081455078125,0.3046543598175049,-0.07906115800142288,0.01601925678551197
1782815259510227500,0.5282275390625,0.3283115029335022,-0.05420806631445885,0.08371712267398834
1782815259530309400,0.548309326171875,0.3292577564716339,-0.03381720557808876,0.08750255405902863
1782815259550391600,0.5683916015625,0.3220328986644745,-0.05579278618097305,0.04038843885064125
1782815259570474500,0.588474609375,0.3057907223701477,-0.13202965259552002,-0.0062757497653365135
1782815259590556400,0.608556396484375,0.2832391858100891,-0.18811316788196564,-0.0028274536598473787
1782815259610638300,0.628638427734375,0.2528823912143707,-0.19428537786006927,0.029018469154834747
1782815259630720300,0.64872021484375,0.21508830785751343,-0.1213715523481369,0.05815771967172623
1782815259650802400,0.668802490234375,0.1725693792104721,-0.08269505947828293,0.08727143704891205
1782815259670884400,0.68888427734375,0.15530288219451904,-0.05125318467617035,0.12836581468582153
1782815259690966300,0.70896630859375,0.1531219631433487,0.011436437256634235,0.1696545034646988
1782815259711048400,0.72904833984375,0.16660168766975403,-0.030580515041947365,0.18039900064468384
1782815259731130400,0.74913037109375,0.16475419700145721,-0.1985028088092804,0.14254440367221832
1782815259751213600,0.769213623046875,0.15718811750411987,-0.2970852255821228,0.09139835834503174
1782815259771295500,0.78929541015625,0.15710294246673584,-0.24175181984901428,0.052749112248420715
1782815259791377700,0.809377685546875,0.16740655899047852,-0.17816628515720367,0.014002794399857521
1782815259811459600,0.82945947265625,0.17246589064598083,-0.13299474120140076,-0.005748949944972992
1782815259831541500,0.84954150390625,0.2055882215499878,-0.04444823041558266,0.04565314203500748
1782815259851623400,0.86962353515625,0.2625017464160919,0.13378652930259705,0.194675475358963
1782815259871705600,0.88970556640625,0.31069856882095337,0.2639904022216797,0.332955926656723
1782815259891787500,0.90978759765625,0.31672051548957825,0.35316887497901917,0.38508686423301697
1782815259911869400,0.929869384765625,0.28544726967811584,0.24435731768608093,0.3340376913547516
1782815259931951600,0.94995166015625,0.2260046899318695,-0.039237216114997864,0.24511241912841797
1782815259952034600,0.97003466796875,0.18154729902744293,-0.17201773822307587,0.21554069221019745
1782815259972116500,0.990116455078125,0.12945568561553955,-0.13979212939739227,0.22235578298568726
1782815259992198400,1.010198486328125,0.08239280432462692,-0.048373185098171234,0.21508631110191345
1782815260012280600,1.030280517578125,0.03668922930955887,0.04160961136221886,0.18380579352378845
1782815260032362500,1.050362548828125,-0.0022579417563974857,0.09376537799835205,0.15169984102249146
1782815260052444400,1.0704443359375,-0.049928929656744,0.050736136734485626,0.129755437374115
1782815260072526300,1.0905263671875,-0.10128878057003021,-0.052422720938920975,0.08771922439336777
1782815260092608500,1.1106083984375,-0.13548094034194946,-0.13427725434303284,0.013270276598632336
1782815260112690400,1.1306904296875,-0.1712552011013031,-0.2645394802093506,-0.09356697648763657
1782815260132772400,1.1507724609375,-0.20171967148780823,-0.35521039366722107,-0.1881195455789566
1782815260152854500,1.1708544921875,-0.2312835305929184,-0.29910406470298767,-0.22335147857666016
1782815260172937500,1.1909375,-0.21691763401031494,-0.025998299941420555,-0.17345112562179565
1782815260193019400,1.211019287109375,-0.16260123252868652,0.26823750138282776,-0.10048416256904602
1782815260213101300,1.231101318359375,-0.10897018760442734,0.36511412262916565,-0.08521843701601028
1782815260233183500,1.25118359375,-0.08052609115839005,0.3235144317150116,-0.1146344467997551
1782815260253265400,1.271265380859375,-0.09336122125387192,0.22634446620941162,-0.17000682651996613
1782815260273347300,1.291347412109375,-0.11241697520017624,0.10306714475154877,-0.2367868572473526
1782815260293429000,1.311428955078125,-0.09303795546293259,0.05483872443437576,-0.25909021496772766
1782815260313511000,1.331510986328125,-0.05085141211748123,0.130729541182518,-0.25356119871139526
1782815260333592800,1.3515927734375,0.0023500663228332996,0.22269925475120544,-0.2288186252117157
1782815260353675000,1.371675048828125,0.05345778539776802,0.26404237747192383,-0.2106231302022934
1782815260373758000,1.391758056640625,0.10983381420373917,0.2596469223499298,-0.205194890499115
1782815260393840000,1.411840087890625,0.18891149759292603,0.1759326159954071,-0.20655754208564758
1782815260413922000,1.431922119140625,0.2700289189815521,0.06085354462265968,-0.1849612444639206
1782815260434004000,1.45200390625,0.29881954193115234,-0.07426663488149643,-0.16816432774066925
1782815260454086100,1.472086181640625,0.30869802832603455,-0.13962486386299133,-0.19030244648456573
1782815260474168000,1.49216796875,0.3510441780090332,-0.08801880478858948,-0.24153266847133636
1782815260494250000,1.51225,0.3941481411457062,0.034160200506448746,-0.27767226099967957
1782815260514332200,1.532332275390625,0.43720826506614685,0.12798923254013062,-0.26921752095222473
1782815260534414000,1.5524140625,0.47838810086250305,0.18557772040367126,-0.22930888831615448
1782815260554496000,1.57249609375,0.5200544595718384,0.16893139481544495,-0.16946223378181458
1782815260574578000,1.592577880859375,0.552000880241394,0.07168392091989517,-0.09614396840333939
1782815260594661000,1.6126611328125,0.5809640288352966,-0.05948280170559883,-0.017926840111613274
1782815260614743000,1.632742919921875,0.5929175019264221,-0.17689411342144012,0.048005007207393646
1782815260634825000,1.652824951171875,0.5625743865966797,-0.23910805583000183,0.09306303411722183
1782815260654907000,1.672906982421875,0.5223754644393921,-0.20906594395637512,0.14737603068351746
1782815260674989000,1.692989013671875,0.5137428045272827,-0.18067044019699097,0.2408456951379776
1782815260695071000,1.713071044921875,0.49701690673828125,-0.21390922367572784,0.40358975529670715
1782815260715153000,1.73315283203125,0.41086381673812866,-0.29117539525032043,0.5194295048713684
1782815260735235000,1.753235107421875,0.23198238015174866,-0.5152491331100464,0.49646905064582825
1782815260755317000,1.77331689453125,-0.006083695217967033,-0.510951578617096,0.3824840784072876
1782815260775399000,1.79339892578125,-0.250255823135376,-0.3524285852909088,0.20558705925941467
1782815260795481000,1.813481201171875,-0.4180159568786621,-0.12227679044008255,0.03842303529381752
1782815260815564000,1.83356396484375,-0.4638426899909973,0.09547632932662964,-0.028829079121351242
1782815260835646000,1.85364599609375,-0.4173818528652191,0.2384234368801117,0.014852479100227356
1782815260855727900,1.873727783203125,-0.2942425012588501,0.26017409563064575,0.17924533784389496
1782815260875809800,1.893809814453125,-0.08934605121612549,0.17856356501579285,0.4586603343486786
1782815260895892000,1.91389208984375,0.05914982780814171,-0.11782175302505493,0.7841813564300537
1782815260915974000,1.933973876953125,0.049992602318525314,-0.4337979853153229,0.9969372153282166
1782815260936055800,1.954055908203125,-0.11019211262464523,-0.5752872824668884,1.0003570318222046
1782815260956138000,1.974137939453125,-0.3468441069126129,-0.4696164131164551,0.7819668650627136
1782815260976220000,1.994219970703125,-0.549034595489502,-0.1329282820224762,0.4232693612575531
1782815260996301800,2.0143017578125,-0.6500325798988342,0.29293298721313477,0.036927659064531326
1782815261016384000,2.034384033203125,-0.6516070365905762,0.5583441257476807,-0.23479941487312317
1782815261036467200,2.05446728515625,-0.6446720957756042,0.7287787795066833,-0.28562694787979126
1782815261056549000,2.074549072265625,-0.6553533673286438,0.7620480060577393,-0.1922001987695694
1782815261076631000,2.094631103515625,-0.7058301568031311,0.641147255897522,-0.07410832494497299
1782815261096713000,2.114712890625,-0.7470100522041321,0.43888798356056213,-0.024248536676168442
1782815261116795100,2.134795166015625,-0.7453824877738953,0.2543618679046631,-0.07833804190158844
1782815261136877000,2.154876953125,-0.7315211296081543,0.010154739022254944,-0.2717544734477997
1782815261156959000,2.174958984375,-0.6802421808242798,-0.39246973395347595,-0.5308480858802795
1782815261177041200,2.195041259765625,-0.6696228981018066,-0.8530001640319824,-0.7320801615715027
1782815261197123000,2.215123046875,-0.7109689712524414,-1.2891969680786133,-0.8876422047615051
1782815261217205000,2.235205078125,-0.7727524638175964,-1.536057710647583,-0.938168466091156
1782815261237287200,2.255287109375,-0.7761611342430115,-1.390158772468567,-0.8259520530700684
1782815261257370000,2.2753701171875,-0.7119734287261963,-0.9633714556694031,-0.6512132287025452
1782815261277452000,2.2954521484375,-0.7027493119239807,-0.28693294525146484,-0.52094966173172
1782815261297534200,2.3155341796875,-0.6322356462478638,0.30729061365127563,-0.5040444731712341
1782815261317616000,2.3356162109375,-0.5315988659858704,0.6989907026290894,-0.5254607796669006
1782815261337698300,2.3556982421875,-0.4478411078453064,0.8857019543647766,-0.5010983347892761
1782815261357780200,2.3757802734375,-0.4443555474281311,0.7386749982833862,-0.46086689829826355
1782815261377862100,2.395862060546875,-0.5132214426994324,0.36923202872276306,-0.4229753017425537
1782815261397944300,2.4159443359375,-0.6018878817558289,-0.06550730764865875,-0.3785129189491272
1782815261418026200,2.436026123046875,-0.6673769354820251,-0.42927515506744385,-0.3131193518638611
1782815261438108200,2.456108154296875,-0.714544951915741,-0.5813930034637451,-0.25090837478637695
1782815261458190000,2.476190185546875,-0.7315596342086792,-0.5734373331069946,-0.20927022397518158
1782815261478272300,2.496272216796875,-0.718467652797699,-0.4892205595970154,-0.16516520082950592
1782815261498355200,2.516355224609375,-0.6761704087257385,-0.4214358925819397,-0.10520775616168976
1782815261518437000,2.53643701171875,-0.663925051689148,-0.43937551975250244,-0.01592032052576542
1782815261538519000,2.55651904296875,-0.7095227837562561,-0.5135114789009094,0.107009157538414
1782815261558601200,2.576601318359375,-0.8067469000816345,-0.5231921672821045,0.2553112804889679
1782815261578683100,2.59668310546875,-0.8843744993209839,-0.44101467728614807,0.3391176164150238
1782815261598765000,2.61676513671875,-0.9262460470199585,-0.26433610916137695,0.35089269280433655
1782815261618847200,2.63684716796875,-0.892239511013031,-0.012611676007509232,0.33714085817337036
1782815261638929200,2.65692919921875,-0.8492962121963501,0.013368109241127968,0.3073829412460327
1782815261659011000,2.677010986328125,-0.8557660579681396,-0.1721533089876175,0.28498032689094543
1782815261679093200,2.69709326171875,-0.8652809262275696,-0.39493808150291443,0.2681644558906555
1782815261699175200,2.717175048828125,-0.8538610935211182,-0.5413349866867065,0.2349708378314972
1782815261719258400,2.73725830078125,-0.8217682838439941,-0.4726503789424896,0.27960219979286194
1782815261739340300,2.75734033203125,-0.7880967259407043,-0.15859390795230865,0.3817080557346344
1782815261759422200,2.777422119140625,-0.7174208760261536,0.2792171537876129,0.4412696957588196
1782815261779504400,2.79750439453125,-0.6044809818267822,0.7137507796287537,0.4765515923500061
1782815261799586300,2.81758642578125,-0.48046982288360596,1.0104105472564697,0.49121129512786865
1782815261819668200,2.837668212890625,-0.38148626685142517,0.9793517589569092,0.44169938564300537
1782815261839750400,2.85775048828125,-0.3026769757270813,0.7127075791358948,0.3339356780052185
1782815261859832300,2.877832275390625,-0.2264871597290039,0.44453558325767517,0.22400666773319244
1782815261879914200,2.897914306640625,-0.20628583431243896,0.14971186220645905,0.13914372026920319
1782815261899996200,2.91799609375,-0.25849243998527527,-0.16628098487854004,0.12859997153282166
1782815261920078300,2.938078369140625,-0.31533393263816833,-0.3404039144515991,0.1355637013912201
1782815261940160300,2.95816015625,-0.33068743348121643,-0.2992459535598755,0.12214475870132446
1782815261960243200,2.9782431640625,-0.29681187868118286,-0.08401311188936234,0.08590786904096603
1782815261980325000,2.9983251953125,-0.2597147524356842,0.08373574912548065,0.04424050822854042
1782815262000407300,3.0184072265625,-0.21693260967731476,0.2373218834400177,0.05108542740345001
1782815262020489200,3.0384892578125,-0.19539909064769745,0.22111175954341888,0.07050759345293045
1782815262040571100,3.058571044921875,-0.1575108766555786,0.04035331308841705,0.08055255562067032
1782815262060653300,3.0786533203125,-0.11305481940507889,-0.2251911759376526,0.08081193268299103
1782815262080735200,3.0987353515625,-0.12071746587753296,-0.5635040998458862,0.07384951412677765
1782815262100817200,3.118817138671875,-0.24114301800727844,-0.9141573309898376,0.0402570478618145
1782815262120899300,3.1388994140625,-0.43739500641822815,-1.051343560218811,-0.04777891933917999
1782815262140981200,3.158981201171875,-0.6490113139152527,-0.8371480107307434,-0.19700267910957336
1782815262161063200,3.179063232421875,-0.7948012351989746,-0.40556231141090393,-0.3386669158935547
1782815262181146000,3.19914599609375,-0.8077581524848938,0.1274060755968094,-0.3837296664714813
1782815262201228000,3.21922802734375,-0.768826425075531,0.41962918639183044,-0.3211526870727539
1782815262221310200,3.239310302734375,-0.7334921360015869,0.5115085244178772,-0.16160424053668976
1782815262241392000,3.25939208984375,-0.764614999294281,0.46655434370040894,0.002478865208104253
1782815262261474000,3.27947412109375,-0.8692049980163574,0.2917556166648865,0.06924422085285187
1782815262281556200,3.29955615234375,-0.9913705587387085,0.049417007714509964,0.024273281916975975
1782815262301638100,3.31963818359375,-1.0680255889892578,-0.13956759870052338,-0.0881471037864685
1782815262321720000,3.339719970703125,-1.1176235675811768,-0.1786489188671112,-0.251090943813324
1782815262341802200,3.35980224609375,-1.1601613759994507,-0.12438707798719406,-0.43206271529197693
1782815262361884200,3.37988427734375,-1.1605316400527954,-0.12437955290079117,-0.5878422856330872
1782815262381966000,3.399966064453125,-1.0902727842330933,-0.008593671955168247,-0.6486833691596985
1782815262402048000,3.420048095703125,-0.981621265411377,0.20209233462810516,-0.5883921384811401
1782815262422131000,3.440130859375,-0.902225136756897,0.32628026604652405,-0.42997634410858154
1782815262442213000,3.460213134765625,-0.8112417459487915,0.34062981605529785,-0.20482586324214935
1782815262462295000,3.480294921875,-0.6982259750366211,0.23378726840019226,0.005569983273744583
1782815262482377000,3.500376953125,-0.5687776207923889,0.10238483548164368,0.15759779512882233
1782815262502459100,3.520459228515625,-0.42984095215797424,-0.05098531395196915,0.2343510538339615
1782815262522541000,3.540541015625,-0.30127498507499695,-0.14184004068374634,0.285637766122818
1782815262542623000,3.560623046875,-0.21390210092067719,-0.1834602653980255,0.32802027463912964
1782815262562705200,3.580705078125,-0.1710098832845688,-0.1743525117635727,0.37757766246795654
1782815262582787000,3.600787109375,-0.11618055403232574,-0.12855444848537445,0.4174198806285858
1782815262602869000,3.620868896484375,-0.07334619760513306,-0.19518661499023438,0.41215893626213074
1782815262622951000,3.640950927734375,-0.08379138261079788,-0.22741219401359558,0.4032568037509918
1782815262643033000,3.661033203125,-0.20685075223445892,-0.23298265039920807,0.3683152496814728
1782815262663115300,3.681115234375,-0.3509897291660309,-0.23100388050079346,0.2941734194755554
1782815262683198200,3.7011982421875,-0.3834841251373291,-0.12775294482707977,0.24502485990524292
1782815262703280000,3.721280029296875,-0.32107996940612793,0.00775283994153142,0.2819446623325348
1782815262723362300,3.7413623046875,-0.20876175165176392,0.058978863060474396,0.4053133726119995
1782815262743444200,3.7614443359375,-0.11614392697811127,0.06520240008831024,0.5831161141395569
1782815262763526100,3.781526123046875,-0.0990622341632843,0.08606590330600739,0.7388581037521362
1782815262783608300,3.8016083984375,-0.12726525962352753,0.17224276065826416,0.7703984975814819
1782815262803690200,3.821690185546875,-0.1634465903043747,0.2153397798538208,0.6707395315170288
1782815262823772200,3.841772216796875,-0.1925063580274582,0.36326026916503906,0.5471406579017639
1782815262843854000,3.86185400390625,-0.21231020987033844,0.45643964409828186,0.44258981943130493
1782815262863936300,3.881936279296875,-0.26797592639923096,0.43341708183288574,0.3592296540737152
1782815262884018200,3.90201806640625,-0.35670602321624756,0.3024860918521881,0.25051429867744446
1782815262904100000,3.92210009765625,-0.39928627014160156,0.14128875732421875,0.14584477245807648
1782815262924183000,3.94218310546875,-0.3907744288444519,0.06556770205497742,0.05430705472826958
1782815262944265200,3.96226513671875,-0.3822970390319824,0.01765531301498413,-0.05362134799361229
1782815262964347100,3.98234716796875,-0.38138797879219055,-0.11292826384305954,-0.15518708527088165
1782815262984429000,4.002428955078125,-0.38744568824768066,-0.26541668176651,-0.16724207997322083
1782815263004511200,4.02251123046875,-0.42251551151275635,-0.4225826561450958,-0.16791868209838867
1782815263024593200,4.04259326171875,-0.452516108751297,-0.5444279909133911,-0.24796651303768158
1782815263044675000,4.062675048828125,-0.42232462763786316,-0.5357875823974609,-0.36764252185821533
1782815263064757000,4.082757080078125,-0.3555517792701721,-0.3615724742412567,-0.43947696685791016
1782815263084839200,4.102839111328125,-0.2978721857070923,-0.1587628722190857,-0.4538102447986603
1782815263104921000,4.122921142578125,-0.3002249002456665,-0.11739549785852432,-0.4812680184841156
1782815263125003000,4.1430029296875,-0.3160841464996338,-0.10600925236940384,-0.5325261950492859
1782815263145085200,4.163085205078125,-0.3343134820461273,-0.03505987301468849,-0.5779796838760376
1782815263165167000,4.1831669921875,-0.32135114073753357,0.09601154923439026,-0.5596356391906738
1782815263185250000,4.20325,-0.2963152825832367,0.23783914744853973,-0.44620415568351746
1782815263205332000,4.22333203125,-0.2656550109386444,0.28046467900276184,-0.3406641483306885
1782815263225414100,4.2434140625,-0.266120970249176,0.149196594953537,-0.30655205249786377
1782815263245496000,4.26349609375,-0.2678641676902771,-0.07485248148441315,-0.30386167764663696
1782815263265578000,4.283577880859375,-0.26318153738975525,-0.155040442943573,-0.2874111831188202
1782815263285660000,4.303659912109375,-0.2814720869064331,-0.1586427092552185,-0.3056497871875763
1782815263305742000,4.3237421875,-0.3339521586894989,-0.13579683005809784,-0.3392903208732605
1782815263325824000,4.343823974609375,-0.3698766529560089,-0.15497641265392303,-0.3537314236164093
1782815263345906000,4.363906005859375,-0.38445350527763367,-0.2741108238697052,-0.2897152304649353
1782815263365988000,4.383988037109375,-0.3624294102191925,-0.37322649359703064,-0.1493869572877884
1782815263386070000,4.404070068359375,-0.31140923500061035,-0.34147146344184875,0.017693553119897842
1782815263406152000,4.42415185546875,-0.252284973859787,-0.28766316175460815,0.14906702935695648
1782815263426234000,4.444234130859375,-0.20489145815372467,-0.3605520725250244,0.24058976769447327
1782815263446317000,4.464317138671875,-0.18958112597465515,-0.4463551342487335,0.32183659076690674
1782815263466399000,4.48439892578125,-0.22037766873836517,-0.48616230487823486,0.34518441557884216
1782815263486481000,4.50448095703125,-0.2777218222618103,-0.4047420620918274,0.3178651034832001
1782815263506563000,4.52456298828125,-0.34005409479141235,-0.197895810008049,0.23447687923908234
1782815263526645000,4.54464501953125,-0.3618335425853729,-0.011774180456995964,0.13477453589439392
1782815263546727000,4.564726806640625,-0.33253034949302673,0.12434524297714233,0.10049013048410416
1782815263566808800,4.584808837890625,-0.28567126393318176,0.0797523483633995,0.11992458999156952
1782815263586891000,4.60489111328125,-0.2153906226158142,0.0051049767062067986,0.18387499451637268
1782815263606973000,4.624972900390625,-0.11936581879854202,-0.06633538752794266,0.23919230699539185
1782815263627054800,4.645054931640625,-0.03513951227068901,-0.26933279633522034,0.26477357745170593
1782815263647137000,4.665136962890625,0.02815883420407772,-0.26675179600715637,0.31053316593170166
1782815263667219000,4.685218994140625,0.07907775789499283,-0.23810981214046478,0.3793374300003052
1782815263687300900,4.70530078125,0.12494871020317078,-0.3274065852165222,0.4419974684715271
1782815263707383000,4.725383056640625,0.14998771250247955,-0.4350604712963104,0.4613693654537201
1782815263727466000,4.745466064453125,0.14722248911857605,-0.41920697689056396,0.44257137179374695
1782815263747548000,4.7655478515625,0.1356777399778366,-0.22337695956230164,0.4020296037197113
1782815263767629800,4.7856298828125,0.15700331330299377,0.12630216777324677,0.37107378244400024
1782815263787711700,4.805711669921875,0.1927516907453537,0.4654775857925415,0.37771254777908325
1782815263807794200,4.825794189453125,0.2264171540737152,0.583564817905426,0.37538954615592957
1782815263827876000,4.8458759765625,0.17266835272312164,0.31903907656669617,0.24480769038200378
1782815263847958000,4.8659580078125,0.0891772210597992,-0.07470022141933441,0.04484737664461136
1782815263868040200,4.886040283203125,0.018846921622753143,-0.259513258934021,-0.07124916464090347
1782815263888122000,4.9061220703125,-0.02295790985226631,-0.23993457853794098,-0.1098368912935257
1782815263908204000,4.9262041015625,-0.05624430626630783,-0.11679095774888992,-0.12081372737884521
1782815263928286000,4.946285888671875,-0.09869574010372162,-0.011311395093798637,-0.15300658345222473
1782815263948368100,4.9663681640625,-0.13291911780834198,0.00864347629249096,-0.2014724612236023
1782815263968450000,4.986449951171875,-0.12015081197023392,0.036427900195121765,-0.18831293284893036
1782815263988533000,5.006532958984375,-0.09413745999336243,0.15820075571537018,-0.10118457674980164
1782815264008615000,5.026614990234375,-0.08720486611127853,0.18532425165176392,-0.009546502493321896
1782815264028697000,5.046697021484375,-0.06624891608953476,0.09751400351524353,0.011451785452663898
1782815264048779000,5.066779052734375,-0.018359089270234108,-0.03653952106833458,0.006011029239743948
1782815264068861000,5.08686083984375,-0.0037070668768137693,-0.21180172264575958,-0.0017587293405085802
1782815264088943000,5.106943115234375,-0.06494226306676865,-0.3932268023490906,-0.06450368463993073
1782815264109025000,5.12702490234375,-0.19087688624858856,-0.47030434012413025,-0.21315613389015198
1782815264129107000,5.14710693359375,-0.32078683376312256,-0.4432404339313507,-0.3745179772377014
1782815264149189000,5.167189208984375,-0.4072794020175934,-0.2555164396762848,-0.4633791148662567
1782815264169271000,5.18727099609375,-0.45498159527778625,0.07556503266096115,-0.4794146418571472
1782815264189353000,5.20735302734375,-0.4696230888366699,0.30616340041160583,-0.4381405711174011
1782815264209435000,5.227434814453125,-0.4642542600631714,0.4310077726840973,-0.3763279914855957
1782815264229517000,5.24751708984375,-0.4340077340602875,0.4987812638282776,-0.3253087103366852
1782815264249599000,5.267598876953125,-0.4105507731437683,0.4839223623275757,-0.28452247381210327
1782815264269681000,5.287680908203125,-0.3825151324272156,0.3744375705718994,-0.2485109567642212
1782815264289763800,5.307763916015625,-0.3284319043159485,0.20513556897640228,-0.20257538557052612
1782815264309845200,5.32784521484375,-0.25762176513671875,0.011579347774386406,-0.16028271615505219
1782815264329927200,5.34792724609375,-0.19370168447494507,-0.08978584408760071,-0.12395371496677399
1782815264350010000,5.368010009765625,-0.1364116370677948,-0.1760210245847702,-0.13172875344753265
1782815264370092000,5.388092041015625,-0.07799530774354935,-0.2408170998096466,-0.1449475735425949
1782815264390174200,5.40817431640625,-0.032621223479509354,-0.25155025720596313,-0.1218382939696312
1782815264410256100,5.428256103515625,-0.008656839840114117,-0.1675928682088852,-0.09574556350708008
1782815264430338000,5.448338134765625,0.004525454249233007,-0.028160151094198227,-0.10951876640319824
1782815264450420200,5.468420166015625,0.02808741293847561,0.07441355288028717,-0.16863898932933807
1782815264470502100,5.488502197265625,0.08002983778715134,0.13456954061985016,-0.18459735810756683
1782815264490584000,5.508583984375,0.11427704989910126,0.1286444067955017,-0.15407977998256683
1782815264510666200,5.528666259765625,0.14492015540599823,0.1408819705247879,-0.07299169152975082
1782815264530748200,5.548748046875,0.18256016075611115,0.1538255214691162,-0.01706528104841709
1782815264550830000,5.568830078125,0.21939320862293243,0.15319298207759857,0.008410722017288208
1782815264570912000,5.588912109375,0.2623617351055145,0.06295869499444962,0.011957253329455853
1782815264590994200,5.608994140625,0.3099592626094818,-0.005338461138308048,0.03488532081246376
1782815264611076000,5.629076171875,0.3278708755970001,-0.07241453975439072,0.057304590940475464
1782815264631159300,5.6491591796875,0.32519951462745667,-0.050170715898275375,0.11787053197622299
1782815264651241200,5.6692412109375,0.3229651153087616,-0.07791168987751007,0.1763106882572174
1782815264671323400,5.689323486328125,0.289008229970932,-0.23134885728359222,0.182254821062088
1782815264691405300,5.7094052734375,0.2239844650030136,-0.21186035871505737,0.19174066185951233
1782815264711487200,5.7294873046875,0.16270674765110016,-0.11336635798215866,0.22757254540920258
1782815264731569400,5.7495693359375,0.09320610016584396,-0.03119630552828312,0.2937958836555481
1782815264751651300,5.7696513671875,0.046197764575481415,0.08839362114667892,0.4171088933944702
1782815264771733200,5.789733154296875,0.019337091594934464,0.28760015964508057,0.5722690224647522
1782815264791815200,5.809815185546875,-0.015338128432631493,0.39541685581207275,0.6723231673240662
1782815264811898000,5.829898193359375,-0.05444710701704025,0.42933157086372375,0.7050252556800842
1782815264831980300,5.849980224609375,-0.0860195904970169,0.29485654830932617,0.6413519382476807
1782815264852062200,5.870062255859375,-0.12314359843730927,-0.008640626445412636,0.48130038380622864
1782815264872144100,5.89014404296875,-0.19373595714569092,-0.27051809430122375,0.2874602973461151
1782815264892226300,5.910226318359375,-0.2688153088092804,-0.3364606201648712,0.13772714138031006
1782815264912308200,5.93030810546875,-0.31917640566825867,-0.2953968644142151,0.07931239902973175
1782815264932390100,5.95039013671875,-0.3390611410140991,-0.14973482489585876,0.10497326403856277
1782815264952472300,5.970472412109375,-0.37847986817359924,-0.002494899556040764,0.18247319757938385
1782815264972554200,5.99055419921875,-0.41898760199546814,0.014402932487428188,0.25410839915275574
1782815264992636200,6.01063623046875,-0.4651133716106415,-0.05083860829472542,0.25910770893096924
1782815265012718000,6.030718017578125,-0.5219128131866455,-0.09080607444047928,0.20103542506694794
1782815265032801000,6.050801025390625,-0.5808373093605042,-0.14910660684108734,0.11745850741863251
1782815265052883200,6.07088330078125,-0.5841673016548157,-0.21490760147571564,0.10012021660804749
1782815265072965000,6.090965087890625,-0.6034982800483704,-0.3014701008796692,0.17022705078125
1782815265093047000,6.111047119140625,-0.6517531275749207,-0.41269543766975403,0.2935955226421356
1782815265113129200,6.131129150390625,-0.7070638537406921,-0.4786115288734436,0.3773217499256134
1782815265133211100,6.151211181640625,-0.7517679929733276,-0.4792958199977875,0.37756258249282837
1782815265153293000,6.17129296875,-0.826249361038208,-0.43368926644325256,0.29477548599243164
1782815265173375200,6.191375244140625,-0.9315705895423889,-0.3982242941856384,0.1864684522151947
1782815265193457200,6.21145703125,-1.038913607597351,-0.408812552690506,0.08556722849607468
1782815265213539000,6.2315390625,-1.1315542459487915,-0.4639171063899994,-0.020246652886271477
1782815265233622300,6.251622314453125,-1.2134902477264404,-0.46755990386009216,-0.11514434963464737
1782815265253704200,6.2717041015625,-1.2782707214355469,-0.42012277245521545,-0.1752064973115921
1782815265273786400,6.291786376953125,-1.318846344947815,-0.3816775977611542,-0.18711696565151215
1782815265293868300,6.311868408203125,-1.344213604927063,-0.35243070125579834,-0.1399112492799759
1782815265313950200,6.3319501953125,-1.3832820653915405,-0.3537048101425171,-0.09680081903934479
1782815265334032400,6.352032470703125,-1.4295660257339478,-0.34618037939071655,-0.1001831591129303
1782815265354114300,6.3721142578125,-1.4644577503204346,-0.30514517426490784,-0.14507953822612762
1782815265374196200,6.3921962890625,-1.5035706758499146,-0.2426295131444931,-0.18968790769577026
1782815265394278400,6.4122783203125,-1.5451189279556274,-0.22289498150348663,-0.20822177827358246
1782815265414360300,6.4323603515625,-1.5806238651275635,-0.22047840058803558,-0.2027949094772339
1782815265434442200,6.452442138671875,-1.623918056488037,-0.22122029960155487,-0.21518348157405853
1782815265454525400,6.472525390625,-1.6725741624832153,-0.2682848870754242,-0.24926726520061493
1782815265474607400,6.492607421875,-1.7034177780151367,-0.4385807514190674,-0.26997870206832886
1782815265494689500,6.512689453125,-1.7201323509216309,-0.650306761264801,-0.23451535403728485
1782815265514771500,6.532771484375,-1.7357521057128906,-0.8183727264404297,-0.1738879680633545
1782815265534853400,6.552853271484375,-1.7914199829101562,-0.8777636289596558,-0.13690364360809326
1782815265554935600,6.572935546875,-1.8777226209640503,-0.7946028113365173,-0.11447549611330032
1782815265575017500,6.593017578125,-1.9608360528945923,-0.673557460308075,-0.07216797024011612
1782815265595099400,6.613099365234375,-2.059316396713257,-0.5618545413017273,0.0025701718404889107
1782815265615181600,6.633181640625,-2.167475461959839,-0.5073106288909912,0.0603504478931427
1782815265635263500,6.653263427734375,-2.2718403339385986,-0.5387794375419617,0.05793966352939606
1782815265655346400,6.673346435546875,-2.364060878753662,-0.5387177467346191,0.050953179597854614
1782815265675428400,6.693428466796875,-2.4448561668395996,-0.4565282166004181,0.055866729468107224
1782815265695510300,6.71351025390625,-2.552109718322754,-0.5112043023109436,0.006715504452586174
1782815265715592400,6.733592529296875,-2.6227924823760986,-0.42349258065223694,-0.002010342665016651
1782815265735674400,6.75367431640625,-2.5786216259002686,-0.16217800974845886,0.08453688025474548
1782815265755756300,6.77375634765625,-2.486196756362915,-0.052628081291913986,0.21129992604255676
1782815265775838500,6.79383837890625,-2.386356830596924,-0.06839539855718613,0.31676360964775085
1782815265795920400,6.81392041015625,-2.2712082862854004,-0.25762224197387695,0.37168818712234497
1782815265816002300,6.834002197265625,-2.202030897140503,-0.49517083168029785,0.38739830255508423
1782815265836085200,6.854085205078125,-2.182065963745117,-0.5744221210479736,0.3538767099380493
1782815265856167400,6.87416748046875,-2.1673524379730225,-0.5213728547096252,0.26357460021972656
1782815265876249300,6.894249267578125,-2.1128177642822266,-0.43432217836380005,0.14820899069309235
1782815265896331300,6.914331298828125,-2.0211150646209717,-0.30603042244911194,0.09208329766988754
1782815265916413200,6.9344130859375,-1.9357715845108032,-0.16905085742473602,0.0948842316865921
1782815265936495400,6.954495361328125,-1.8817811012268066,-0.07587876170873642,0.15228669345378876
1782815265956577300,6.974577392578125,-1.830680251121521,-0.06155858933925629,0.20180639624595642
1782815265976659200,6.9946591796875,-1.7453957796096802,-0.09415146708488464,0.2099612057209015
1782815265996741400,7.014741455078125,-1.6559861898422241,-0.15811783075332642,0.17647039890289307
1782815266016823300,7.0348232421875,-1.5939654111862183,-0.2285470962524414,0.13572828471660614
1782815266036905200,7.0549052734375,-1.5554567575454712,-0.2935069799423218,0.10569090396165848
1782815266056988400,7.074988525390625,-1.5374667644500732,-0.33058425784111023,0.061626628041267395
1782815266077070600,7.095070556640625,-1.5064994096755981,-0.37081378698349,-0.02682046964764595
1782815266097152500,7.115152587890625,-1.4636706113815308,-0.3922424912452698,-0.14044111967086792
1782815266117234400,7.135234375,-1.4085532426834106,-0.37514111399650574,-0.21947742998600006
1782815266137316400,7.15531640625,-1.3485270738601685,-0.3625428080558777,-0.2020915448665619
1782815266157398500,7.1753984375,-1.2969481945037842,-0.39805519580841064,-0.1182311475276947
1782815266177480400,7.19548046875,-1.2503269910812378,-0.46167126297950745,-0.024573756381869316
1782815266197562400,7.215562255859375,-1.2114001512527466,-0.5106127858161926,0.035548847168684006
1782815266217644500,7.23564453125,-1.1903574466705322,-0.529897153377533,0.05015842616558075
1782815266237726500,7.2557265625,-1.2031689882278442,-0.5718501806259155,0.004810396581888199
1782815266257808400,7.275808349609375,-1.2328017950057983,-0.5673509240150452,-0.07835931330919266
1782815266277891300,7.295891357421875,-1.2857846021652222,-0.4926864504814148,-0.14457112550735474
1782815266297973200,7.31597314453125,-1.3611351251602173,-0.44747063517570496,-0.16923944652080536
1782815266318055200,7.33605517578125,-1.4075111150741577,-0.37826037406921387,-0.15995603799819946
1782815266338137000,7.35613720703125,-1.4292147159576416,-0.3419833779335022,-0.15495598316192627
1782815266358219300,7.37621923828125,-1.436623215675354,-0.34726324677467346,-0.17917175590991974
1782815266378301200,7.39630126953125,-1.4203773736953735,-0.3148970901966095,-0.1982569545507431
1782815266398383000,7.416383056640625,-1.3865774869918823,-0.26964935660362244,-0.2055129110813141
1782815266418465000,7.436465087890625,-1.3093770742416382,-0.25262942910194397,-0.18244753777980804
1782815266438547200,7.456547119140625,-1.2090542316436768,-0.33310770988464355,-0.15006281435489655
1782815266458629000,7.476629150390625,-1.1385372877120972,-0.4400637149810791,-0.13666673004627228
1782815266478711000,7.4967109375,-1.0749807357788086,-0.41945579648017883,-0.12948104739189148
1782815266498794000,7.5167939453125,-0.9838840961456299,-0.28385964035987854,-0.11047419160604477
1782815266518876200,7.536876220703125,-0.8753736615180969,-0.1635979861021042,-0.07217720150947571
1782815266538958000,7.5569580078125,-0.7804069519042969,-0.05910946801304817,-0.027159282937645912
1782815266559040000,7.5770400390625,-0.7196919322013855,0.025064529851078987,-0.001738878432661295
1782815266579122200,7.5971220703125,-0.6696462035179138,0.07849694788455963,-0.018630389124155045
1782815266599204000,7.6172041015625,-0.6055231094360352,0.11441121250391006,-0.047229502350091934
1782815266619286000,7.6372861328125,-0.5431892275810242,0.15041062235832214,-0.03150681033730507
1782815266639368000,7.657367919921875,-0.49644801020622253,0.11831629276275635,0.006542207673192024
1782815266659450000,7.6774501953125,-0.46182185411453247,0.11378751695156097,0.07373306900262833
1782815266679532000,7.697531982421875,-0.42076900601387024,0.08532432466745377,0.10913585126399994
1782815266699614000,7.717614013671875,-0.36557304859161377,0.05165219306945801,0.12654832005500793
1782815266719696100,7.737696044921875,-0.29046306014060974,-0.012686025351285934,0.1164042055606842
1782815266739778000,7.757778076171875,-0.23748381435871124,-0.11170721054077148,0.08647507429122925
1782815266759861200,7.777861328125,-0.17482127249240875,-0.18945005536079407,0.097285695374012
1782815266779943200,7.797943115234375,-0.11464016884565353,-0.24771137535572052,0.1729353964328766
1782815266800025300,7.818025390625,-0.06823508441448212,-0.22027671337127686,0.2595578730106354
1782815266820107300,7.838107177734375,-0.06211812049150467,-0.16503052413463593,0.2917918264865875
1782815266840189200,7.858189208984375,-0.10451477766036987,-0.039190441370010376,0.2333558350801468
1782815266860271000,7.87827099609375,-0.14481967687606812,0.11879150569438934,0.1315334439277649
1782815266880353300,7.898353271484375,-0.1713424175977707,0.2161724716424942,0.09170051664113998
1782815266900435200,7.918435302734375,-0.18713560700416565,0.21788442134857178,0.15118971467018127
1782815266920517000,7.93851708984375,-0.21540242433547974,0.1413155049085617,0.2634294629096985
1782815266940599300,7.958599365234375,-0.2677844166755676,0.010599803179502487,0.32999417185783386
1782815266960681200,7.97868115234375,-0.31407806277275085,-0.08132080733776093,0.3197703957557678
1782815266980763100,7.99876318359375,-0.3475085198879242,-0.05012662708759308,0.2610724866390228
1782815267000846000,8.01884619140625,-0.3583858013153076,0.04311798885464668,0.18757806718349457
1782815267020928300,8.03892822265625,-0.37236088514328003,0.037439972162246704,0.1283152550458908
1782815267041010200,8.05901025390625,-0.39036205410957336,-0.07932042330503464,0.09627140313386917
1782815267061092000,8.079092041015626,-0.40879160165786743,-0.11987242847681046,0.13205067813396454
1782815267081174000,8.099174072265624,-0.39533141255378723,-0.10991863906383514,0.2123420238494873
1782815267101256200,8.119256103515625,-0.3658277690410614,-0.07444710284471512,0.28490227460861206
1782815267121338000,8.139338134765625,-0.3418647348880768,-0.0237799733877182,0.31952568888664246
1782815267141420000,8.159419921875,-0.3267265558242798,-0.054499804973602295,0.32019147276878357
1782815267161502200,8.179502197265625,-0.3404161334037781,-0.13737525045871735,0.31008216738700867
1782815267181584100,8.199584228515626,-0.3838472068309784,-0.2521297037601471,0.2991454601287842
1782815267201666000,8.219666015625,-0.4267975687980652,-0.2939879894256592,0.29809772968292236
1782815267221748200,8.239748291015625,-0.4720641076564789,-0.29746443033218384,0.2736695110797882
1782815267241830100,8.259830078125,-0.5363788604736328,-0.310746431350708,0.21504153311252594
1782815267261913000,8.2799130859375,-0.5992313623428345,-0.33875173330307007,0.14659342169761658
1782815267281995000,8.2999951171875,-0.6391453146934509,-0.31410732865333557,0.13359136879444122
1782815267302077000,8.320076904296876,-0.6589096784591675,-0.22718320786952972,0.20593459904193878
1782815267322159000,8.3401591796875,-0.705947995185852,-0.182024747133255,0.26291412115097046
1782815267342241000,8.360240966796875,-0.7466011047363281,-0.17866848409175873,0.24409890174865723
1782815267362323000,8.380322998046875,-0.7826458811759949,-0.20159010589122772,0.18435285985469818
1782815267382405000,8.400405029296875,-0.8219832181930542,-0.33514782786369324,0.049833815544843674
1782815267402487000,8.420487060546876,-0.8765971660614014,-0.4757804274559021,-0.11806992441415787
1782815267422569000,8.44056884765625,-0.9294483661651611,-0.48493579030036926,-0.2830028831958771
1782815267442651100,8.460651123046874,-0.9652670621871948,-0.3950975835323334,-0.4056118428707123
1782815267462733000,8.480733154296875,-0.9750528931617737,-0.30176955461502075,-0.44982969760894775
1782815267482815000,8.50081494140625,-0.9157785177230835,-0.1407235562801361,-0.3742835521697998
1782815267502898200,8.520898193359375,-0.8156329393386841,0.01961943507194519,-0.21659690141677856
1782815267522980000,8.54097998046875,-0.7315738201141357,0.04410867765545845,-0.06202024593949318
1782815267543062300,8.561062255859374,-0.6764533519744873,0.025563981384038925,0.04216974228620529
1782815267563144200,8.581144287109375,-0.6353908181190491,0.016619952395558357,0.05850854143500328
1782815267583226000,8.60122607421875,-0.6031132340431213,-0.011945415288209915,0.0132299168035388
1782815267603308300,8.621308349609375,-0.5710824131965637,-0.0844029113650322,-0.04557306692004204
1782815267623390200,8.64139013671875,-0.542240560054779,-0.13872481882572174,-0.07875597476959229
1782815267643472100,8.66147216796875,-0.5444247126579285,-0.1805042177438736,-0.0952891856431961
1782815267663554300,8.68155419921875,-0.5673738121986389,-0.2016219049692154,-0.12959598004817963
1782815267683636200,8.70163623046875,-0.5713809728622437,-0.17713411152362823,-0.16666637361049652
1782815267703718100,8.72171826171875,-0.5443360209465027,-0.1371849775314331,-0.17509134113788605
1782815267723800000,8.741800048828125,-0.5033861398696899,-0.10054977238178253,-0.14938414096832275
1782815267743882200,8.76188232421875,-0.4627700448036194,-0.08560148626565933,-0.11333352327346802
1782815267763964200,8.781964111328126,-0.42522409558296204,-0.08338969945907593,-0.07768061757087708
1782815267784046000,8.802046142578124,-0.3700651228427887,-0.10923419147729874,-0.03419811278581619
1782815267804129000,8.82212890625,-0.31420889496803284,-0.15306712687015533,0.01714586280286312
1782815267824211200,8.842211181640625,-0.28697270154953003,-0.22248569130897522,0.05660070478916168
1782815267844293000,8.862293212890625,-0.28890061378479004,-0.2559111714363098,0.07264190912246704
1782815267864375000,8.882375,-0.3037428855895996,-0.24719582498073578,0.0624210424721241
1782815267884457200,8.902457275390624,-0.30038580298423767,-0.23313334584236145,0.06293191015720367
1782815267904539100,8.9225390625,-0.2582657039165497,-0.17229144275188446,0.15659010410308838
1782815267924621000,8.94262109375,-0.22225378453731537,-0.10556893050670624,0.282901793718338
1782815267944703000,8.962702880859375,-0.2169818878173828,-0.23453427851200104,0.3145141005516052
1782815267964785200,8.98278515625,-0.1993461698293686,-0.33427897095680237,0.26199090480804443
1782815267984867000,9.0028671875,-0.18250270187854767,-0.26642656326293945,0.2459530234336853
1782815268004949000,9.022948974609376,-0.1491842269897461,-0.09760759025812149,0.29711252450942993
1782815268025031200,9.04303125,-0.13205575942993164,-0.07499206811189651,0.33020755648612976
1782815268045113000,9.063113037109375,-0.1277868151664734,-0.11417389661073685,0.31638261675834656
1782815268065195000,9.083195068359375,-0.12278614193201065,-0.08835827559232712,0.299783319234848
1782815268085277200,9.103277099609375,-0.13228264451026917,-0.00011135265231132507,0.2951178252696991
1782815268105360100,9.123360107421876,-0.14521560072898865,0.12444480508565903,0.27830395102500916
1782815268125442000,9.143442138671874,-0.15144148468971252,0.20057958364486694,0.2507857382297516
1782815268145524000,9.16352392578125,-0.1554691642522812,0.19089458882808685,0.21639597415924072
1782815268165606100,9.183606201171875,-0.16389933228492737,0.056062132120132446,0.1882607787847519
1782815268185688000,9.20368798828125,-0.16232234239578247,0.00006494438275694847,0.17001484334468842
1782815268205770000,9.22377001953125,-0.16186557710170746,-0.04081278666853905,0.11882045865058899
1782815268225852000,9.243851806640626,-0.16436323523521423,-0.05276509001851082,0.04929475113749504
1782815268245934000,9.26393408203125,-0.156701922416687,-0.008707543835043907,0.012046407908201218
1782815268266016000,9.28401611328125,-0.1494957059621811,0.05283685028553009,0.014753934927284718
1782815268286098000,9.304097900390625,-0.14559787511825562,0.06702928990125656,0.023780029267072678
1782815268306180400,9.324180419921875,-0.15041540563106537,0.051456987857818604,0.020113157108426094
1782815268326889500,9.344889404296875,-0.1573919802904129,0.07272438704967499,0.0005471511976793408
1782815268346971400,9.364971435546876,-0.13089552521705627,0.1419217586517334,0.009388456121087074
1782815268367053600,9.385053466796874,-0.10067994892597198,0.17283622920513153,0.038485098630189896
1782815268387135500,9.405135498046874,-0.08054088056087494,0.10268278419971466,0.03542634844779968
1782815268407217400,9.425217529296875,-0.07172226905822754,-0.03321543335914612,-0.014527993276715279
1782815268427299600,9.445299560546875,-0.07249023765325546,-0.1792372763156891,-0.10942421853542328
1782815268447381500,9.465381591796875,-0.11814945191144943,-0.21005389094352722,-0.23676332831382751
1782815268467463400,9.48546337890625,-0.18809056282043457,-0.10542818903923035,-0.3901667296886444
1782815268487545600,9.505545654296874,-0.2134678214788437,0.08191587030887604,-0.47131139039993286
1782815268507627500,9.52562744140625,-0.16445906460285187,0.2194085419178009,-0.38831108808517456
1782815268527710500,9.54571044921875,-0.1104150265455246,0.22576920688152313,-0.21403951942920685
1782815268547792400,9.56579248046875,-0.11423826217651367,0.1543474942445755,-0.08084312081336975
1782815268567874300,9.585874267578125,-0.13114483654499054,0.0521308109164238,-0.07155415415763855
1782815268587956500,9.60595654296875,-0.10941948741674423,0.024544231593608856,-0.17417873442173004
1782815268608038400,9.626038330078124,-0.06306024640798569,0.05380251631140709,-0.3015257716178894
1782815268628120300,9.646120361328125,-0.034887198358774185,0.050007354468107224,-0.3815039396286011
1782815268648202500,9.666202392578125,-0.0024278147611767054,0.01123793050646782,-0.39683961868286133
1782815268667657700,9.68565771484375,0.03162788599729538,-0.03861788660287857,-0.3678596317768097
1782815268687739600,9.70573974609375,0.05220712721347809,-0.06366602331399918,-0.33901020884513855
1782815268707822600,9.725822509765624,0.06416177749633789,-0.004873467143625021,-0.3104391396045685
1782815268727904500,9.745904541015625,0.10240266472101212,0.0793897807598114,-0.2846776843070984
1782815268747986400,9.765986328125,0.1874222606420517,0.17338110506534576,-0.23866364359855652
1782815268768068600,9.786068603515625,0.25362783670425415,0.191897913813591,-0.16360972821712494
1782815268788150500,9.806150634765626,0.2681870758533478,0.13237865269184113,-0.10386384278535843
1782815268808232400,9.826232421875,0.2760176956653595,0.09446537494659424,-0.09590049088001251
1782815268828314600,9.846314697265624,0.30764806270599365,0.09799866378307343,-0.12800420820713043
1782815268848396500,9.866396484375,0.3474809229373932,0.06305566430091858,-0.15871208906173706
1782815268868478500,9.886478515625,0.37974536418914795,0.04720297455787659,-0.1597457081079483
1782815268888560600,9.906560546875,0.41038188338279724,0.05360555276274681,-0.12377279996871948
1782815268908642600,9.926642578125,0.4767759442329407,0.021102970466017723,-0.04252178594470024
1782815268928724500,9.946724365234376,0.5454199910163879,-0.04349839314818382,0.10641603171825409
1782815268948806400,9.966806396484374,0.5832869410514832,-0.014956154860556126,0.25302398204803467
1782815268968888600,9.986888671875,0.5707395672798157,-0.09545861184597015,0.3009239435195923
1782815268988970500,10.006970458984375,0.5562384128570557,-0.04596829041838646,0.31077390909194946
1782815269009053400,10.027053466796875,0.5285388827323914,0.10395490378141403,0.3364328444004059
1782815269029135400,10.04713525390625,0.48260238766670227,0.23830406367778778,0.3523143529891968
1782815269049217500,10.067217529296874,0.4226258099079132,0.30001404881477356,0.30302438139915466
1782815269069299500,10.087299560546874,0.3250525891780853,0.20106279850006104,0.19911709427833557
1782815269089381400,10.10738134765625,0.25460273027420044,0.228871688246727,0.15581630170345306
1782815269109463600,10.127463623046875,0.21426604688167572,0.22979815304279327,0.21081660687923431
1782815269129545500,10.14754541015625,0.19310826063156128,0.18206152319908142,0.3290160298347473
1782815269149627400,10.16762744140625,0.17175032198429108,-0.009567972272634506,0.3850591778755188
1782815269169709600,10.18770947265625,0.15074588358402252,-0.12875264883041382,0.4244021773338318
1782815269189791500,10.20779150390625,0.11438477784395218,-0.20489299297332764,0.39795979857444763
1782815269209873400,10.227873291015625,0.09509184211492538,-0.11754845827817917,0.29439085721969604
1782815269229955300,10.247955322265625,0.09395045042037964,-0.010246239602565765,0.1563303917646408
1782815269250037500,10.26803759765625,0.09370561689138412,0.23233327269554138,0.06716149300336838
1782815269270119400,10.288119384765626,0.06338522583246231,0.42073166370391846,0.06256255507469177
1782815269290201300,10.308201416015624,0.006114007905125618,0.2688732147216797,0.000825745752081275
1782815269310284000,10.328283935546875,-0.0005702421767637134,-0.0912950187921524,-0.09577367454767227
1782815269330366200,10.3483662109375,0.028632698580622673,-0.06722487509250641,-0.1141953244805336
1782815269350448000,10.3684482421875,0.01042912807315588,-0.09331590682268143,-0.10994844138622284
1782815269370530000,10.388530029296875,0.023962819948792458,-0.027828238904476166,-0.11491583287715912
1782815269390612200,10.4086123046875,0.013485221192240715,-0.12482456862926483,-0.14021335542201996
1782815269410694100,10.428694091796874,0.027620406821370125,0.0238614734262228,-0.08969519287347794
1782815269430776000,10.448776123046875,0.03987197205424309,0.027397993952035904,-0.09114625304937363
1782815269450858200,10.468858154296875,0.07470835745334625,0.03414872661232948,-0.11253222078084946
1782815269470940200,10.488940185546875,0.08416148275136948,0.028657255694270134,-0.12579064071178436
1782815269491022000,10.50902197265625,0.029719309881329536,0.18638768792152405,-0.14840956032276154
1782815269511104000,10.52910400390625,-0.014105025678873062,0.7707948088645935,-0.18039624392986298
1782815269531186200,10.549186279296874,-0.1646316796541214,0.8163815140724182,-0.11550431698560715
1782815269551268000,10.56926806640625,-0.14654278755187988,0.3697522282600403,-0.17567913234233856
1782815269571350000,10.58935009765625,-0.0801173523068428,0.1504278928041458,-0.22479574382305145
1782815269591432200,10.60943212890625,-0.04479767009615898,0.0012830011546611786,-0.24907609820365906
1782815269611514000,10.62951416015625,-0.006355226971209049,-0.1558384746313095,-0.18630047142505646
